time,seconds_elapsed,z,y,x
1772527269605861400,0.076861328125,0.5425380204379558,-0.22349720521867275,-0.3937846521668136
1772527269615843600,0.086843505859375,0.6039291854679584,-0.5090834946036339,-0.9711795395176858
1772527269625825300,0.0968251953125,0.20843115351200103,-0.9936182388842105,-1.2580246698573232
1772527269635808500,0.10680859375,0.052469022905826564,-0.9166285227060318,-0.775823921482265
1772527269645790500,0.11679052734375,0.13486673560738563,-0.7543979793548583,-0.9434021094717084
1772527269655772400,0.1267724609375,0.2660761177510023,-0.6135276194185019,-1.293071287188679
1772527269665754600,0.136754638671875,0.6008066695332527,-0.21612346158027648,-1.381510033620149
1772527269675737300,0.1467373046875,1.0199579642772674,0.26691958283782,-1.057246515316516
1772527269685719600,0.156719482421875,1.4432804072260856,0.724519558441639,-0.624699732426554
1772527269695701200,0.166701171875,0.5745376712888479,1.7050579510003327,0.004710333115421236
1772527269705683500,0.176683349609375,2.270200601956248,1.6184698008716105,0.26350557314325124
1772527269715665400,0.18666552734375,2.918102200141549,1.0512541430339217,0.4738473825821653
1772527269725648400,0.1966484375,3.4076334375351665,1.3333166422069072,0.7222226796761154
1772527269735630600,0.206630615234375,3.6233313671797513,1.522887612426281,0.35861009760685264
1772527269745612300,0.2166123046875,3.617476211410761,1.5874395795747638,-0.04671323585808277
1772527269755594500,0.226594482421875,3.8225153843969104,1.5534546001255511,-0.6471737223021685
1772527269765576400,0.236576416015625,3.9556390757292506,1.347854870647192,-1.3615218692108988
1772527269775559400,0.246559326171875,3.8518683201313015,1.1091267785489558,-1.679551023169607
1772527269785541600,0.256541748046875,3.7668864361554384,1.216060382091999,-1.1037995921768247
1772527269795523300,0.2665234375,3.8660833079665897,1.5630886899113654,0.29849841446075587
1772527269805505500,0.276505615234375,3.715845400226116,-0.31431320217549796,0.5156855962824076
1772527269815488300,0.28648828125,3.414648869255185,-1.548398778040707,1.346066964317113
1772527269825470500,0.296470458984375,2.214614323812723,-2.1130609520033,3.9094574625298377
1772527269835452700,0.30645263671875,0.7124252160221338,-0.558576716569066,2.518179629741609
1772527269845434400,0.316434326171875,-0.24881109469532964,1.0992802150562404,0.5979080985475331
1772527269855416600,0.32641650390625,-0.4912795423656702,0.6711170540779828,0.6069196725208312
1772527269865399300,0.3363994140625,-1.1027578280389307,0.5663830064058304,0.5193931820960715
1772527269875381500,0.346381591796875,-1.9397709622383117,0.6153606800645589,0.07536043447591365
1772527269885363500,0.356363525390625,-2.2381536048322914,0.2155120516836643,0.1484665324200876
1772527269895345400,0.366345458984375,-2.107189721882343,-0.23081717284321784,0.5493229678703472
1772527269905327600,0.37632763671875,-1.7526333566457033,-1.0036442505970598,1.2073933837726711
1772527269915310300,0.386310302734375,-2.0787609152555464,-1.6523232628956437,1.6347677324607968
1772527269925292500,0.39629248046875,-3.8857016161501403,-1.8032766254290937,1.6380718885727226
1772527269935274200,0.406274169921875,-6.747867994058132,-1.3073375668197869,1.5762006849408148
1772527269945256400,0.41625634765625,-10.263645579969882,-0.29304215834885833,1.65537943559587
1772527269955239400,0.426239501953125,-13.27239017406702,0.41489013016819953,1.5780790460333227
1772527269965221400,0.436221435546875,-15.46334071369767,0.05802490346729755,0.9352962521664798
1772527269975203600,0.44620361328125,-16.837880177652835,-0.3482169330820441,-0.19254370241984725
1772527269985185300,0.456185302734375,-17.56600740519762,-0.22788053486943244,-1.3261705698445438
1772527269995167500,0.46616748046875,-17.711110288137196,0.8490110305070877,-2.6776830862164496
1772527270005150500,0.476150390625,-17.258436663019655,3.1706206249222157,-4.045827588437497
1772527270015132400,0.48613232421875,-14.998532414150237,4.888341073618829,-5.485518154478073
1772527270025114600,0.496114501953125,-9.420905300295352,4.318862731546163,-6.43992257334888
1772527270035096300,0.506096435546875,-2.3519372204005715,3.356631856833398,-5.575240510979294
1772527270045078500,0.51607861328125,2.7231115429610013,2.705674378208816,-3.344632499220967
1772527270055061500,0.5260615234375,5.4906251222282645,1.7814210597127675,-1.6068641187518835
1772527270065043700,0.536043701171875,7.717314499238133,0.8670739259421825,-0.7350577574603259
1772527270075026000,0.54602587890625,9.425947386115789,-0.16649463053643704,0.10656579314395785
1772527270085007600,0.556007568359375,9.433696977329253,-1.61467537702471,0.574101033437252
1772527270094989800,0.56598974609375,8.110728126135468,-3.3874422978997227,0.03419825687371194
1772527270104972500,0.57597265625,6.562678599923848,-4.787193360000848,-1.5612912851005791
1772527270114954800,0.585954833984375,4.897780225354433,-5.761237129843234,-3.159221279029548
1772527270124936700,0.595936767578125,3.3475247135311363,-5.827962641638517,-4.1158430816888805
1772527270134918700,0.605918701171875,2.7210201236397027,-5.005658416271209,-4.658014022380113
1772527270144901600,0.615901611328125,2.86276609736681,-4.151333789525926,-4.626027815532684
1772527270154883600,0.625883544921875,3.423257707646489,-3.205904119749367,-3.8616412338659165
1772527270164865800,0.63586572265625,4.177027910491824,-1.9720377395927904,-2.5249022159948944
1772527270174847500,0.645847412109375,4.882824063763022,-0.8158323990046977,-1.1565531311124562
1772527270184829700,0.65582958984375,5.028233820694685,0.3743058985844254,-0.08835399075746536
1772527270194812700,0.665812744140625,4.5654678406298155,1.2201372761420906,1.1860967671133578
1772527270204794600,0.675794677734375,4.238065439778566,1.8494103078335522,2.611032685483992
1772527270214776800,0.68577685546875,4.005108916819095,2.272840448940545,3.1527322092711922
1772527270224758500,0.695758544921875,3.307816972520947,2.432388767470419,2.9722464627832172
1772527270234740700,0.70574072265625,2.6111060429811475,2.5659754001393913,2.6942458062216637
1772527270244723700,0.7157236328125,2.398810030734539,2.621649648827314,2.5128598960235715
1772527270254705700,0.72570556640625,2.7040806792765855,2.7040362556129693,2.349222993005812
1772527270264687900,0.73568798828125,3.4594589018404482,2.7009096480250356,2.161808324037492
1772527270274669600,0.745669677734375,4.495257993850112,2.617285900659859,1.6527591700948774
1772527270284652800,0.75565283203125,5.558451288741827,2.6480650698050856,1.0908401573605835
1772527270294634500,0.765634521484375,6.488869851869344,2.730096287281811,0.6505963902272284
1772527270304616700,0.77561669921875,7.214520460167527,2.8667896537944673,0.3238858075650409
1772527270314599000,0.785598876953125,7.521075303301215,3.032691579134762,0.19115981031339616
1772527270324580600,0.79558056640625,7.422457692682743,3.1651734654322263,0.15306107540242372
1772527270334563800,0.805563720703125,6.9381146715819835,3.2961449471667406,0.14829309381563216
1772527270344545500,0.815545654296875,6.174109490448236,3.453901559974253,0.26975864218864587
1772527270354527700,0.82552783203125,5.221965417724848,3.4961484640732405,0.16020415209010241
1772527270364509700,0.835509765625,4.106214252600074,3.3765547009214756,-0.24503796936478464
1772527270374491600,0.84549169921875,3.008205664914846,3.40442879627496,-0.9792623812735081
1772527270384475000,0.855474853515625,2.139177097773552,3.759812552246451,-2.238443819950521
1772527270394456600,0.86545654296875,1.3931214148283004,3.7917534586474297,-3.438080890507996
1772527270404438800,0.875438720703125,0.5361597175776958,2.9838097670659423,-3.765018304196
1772527270414420500,0.88542041015625,-0.9982979211330413,1.6443606134533881,-3.727164374358952
1772527270424402700,0.895402587890625,-2.8413714271605013,0.1993807088330388,-3.755120595037937
1772527270434385700,0.9053857421875,-4.738870350858569,-0.22485490343794226,-3.963602017432451
1772527270444367600,0.91536767578125,-7.781376929304003,-1.4986523119665682,-4.926107325172424
1772527270454349800,0.925349853515625,-12.379641708642243,-4.071831506004929,-6.405954252773523
1772527270464331500,0.93533154296875,-15.997127272403239,-5.407364655217528,-5.196066421836615
1772527270474314800,0.945314697265625,-16.427566853880883,-4.001216585555673,-1.2913763198390602
1772527270484296700,0.955296630859375,-14.421770637071132,-1.4941640606366098,2.336326102031767
1772527270494278700,0.965278564453125,-12.583518267589806,-0.562072595860809,3.460109766964614
1772527270504260900,0.9752607421875,-12.466823148488997,-2.1606765435285866,2.762999024452269
1772527270514242600,0.98524267578125,-13.401555483162403,-4.073100210766494,1.6837246555924414
1772527270524225800,0.995225830078125,-10.47943118789792,-5.212255340093374,0.1504534593204502
1772527270534207500,1.00520751953125,-2.0369681846648455,-6.348757616823911,-0.8244231902826576
1772527270544189700,1.015189697265625,6.238938813233375,-6.9554013219475745,-0.7522507381930947
1772527270554172000,1.025171875,9.947126976704597,-5.17257565613389,0.42854485377222296
1772527270564153600,1.035153564453125,9.289337021711468,-2.7521774784475563,3.06430719910413
1772527270574136800,1.04513671875,5.521334148746728,-1.1227677658885717,5.096030761113763
1772527270584118500,1.055118408203125,0.7720856117367744,0.10209113194793462,5.000791102495789
1772527270594100700,1.065100830078125,-2.996249854183197,0.9380664475321769,3.9128918208926913
1772527270604082700,1.075082763671875,-5.536230689105391,1.131452592125535,2.478307345819473
1772527270614065700,1.085065673828125,-6.550944907510281,1.0775666881591082,1.0962001500237732
1772527270624047900,1.0950478515625,-5.404328064000606,1.1313213669613003,-0.24613018504828213
1772527270634029600,1.105029541015625,-2.4090157829284666,0.8773238095387816,-1.5419231522858141
1772527270644011800,1.11501171875,1.138746256265044,0.20999211921840905,-2.0036993906609712
1772527270653993700,1.12499365234375,4.317064742213487,0.002966156329214573,-1.7209794504925608
1772527270663976700,1.134976806640625,5.970044715452194,0.03845569512248039,-1.050988477835059
1772527270673958700,1.144958740234375,5.982597907555103,0.4453407980114221,0.13882667961376718
1772527270683940600,1.154940673828125,5.346736291253566,1.1065285787492989,1.5221180893585085
1772527270693922800,1.1649228515625,4.999542563739419,1.578115870912373,2.6441283148780466
1772527270703904500,1.174904541015625,5.23650715329647,1.8568688071459531,3.4201240857958792
1772527270713887700,1.1848876953125,5.606868405908346,2.073074686312675,3.708842535726726
1772527270723869700,1.19486962890625,6.089847152918577,2.2918474933579565,3.5784795412793753
1772527270733851600,1.2048515625,6.660007339775562,2.4751678787499665,3.2117797337844967
1772527270743833900,1.214833740234375,7.117461184906959,2.396979015915096,2.761417015957832
1772527270753816600,1.224816650390625,7.374104288402199,2.106733502547443,1.9697461215242742
1772527270763798800,1.234798828125,7.4730767038077115,1.7416911068707703,1.1204261711984873
1772527270773780500,1.244780517578125,7.412673380771279,1.4762655619829892,0.4950075864454731
1772527270783762700,1.2547626953125,7.213886253917217,1.5007318947196007,0.31620592058692126
1772527270793745000,1.264744873046875,7.022350121104717,1.7801453406885266,0.346541218422167
1772527270803727600,1.2747275390625,6.604857699483633,2.2103984596833586,0.6499837382216006
1772527270813709800,1.284709716796875,5.777438907581567,2.772118442714214,1.1432282239846885
1772527270823691500,1.29469140625,4.492278685778379,3.372751801507175,1.7254310230739414
1772527270833673700,1.304673828125,2.9749966382741926,3.737456928053498,2.2825493575282394
1772527270843655700,1.31465576171875,1.7673036870330572,3.8846407089203594,2.6442504799529907
1772527270853638700,1.324638671875,1.411263220718503,3.790445590919256,2.493236327143013
1772527270863620900,1.334620849609375,1.779552927753329,3.362238298538327,1.7918702652737497
1772527270873602600,1.3446025390625,2.304929385510087,2.4832915639728306,1.3101117077082394
1772527270883584800,1.354584716796875,2.4455256046801805,1.6780523090444504,0.9262512873802333
1772527270893566700,1.364566650390625,1.5388883146345615,1.0930252463147043,0.4520294089298695
1772527270903549700,1.3745498046875,-0.6476210276782512,0.1454080033659935,0.023443894353695212
1772527270913532000,1.384531982421875,-2.949068416291475,-1.0750419919870793,-0.3203780551724136
1772527270923513600,1.394513671875,-4.51657726073265,-2.0612278889134523,-0.48787006271574646
1772527270933495800,1.404495849609375,-5.943149109742045,-3.3764889422088857,-0.12655563805364073
1772527270943478500,1.414478515625,-7.978385356047749,-4.5154409501791,0.006866049844585359
1772527270953460700,1.424460693359375,-10.395996533364057,-4.667489706733822,-1.2807605255395174
1772527270963442700,1.434442626953125,-12.897529271948336,-4.994515675488114,-2.129972923837602
1772527270973424600,1.444424560546875,-15.248595554733276,-5.484598117023706,-1.6304919548377395
1772527270983406800,1.45440673828125,-16.86541817291975,-4.4870749796554446,-1.010185561999306
1772527270993389600,1.4643896484375,-17.666981223553417,-2.7422610645890235,-0.6880411547414959
1772527271003371800,1.474371826171875,-17.373036855667827,-2.8090377220496534,0.3632403146907687
1772527271013353500,1.484353515625,-16.263754594296216,-2.629974701841175,0.339644809971936
1772527271023335700,1.494335693359375,-14.396411739408968,-1.9603385339707136,-1.1572970082823186
1772527271033318000,1.50431787109375,-10.645110410398244,-0.8309972349107265,-2.544755794239044
1772527271043300600,1.514300537109375,-6.2770975712358945,0.1218318974673748,-1.7215023053228855
1772527271053282800,1.52428271484375,-2.1318740812838075,0.5926341767325997,-0.3770930450849235
1772527271063264800,1.5342646484375,1.7963211072027683,1.1470163642212747,-0.3559910742148757
1772527271073246700,1.544246826171875,5.5867076614111655,1.3928779614612459,-1.3417090613685547
1772527271083229700,1.554229736328125,8.770420115357638,1.0333166275441645,-2.6133494379937647
1772527271093212000,1.5642119140625,10.975993054580687,0.0923717019662261,-3.5861902617871757
1772527271103193900,1.57419384765625,12.261059752881525,-1.144851002880931,-3.402172249519825
1772527271113175800,1.58417578125,12.536819644778966,-1.8404077939495442,-2.264801957783103
1772527271123157800,1.59415771484375,12.152705761146544,-1.5324255483612417,-1.1774158863991497
1772527271133140700,1.604140625,11.045766263508796,-0.32310119652599095,-0.9086953916192054
1772527271143123000,1.614123046875,8.910201511013508,1.559667191030085,-1.402881469081342
1772527271153105000,1.62410498046875,5.8098956545501945,3.523971413761377,-1.8635593908257782
1772527271163086800,1.6340869140625,2.1853081498295066,5.0218531797468655,-2.0515547822915017
1772527271173069800,1.64406982421875,-1.5461521681576966,5.5599108399003745,-2.391710573992878
1772527271183051800,1.6540517578125,-5.045743173900246,5.0929216891825195,-2.853941862659156
1772527271193034000,1.664033935546875,-7.432504454922675,4.279900255945325,-3.0451620613902803
1772527271203015700,1.674015625,-8.01441470080614,3.6517753713756798,-2.7984409247115254
1772527271212998000,1.683997802734375,-7.058084282308816,3.261388106562197,-2.184436481561512
1772527271222980900,1.69398095703125,-5.0429818924933665,3.1695988806590436,-1.6912452603556214
1772527271232962800,1.703962890625,-2.4764672709107396,3.109104664468765,-1.464529531481862
1772527271242944800,1.71394482421875,0.4246159898906946,3.048204497826099,-1.4751125925555824
1772527271252926700,1.7239267578125,3.270248581627011,2.8238433692544698,-1.5329833283744752
1772527271262909000,1.733908935546875,5.725646761023998,2.5744419074505567,-1.2503627569273112
1772527271272891600,1.7438916015625,7.268276600274443,2.5050021682605146,-0.7185464753814041
1772527271282873900,1.753873779296875,7.653674678498506,2.555714410626888,-0.26310380567563696
1772527271292855800,1.763855712890625,7.182744096678495,2.650039292487502,-0.24831233312664552
1772527271302837800,1.773837646484375,6.283862827587127,2.8168536564975977,-0.8112437560401856
1772527271312819700,1.78381982421875,5.204240960463881,3.0521017975255846,-1.400671684077382
1772527271322802700,1.793802734375,4.155391832745075,3.324490167163312,-1.7290869152329862
1772527271332785000,1.803784912109375,3.2925060061424967,3.561247835971415,-1.6665853047430514
1772527271342766800,1.813766845703125,2.3250182338148355,3.7316537947326895,-1.101044448249787
1772527271352748800,1.823748779296875,1.23168699029088,3.8842511250808833,-0.07107134071355685
1772527271362732000,1.83373193359375,0.14199907170534132,4.057620025300979,0.9390835886854678
1772527271372713700,1.843713623046875,-0.6351701269060372,4.096838229228556,1.3948647513642907
1772527271382696000,1.853696044921875,-0.6741741035610437,3.7419121538966893,1.2793665869630872
1772527271392678000,1.863677978515625,0.19708850624263285,3.0501442337170244,0.9114593033745885
1772527271402659800,1.873659912109375,1.093370991012454,2.146016003882885,0.7628922514557838
1772527271412642800,1.883642822265625,0.8236983100742101,0.890693286460638,0.7467083016350865
1772527271422624800,1.893624755859375,-0.5389443798601627,-0.21641367669850586,0.6459862660832703
1772527271432607000,1.90360693359375,-2.0498475399821996,-1.2781731393948197,0.49818219789359713
1772527271442589000,1.9135888671875,-2.759570511308312,-2.1068676503211257,0.24782317963652312
1772527271452571000,1.92357080078125,-2.896469629526138,-2.991055500410497,-0.12500921232923864
1772527271462553900,1.933553955078125,-4.1531630507797,-4.496544818790257,0.07370514154955744
1772527271472535800,1.943535888671875,-7.959414698117971,-5.308119268089532,0.9185338448707013
1772527271482517800,1.953517822265625,-14.873346530079841,-4.7829929857015605,1.694293249749392
1772527271492499700,1.963499755859375,-22.083473139202592,-3.9909827763110397,2.745444078539312
1772527271502483000,1.97348291015625,-25.02153500831127,-3.587827507600188,3.837087807367742
1772527271512464600,1.983464599609375,-22.180155397844313,-3.079734485338628,3.81831968627274
1772527271522446800,1.99344677734375,-15.73775854333639,-2.925123477080464,2.898084955768287
1772527271532428800,2.0034287109375,-8.904158723717927,-3.788966166016459,2.5589044388398525
1772527271542410800,2.01341064453125,-2.9976778411597014,-4.177288899515569,2.2967754512794314
1772527271552394000,2.02339404296875,1.7205904511749743,-3.3829265740409493,2.0728530063860116
1772527271562375700,2.033375732421875,4.734603925585747,-2.00414523473233,2.688345057745278
1772527271572358000,2.04335791015625,6.2733566311419,-0.372620721976459,3.4352287159472703
1772527271582339800,2.05333984375,7.191961422356963,0.6548673455446958,2.821431339676678
1772527271592321800,2.06332177734375,8.039471400651335,0.6551356410920619,0.4712294186361134
1772527271602305000,2.073304931640625,7.942495127499103,-0.11956424479633569,-2.1468175295241174
1772527271612286700,2.08328662109375,6.292732947263121,-0.4338692636653781,-2.900969863554835
1772527271622269000,2.09326904296875,3.591562017953396,0.5484390611752867,-1.517022227524221
1772527271632251000,2.1032509765625,0.8275579081118106,2.217320367901027,0.26911256283745166
1772527271642233900,2.11323388671875,-1.474712487322092,3.671820088277757,1.81657669037655
1772527271652215800,2.1232158203125,-2.7741864811599255,4.587283658857643,2.914959225940704
1772527271662197800,2.13319775390625,-2.881661936494708,4.985867089608312,2.9705194928601384
1772527271672180000,2.143179931640625,-2.1323902141124007,4.763265956446528,2.3299770252659915
1772527271682162000,2.153161865234375,-1.0149328295916318,4.21041989248395,1.7467440063461661
1772527271692145000,2.163144775390625,0.48010640644431113,3.5808769578099247,1.2227105606961994
1772527271702126800,2.173126953125,2.381787584263086,2.873416962979734,0.46860528067760165
1772527271712108800,2.18310888671875,4.582048388552665,2.2539853802144525,-0.37930977128632365
1772527271722090800,2.1930908203125,6.685929716539382,1.6779373043626546,-1.1820885543853044
1772527271732072700,2.20307275390625,8.307678100690245,1.3717559707164764,-1.7245362661913037
1772527271742056000,2.213055908203125,9.351408570221066,1.3292872405603526,-1.922731564632058
1772527271752038000,2.223037841796875,9.871635974651575,1.4552482006564735,-1.947864982975274
1772527271762019800,2.233019775390625,9.99389340405464,1.7725825042188166,-1.8620567311778664
1772527271772001800,2.243001708984375,9.75510101454854,2.1429265134349462,-1.7143689463116227
1772527271781983700,2.252983642578125,9.315492038187385,2.4585189417660236,-1.6239390260629354
1772527271791967000,2.262967041015625,8.861746399924158,2.7737717628791927,-1.58289609092623
1772527271801948700,2.27294873046875,8.468018300250172,3.0545778322502968,-1.5451796698637306
1772527271811931000,2.282930908203125,8.142959832176565,3.2992548958808183,-1.4103453752212225
1772527271821912800,2.292912841796875,7.9763903828382485,3.5762691717535255,-1.1433588646270334
1772527271831895800,2.302895751953125,7.977253137147426,3.956009662607312,-0.8370484977737068
1772527271841878000,2.3128779296875,7.852398092466593,4.249205257952213,-0.5059358442276716
1772527271851859700,2.322859619140625,7.560483769103884,4.263715721602738,-0.13754025653242133
1772527271861842000,2.332842041015625,7.396176419478654,4.222500206378102,0.17388364480920135
1772527271871824000,2.342823974609375,7.58826258738935,4.042527377848327,0.4293516401104629
1772527271881806800,2.352806884765625,8.072737125915289,3.486182658115029,0.6023681466963142
1772527271891788800,2.362788818359375,8.367357201105357,2.669157834455371,0.5370847600007429
1772527271901770800,2.372770751953125,7.977391084313393,1.541849210266769,0.2799542017821222
1772527271911753000,2.3827529296875,6.817054927530885,0.6308654154494404,-0.15188291673483326
1772527271921735000,2.39273486328125,5.1178796048283575,-0.08326981936097144,-0.9092484954573213
1772527271931718000,2.4027177734375,3.051726242211461,-1.0736363629728556,-1.9085067860551177
1772527271941699800,2.412699951171875,0.10845745210945605,-2.1007555971816183,-3.3728771814525125
1772527271951681800,2.422681884765625,-4.137058888196945,-3.2269235269024965,-5.022112707465887
1772527271961663700,2.432663818359375,-9.003675329002737,-4.078504115636647,-6.226745102092623
1772527271971646700,2.442646728515625,-13.662088579833506,-4.375461401602625,-7.113664130711555
1772527271981629000,2.45262890625,-17.192100442802904,-4.3511841616973275,-7.4166054595232005
1772527271991611000,2.46261083984375,-19.01909141355753,-3.9461850186854597,-7.039102518463134
1772527272001592800,2.4725927734375,-18.77305913592577,-3.136075088980794,-6.105759592321514
1772527272011574800,2.48257470703125,-15.956033045470713,-2.8122268734797835,-4.766055294904112
1772527272021557800,2.492557861328125,-11.117402928221225,-3.1180446345105763,-3.597235095153749
1772527272031540000,2.5025400390625,-6.558862256506085,-3.3095790137574075,-2.8714404022097586
1772527272041521700,2.512521728515625,-4.0717531800717115,-3.103655166891217,-1.7577181125640868
1772527272051503900,2.52250390625,-4.0900867091417314,-2.4609733491808177,-0.3624465339645743
1772527272061485600,2.532485595703125,-5.769193057283759,-1.569447411288321,0.4911041857987642
1772527272071468300,2.54246826171875,-7.313408704420924,-0.7984253371298312,0.9880649886712431
1772527272081450500,2.552450439453125,-7.661061281618475,-0.3446571947738528,1.4313579142421484
1772527272091432400,2.562432373046875,-6.359422218701243,-0.3206383135437965,1.440133341372013
1772527272101414400,2.572414306640625,-3.593924070909619,-0.5001821030065416,0.9696224462687969
1772527272111396600,2.582396728515625,-0.2919096471875906,-1.0478320596307515,0.4341159319028258
1772527272121379300,2.59237939453125,3.1869571349561214,-1.5806734464406966,-0.3904030469045043
1772527272131361500,2.602361572265625,6.231698925107717,-1.6317024996712803,-0.9740955000296234
1772527272141343200,2.61234326171875,8.050957255783677,-1.4130465970039368,-0.8782306952506304
1772527272151325400,2.622325439453125,8.249825046658515,-0.5685746712312102,-0.39826691214740273
1772527272161308400,2.632308349609375,6.57399552823007,0.4907436819233,0.3957546370655298
1772527272171290400,2.642290283203125,3.6697803991436957,1.0700053129941225,1.3222753159716725
1772527272181272600,2.6522724609375,0.8635656255602836,1.348038264390081,2.0136381624817847
1772527272191254300,2.662254150390625,-0.9593167408317327,1.4266303011983632,2.4955989646211263
1772527272201236500,2.672236572265625,-1.569426660761237,1.3454703135982156,2.9002769128546118
1772527272211219500,2.682219482421875,-1.0098071571409701,1.3055747949309646,3.0758228648528454
1772527272221201400,2.692201416015625,0.34873218912780285,1.1979169687665998,3.1443644861593842
1772527272231183600,2.70218359375,2.077785932743549,1.0839445526279508,3.0352631831884382
1772527272241165300,2.712165283203125,3.9803006387770172,0.893017053233087,2.821271472939849
1772527272251147500,2.7221474609375,5.831040149387717,0.639278292877227,2.5826278442546724
1772527272261130200,2.732130126953125,7.27171417350769,0.34091698533222076,2.490470954082906
1772527272271112400,2.742112548828125,8.056897167226671,0.23854732870385048,2.623990658995509
1772527272281094700,2.7520947265625,8.053238644719123,0.27191549142897126,2.8880113055214283
1772527272291076400,2.762076416015625,7.329686470004916,0.36670652949661015,3.0316105058997866
1772527272301058600,2.77205859375,5.983706161057949,0.608918956579268,2.978575081282854
1772527272311041300,2.782041259765625,4.498269450625777,0.9671540103286504,2.7924393462091683
1772527272321023500,2.7920234375,3.2543209446549413,1.1641280964113772,2.4695319186896083
1772527272331005400,2.80200537109375,2.399914192584157,1.1730470236651598,1.79881701567173
1772527272340987400,2.8119873046875,1.916263829922676,1.1035152222774922,0.8816875577062367
1772527272350970600,2.821970703125,1.3932067550241947,0.9415260864667594,0.1190168400466442
1772527272360952300,2.831952392578125,0.17262509611546992,0.9098100748628377,-0.5940802838876843
1772527272370934500,2.8419345703125,-2.0107371803432703,0.6409625927023589,-1.1953764905035495
1772527272380916500,2.85191650390625,-4.593703170511127,0.18879618645459412,-1.6226368574231862
1772527272390898400,2.8618984375,-6.93163115478158,-0.33154315391778943,-2.0306924653962253
1772527272400881400,2.87188134765625,-8.383844225525856,-1.1375728285714983,-2.275137473836541
1772527272410863400,2.88186328125,-8.901939878624678,-1.3584528370290994,-2.752042453891039
1772527272420845600,2.891845458984375,-9.574203180128336,-0.7938023535043001,-3.85361574832052
1772527272430827300,2.9018271484375,-11.56680323075652,-0.5092268485970795,-5.113561157107353
1772527272440809500,2.9118095703125,-14.736638550519942,-0.9518437746025621,-5.880552076053619
1772527272450792400,2.92179248046875,-17.674487653660773,-0.46200157156363125,-6.920393136930465
1772527272460774400,2.9317744140625,-18.87077833639979,0.30266221960932016,-7.598534390556812
1772527272470756600,2.941756591796875,-17.5428053933084,0.34479967198446393,-7.71055099645257
1772527272480738300,2.95173828125,-14.10020994798541,0.6469691396407783,-7.865832743579149
1772527272490720500,2.961720458984375,-9.812390004956722,0.68623834310323,-7.200008535212278
1772527272500703200,2.971703125,-5.579592276448011,0.7081966385416686,-6.5171992897748945
1772527272510685400,2.981685546875,-1.4893687891840934,1.3080039217740296,-6.084142803797126
1772527272520667600,2.991667724609375,1.8769564864069221,1.5032090984880924,-4.621992568667233
1772527272530649300,3.0016494140625,3.536795824021101,1.443771697874367,-2.4400509726613757
1772527272540632600,3.011632568359375,3.0545576662451026,1.4232520569369196,-0.3319143253177404
1772527272550614300,3.0216142578125,1.3029986608326434,1.5836705824300645,1.5078168845444917
1772527272560596500,3.031596435546875,0.17924656008183956,2.222024015547335,3.4127406975463033
1772527272570578400,3.041578369140625,0.07961655755043029,2.8177076429784296,5.122148952710628
1772527272580560400,3.051560302734375,0.20616320858001708,3.3272517408311364,6.484505226919055
1772527272590543600,3.061543701171875,0.302673617786169,3.4556907814785838,7.853227529028057
1772527272600525300,3.071525390625,0.46900224410593505,3.199947549432516,8.816177657926081
1772527272610507500,3.081507568359375,1.0441454800724983,2.9051509486317633,8.711851022011041
1772527272620489500,3.091489501953125,1.940570588183403,2.4066861709371206,7.565637498605251
1772527272630471400,3.101471435546875,2.954767504715919,1.8485728340961038,5.9493701762139795
1772527272640454700,3.11145458984375,3.9879754111886023,1.2660009094335138,4.712755958653986
1772527272650436400,3.121436279296875,4.999623227760195,0.6880243497371673,3.9920743709400295
1772527272660418600,3.13141845703125,5.836788922172785,0.25799481036514044,3.2953105421692133
1772527272670400300,3.141400146484375,6.66211804831922,0.035355391019582745,2.5777435793444514
1772527272680382500,3.151382568359375,7.8408508625358335,-0.10783142916560172,1.8747912711970507
1772527272690365400,3.161365478515625,9.317555400457978,-0.20396014557778835,1.1990396891862154
1772527272700347400,3.171347412109375,10.756802022123336,-0.14508037884682415,0.5032482125788926
1772527272710329600,3.18132958984375,11.825733568406104,-0.0691769966006279,-0.22057444963976738
1772527272720311300,3.191311279296875,12.372388961035012,0.041486441120505334,-0.8720680079024284
1772527272730293500,3.20129345703125,12.344854472899437,0.23219956711232662,-1.207956132221967
1772527272740276200,3.211276123046875,11.655740574359893,0.6001733400657773,-1.001113709206134
1772527272750258400,3.221258544921875,10.44953523132801,1.0638777700245379,-0.49792643303424117
1772527272760240600,3.23124072265625,9.240926918807626,1.5759537244424222,-0.04993504744879901
1772527272770222300,3.241222412109375,8.375942074099182,2.014350110143423,0.10387626179903744
1772527272780205600,3.25120556640625,7.626067709648609,2.1935069461151957,-0.07776091974638402
1772527272790187300,3.261187255859375,6.69790773910284,1.9576134929209947,-0.713448713850975
1772527272800169500,3.27116943359375,5.765828549286723,1.3761872311621903,-1.5203244839400052
1772527272810151400,3.2811513671875,5.321559179899096,0.7270587215304374,-2.0887980328842994
1772527272820133400,3.29113330078125,5.431703562182188,-0.06879238119721412,-2.3409207363456486
1772527272830116600,3.30111669921875,5.761725205621123,-1.0203984015211462,-2.148849035351723
1772527272840098300,3.311098388671875,5.853275946593285,-1.9965747994780538,-1.9320619952961802
1772527272850080500,3.32108056640625,5.3039142176151275,-3.0599174397125837,-1.727476995818317
1772527272860062500,3.3310625,3.862330092912912,-3.9936385515168307,-1.6160177315443753
1772527272870044400,3.34104443359375,1.3450468274891376,-5.1426247545063495,-1.049644808141142
1772527272880027600,3.351027587890625,-2.2812065646171567,-6.674663641637563,0.013693320315051823
1772527272890009300,3.36100927734375,-7.062333171924949,-7.260577862465381,0.32319983459487556
1772527272899991600,3.370991455078125,-13.439061914736032,-6.494203029590845,-1.0862241149324923
1772527272909973500,3.380973388671875,-21.548097850000858,-4.727462237137556,-2.739197000843286
1772527272919955500,3.39095556640625,-30.722320884323118,-3.023128508758545,-2.657393162381649
1772527272929938400,3.4009384765625,-37.383635215044016,-0.8936413226112723,-2.044595026281476
1772527272939920400,3.41092041015625,-37.75427353103161,1.667890395992249,-1.78950119805485
1772527272949902600,3.420902587890625,-31.458601023185253,2.9435025988578793,-1.4342334696784615
1772527272959884300,3.43088427734375,-20.93501154460907,2.76399475749135,-0.6881370893966406
1772527272969866500,3.440866455078125,-9.707397598609328,2.1838956526830793,-0.4069456739697605
1772527272979849200,3.45084912109375,-1.7890847262084484,1.3385381762474775,-0.298352539716661
1772527272989831400,3.46083154296875,1.0498200185775757,0.4128197536349296,0.7825191813372075
1772527272999813600,3.470813720703125,0.03194470579326152,-0.07844342211782931,2.100579071570933
1772527273009795300,3.48079541015625,-1.5100328070282936,0.07903641957491636,3.02984203492254
1772527273019777500,3.490777587890625,-1.2445792050898075,0.4025023577600717,3.4189696550637483
1772527273029760300,3.50076025390625,0.10169804097712039,0.625271248704195,3.009091800099611
1772527273039742500,3.510742431640625,2.3406471801012754,0.392380484457314,1.9465482012882827
1772527273049724400,3.520724365234375,5.158824778679013,-0.10381021082550286,0.8951599835459142
1772527273059707000,3.530706787109375,7.813422172862291,-0.40407150677293535,0.11410239919386804
1772527273069689000,3.540689208984375,9.72565221722424,-0.36740386411100623,-0.4005995928786695
1772527273079671800,3.550671875,10.82656587870121,0.08050590760558843,-0.541457458659634
1772527273089654000,3.560654052734375,11.345672754669188,1.2151301155045628,-0.47536666457131505
1772527273099635700,3.5706357421875,11.097180808925629,2.795362540179491,-0.5011973444636911
1772527273109618000,3.580617919921875,9.773689395162462,4.522032895790041,-0.3741825644657016
1772527273119600000,3.59060009765625,8.018328659379481,6.099369599023461,0.41983876555152233
1772527273129582800,3.600582763671875,6.727062521916627,6.715994015413522,0.5168025445483625
1772527273139565000,3.61056494140625,6.351830448397994,6.257833483317494,-0.36844635890126226
1772527273149546800,3.620546630859375,6.463600970578193,5.345729744559526,-1.1522848061434925
1772527273159529000,3.630529052734375,6.524360851967335,4.537160906817019,-1.1100967926248908
1772527273169511000,3.640510986328125,6.722800772818923,3.942949690026045,-0.9808240776322782
1772527273179494000,3.650493896484375,7.051614794033766,3.4343256296277045,-1.3925121968887746
1772527273189476000,3.66047607421875,7.501480960515141,2.9941859073907136,-2.105214768547565
1772527273199457800,3.670457763671875,8.143709189239145,2.618143394272029,-2.65125509801805
1772527273209440000,3.68043994140625,8.520732237827778,2.4083061733543873,-2.794279421117902
1772527273219423000,3.690423095703125,8.274215391549468,2.207312184105813,-2.8303654644995926
1772527273229405000,3.700405029296875,7.593809115600585,2.138305575636029,-2.882550117506087
1772527273239387100,3.71038720703125,6.854463159427047,2.4411028198018667,-2.4653353437826038
1772527273249368800,3.720368896484375,6.1964107541054485,2.7398779688447714,-1.5218378111124038
1772527273259351000,3.73035107421875,5.6786196369111535,2.8784233929648995,-0.5453979399137199
1772527273269333800,3.740333740234375,5.526475018766522,2.821131187686324,-0.011596695095673203
1772527273279316000,3.75031591796875,5.564646636250615,2.6191028869539497,0.18594795741662382
1772527273289298200,3.760298095703125,5.170534505695104,2.0969690643802283,0.19327800804376602
1772527273299280000,3.77027978515625,4.164013530617952,1.2914078840211034,-0.028373350112512706
1772527273309262000,3.780261962890625,3.065690470156073,0.4761459783807397,-0.06768800015188753
1772527273319244800,3.790244873046875,1.8881418972879647,-0.42338147965967654,0.20051007818914948
1772527273329227000,3.80022705078125,0.21865677945017814,-1.3717605007611213,0.5491225133948028
1772527273339209000,3.810208984375,-2.2445576266556975,-2.6375276014387605,0.9484724715385585
1772527273349191000,3.82019091796875,-5.105388372045755,-4.41995286975801,0.6669988051041961
1772527273359173000,3.830173095703125,-8.806337816435098,-6.072591482213139,0.0017891484390944242
1772527273369155800,3.84015576171875,-14.871512300390004,-6.1638493777185674,0.2880477110624313
1772527273379138000,3.850137939453125,-21.817333308565615,-3.8673669180363413,1.8113935886502266
1772527273389119700,3.86011962890625,-26.890527383971214,-0.029458003544062375,3.166844028992951
1772527273399102000,3.87010205078125,-29.32415855271816,2.1710823483392594,4.1792596150666474
1772527273409084000,3.880083984375,-28.73901473174095,1.8927492449529468,4.682952941064536
1772527273419067000,3.89006689453125,-24.93734982767105,0.7489652867816388,4.045946538642049
1772527273429049000,3.900049072265625,-19.29080407589078,-0.897672185562551,3.4039255229279397
1772527273439030800,3.91003076171875,-13.177155191624164,-2.6243530625671148,2.8197467475906013
1772527273449013000,3.920012939453125,-7.574523984894156,-4.03300054782927,2.138125250633061
1772527273458995000,3.929994873046875,-3.172778387477994,-4.485854497949779,2.030825151865184
1772527273468978000,3.93997802734375,-0.5516431179136038,-3.81594214348644,2.070066298276931
1772527273478960000,3.949960205078125,0.5124146848529577,-2.7469237957030535,1.4360567395828663
1772527273488941800,3.95994189453125,0.8590607153564691,-1.7516811704874038,0.630334304247424
1772527273498924000,3.969924072265625,1.4502034844875336,-0.7126034951984882,0.4646432451788336
1772527273508906000,3.979906005859375,3.1576445312321186,0.29963731883019207,0.8179135161276906
1772527273518889000,3.989888916015625,5.4830164007902145,0.9720268770620226,1.1195927160490304
1772527273528871200,3.99987109375,7.165159924671054,1.318292383815348,0.7960784817427397
1772527273538852900,4.009852783203125,7.709069233462214,1.718237458308041,0.4708800937417894
1772527273548835000,4.0198349609375,7.472347220489382,2.323525072647631,0.46812323278170076
1772527273558817000,4.029817138671875,6.687931704011559,3.10888108484596,0.9132401954419911
1772527273568800000,4.039800048828125,5.757947440648079,3.8893832272723317,1.4702007089860736
1772527273578782000,4.049781982421875,5.025411164489388,4.384688371892273,1.714687510741502
1772527273588764000,4.059763916015625,4.861595397773384,4.562041373312473,1.5015972793772816
1772527273598746000,4.06974609375,5.394617401847243,4.633276179225742,1.1178748792804778
1772527273608727800,4.079727783203125,6.453462438401579,4.66560199329108,0.7985060742158442
1772527273618711000,4.0897109375,7.532439577880501,4.589421547669172,0.48103009716048833
1772527273628693000,4.09969287109375,8.18606832154095,4.350849815176427,0.011663476721569895
1772527273638675000,4.109675048828125,8.348302956545352,4.099641596211493,-0.5424907472301275
1772527273648657000,4.119656982421875,8.367430266341566,3.990428357298672,-0.799879481460899
1772527273658638800,4.129638916015625,8.474390173369645,3.8923312634229656,-1.0288916507087646
1772527273668622000,4.1396220703125,8.587835350763797,3.7520863419085737,-1.2914068611077965
1772527273678603800,4.149603759765625,8.615401987603306,3.5359503131076693,-1.5229526404865086
1772527273688586000,4.1595859375,8.637900235137343,3.4077997340127824,-1.7320377278625965
1772527273698568000,4.16956787109375,8.827806720921396,3.3750036720871925,-1.9479415553428232
1772527273708550000,4.1795498046875,9.234181536200643,3.454770744024217,-2.128157106587291
1772527273718533000,4.189533203125,9.639455112239718,3.702717623105645,-2.136341874347627
1772527273728514800,4.199514892578125,9.679017307299375,4.143554387696087,-1.97837980209589
1772527273738497000,4.2094970703125,9.319849064353107,4.721312190075218,-1.5833585938714443
1772527273748479000,4.21947900390625,8.732384691473841,5.234349683001637,-0.8638060101874172
1772527273758461000,4.2294609375,7.987430247768759,5.489093090355396,-0.25949388981647786
1772527273768444200,4.239444091796875,7.382374104097485,5.2220215318262575,-0.06555946369059383
1772527273778425900,4.24942578125,6.858173704382777,4.519147988003492,-0.17649580006897447
1772527273788408000,4.259407958984375,5.386122545224428,3.3894948465153574,-0.25710188011340795
1772527273798390000,4.26939013671875,2.866753121176362,1.8580723377168178,0.0010737667113542555
1772527273808372000,4.2793720703125,0.5709720877617597,-0.042995092117786404,0.6168901546541601
1772527273818355000,4.28935498046875,-1.06575759242177,-2.062215438646078,1.1363099690288305
1772527273828337000,4.2993369140625,-2.5082851354539395,-4.48147058377713,0.8089843597408384
1772527273838319000,4.309319091796875,-5.337774986162781,-6.812147281745076,0.005810878235846757
1772527273848301000,4.319301025390625,-10.87091472351551,-7.928482968759536,-0.7911712012831121
1772527273858283000,4.329282958984375,-19.55238697387576,-5.670584799015522,-2.302494997970015
1772527273868266000,4.339265869140625,-31.21937725652456,-1.531026202957332,-1.3901108348354696
1772527273878248000,4.349248046875,-41.828741815280914,0.5608486070238053,2.7292715268954635
1772527273888230000,4.35922998046875,-44.513483587837214,0.33824557416588064,5.140165670916438
1772527273898211800,4.3692119140625,-37.38102824741602,0.01251432139724493,3.6643969525396822
1772527273908194000,4.379194091796875,-24.926412254071234,-1.0092530303895473,0.48660468242242927
1772527273918176800,4.3891767578125,-11.53836156464815,-3.9764790346622463,-3.68093453810364
1772527273928159000,4.399158935546875,-0.7300888830065727,-7.428519184678793,-6.290100260671973
1772527273938141000,4.409140869140625,4.444534937828779,-8.735569751250743,-6.0943877189576625
1772527273948123000,4.419122802734375,4.1673312768638135,-7.790907558715343,-4.4963151016876095
1772527273958104800,4.429104736328125,1.1401625528037547,-5.994137538701295,-2.8213445381760596
1772527273968087800,4.439087890625,-1.1002835468798875,-3.8743548772275447,-1.841447073869407
1772527273978070000,4.449070068359375,-1.4826549707591532,-2.058606308238208,-1.4223666524045169
1772527273988052000,4.459052001953125,-0.2359463524252176,-0.7519576004654168,-1.66068061074391
1772527273998034000,4.469033935546875,1.704905975309014,0.020925883650779725,-2.4937054059594868
1772527274008016000,4.479015869140625,3.7329870891630645,0.43059769464880226,-3.595013619711995
1772527274017998000,4.488998046875,5.481857878404855,0.8587766377180814,-4.209909897135198
1772527274027981000,4.49898095703125,6.489975182762742,1.5937402871541677,-3.962604823088646
1772527274037963000,4.508962890625,6.567380494004488,2.72541777407676,-2.990870499232411
1772527274047945000,4.518945068359375,5.875715741938352,3.631676001676917,-1.5372178972043096
1772527274057927000,4.528927001953125,5.212867919033766,4.210398265174031,-0.24861922538504003
1772527274067908400,4.538908447265625,5.365542114010453,4.577207086001336,0.6130373516835272
1772527274077891300,4.548891357421875,6.139336283230781,4.646681896504759,0.9752036074019967
1772527274087873300,4.558873291015625,6.936261152669787,4.7382028268605465,0.9728183197006582
1772527274097855200,4.568855224609375,7.529413508057594,4.540647872149944,0.9520609244845807
1772527274107837400,4.57883740234375,8.034543296599388,4.287122608414292,0.9008411709874868
1772527274117819400,4.5888193359375,8.64775001350045,4.163285800865292,0.7315703537359833
1772527274127802400,4.59880224609375,9.319667278045415,3.9571185006320473,0.40223376995176074
1772527274137784300,4.608784423828125,9.978317064738272,3.640440907412767,-0.33872619728967546
1772527274147766300,4.618766357421875,10.52583170454502,3.3571012279108166,-1.1910527820855379
1772527274157748200,4.628748291015625,10.838529872739315,3.1624922635242343,-1.6553228831030427
1772527274167730400,4.63873046875,10.89213988237381,3.2173414595648646,-1.743068240442872
1772527274177713400,4.64871337890625,10.42403838649988,3.5148522877603767,-1.6197960810393095
1772527274187695400,4.6586953125,9.19942177298665,3.9274870402172204,-1.4156583869375288
1772527274197677300,4.66867724609375,7.729789949929714,4.427598708336055,-1.081958054985851
1772527274207659300,4.6786591796875,6.752146109768748,4.934087218010426,-0.8092182415619492
1772527274217641500,4.688641357421875,6.257672155275941,5.28842906371355,-0.7132173893131315
1772527274227624400,4.69862451171875,6.116022627660632,5.54822566280365,-0.8978434504762292
1772527274237606400,4.7086064453125,6.300386092364787,5.6626797249794,-1.1496164637170732
1772527274247588400,4.71858837890625,6.5001341732054945,5.716348771324753,-1.2619072103790938
1772527274257570300,4.7285703125,6.1822694160282605,5.747995370954275,-1.2402647028915583
1772527274267552300,4.73855224609375,5.267642880794406,5.310167432790994,-0.9681881756819785
1772527274277535500,4.748535400390625,4.164392885324359,4.07340650023669,-0.7080575223319232
1772527274287517200,4.75851708984375,3.3132162012159823,1.9601031177796422,-0.7361853001855313
1772527274297499400,4.76849951171875,3.0869898632943626,-0.895263516985625,-1.052707410582155
1772527274307481300,4.7784814453125,2.8236072224110362,-3.484813707849383,-0.7509257731996476
1772527274317463300,4.78846337890625,1.4888754527091979,-5.710048209875822,0.05878770453333854
1772527274327446300,4.7984462890625,-1.2186556592822073,-7.678450807836652,0.4115348283909261
1772527274337428200,4.80842822265625,-6.007304478788376,-7.928738404825329,1.4609151403769849
1772527274347410400,4.818410400390625,-14.769070163047314,-5.804112394973635,3.211072170037031
1772527274357392400,4.828392333984375,-26.63055075213909,-3.2826334314256904,4.602806222160161
1772527274367374300,4.838374267578125,-35.95699263888597,-2.3910725683502854,4.924755910563468
1772527274377357300,4.848357421875,-36.85452132432461,-3.0218928294837473,3.2074399510145186
1772527274387339300,4.85833935546875,-28.17393404010534,-4.708604099671542,-0.18388371836319564
1772527274397321200,4.8683212890625,-13.85248138782978,-5.691226605027913,-2.966421994413435
1772527274407303400,4.878303466796875,1.1348603547424077,-6.998116428080201,-2.8143118630602952
1772527274417285000,4.88828515625,7.309054016342759,-7.893920189422369,-0.35105661348737777
1772527274427268400,4.898268310546875,2.0982611500173807,-7.293149760246276,1.6185941579036414
1772527274437250300,4.908250244140625,-7.304031219744682,-5.15084839297235,2.491947748637199
1772527274447232300,4.918232177734375,-14.743222605085371,-2.470763506311178,3.162272483293712
1772527274457214500,4.92821435546875,-19.498025269091126,-0.5723710678394883,4.22296051736623
1772527274467196200,4.938196044921875,-19.774436318373677,0.6122821494020522,5.26586242711842
1772527274477178400,4.948178466796875,-15.32585532002449,1.1249158107679336,3.884822202967107
1772527274487161300,4.958161376953125,-7.984823864662647,0.03745879303961992,-0.8784716643996536
1772527274497143300,4.968143310546875,-0.05280220038294792,-1.2610583384647964,-4.429844733697176
1772527274507125500,4.97812548828125,6.635552112954855,-0.7825365708634257,-4.4722161409586665
1772527274517107200,4.988107177734375,10.555857424974441,0.8677974179111421,-2.028351309097558
1772527274527089400,4.99808935546875,10.7008422344923,2.5507120722949503,1.2762152833253144
1772527274537072400,5.008072265625,8.236441248950362,3.7360455999508497,3.172637809963524
1772527274547054300,5.018054443359375,5.552870273739099,4.491235314205289,3.2144039448082444
1772527274557036300,5.028036376953125,3.8586271467417474,4.750219427868724,2.3886782205596564
1772527274567018200,5.038018310546875,3.2585821092307565,4.524375951784849,1.6691306053116917
1772527274577000400,5.04800048828125,3.550052195957303,4.266737407511473,1.3706398261681199
1772527274586983200,5.057983154296875,4.585827907091379,4.066995171889663,1.2227736159950493
1772527274596965400,5.06796533203125,6.425576652610301,3.5534640502274035,0.7313751964900642
1772527274606947300,5.077947265625,8.772202907121182,2.7550752457156777,-0.07776165039874613
1772527274616929300,5.08792919921875,11.141417425537108,2.1034644177488984,-0.7324358114589006
1772527274626911500,5.097911376953125,12.918500748306512,1.8662980220094323,-0.9529764318943024
1772527274636894200,5.107894287109375,13.546037603855133,2.037188549417257,-0.7753769814323633
1772527274646876400,5.11787646484375,13.109037348687648,2.4423583728209137,-0.531662990680337
1772527274656858000,5.127858154296875,12.185219206738472,2.9329096009120343,-0.3307714388929307
1772527274666840300,5.13784033203125,11.10454110856056,3.2918612784981724,-0.08282097961492836
1772527274676822500,5.147822509765625,10.121621958345175,3.582688975667953,0.19730097994953394
1772527274686805200,5.15780517578125,9.424217201322316,3.810016845090687,0.298961830721423
1772527274696787500,5.167787353515625,8.912458350029587,3.862684897699952,0.29840697331763805
1772527274706769200,5.17776904296875,8.596144329425693,3.8356186115980146,0.12914974620006978
1772527274716751400,5.18775146484375,8.32645119022131,3.6550501552626486,-0.3693642043985426
1772527274726733300,5.1977333984375,7.8676143662989135,3.2409482528626916,-1.0554508640713989
1772527274736716300,5.20771630859375,7.055712292480468,2.775026439115405,-1.2916392085589468
1772527274746698500,5.217698486328125,5.76003301475048,2.4587433981716633,-1.0876268944025038
1772527274756680200,5.22768017578125,4.204347879093885,2.234611109919846,-0.6564384673189372
1772527274766662400,5.237662353515625,2.8179578183472156,1.8679020962052046,-0.1951424136761576
1772527274776644400,5.247644287109375,1.449641174429655,1.0141308655589818,-0.0863364403899759
1772527274786626300,5.257626220703125,-0.30417057834565636,-1.1184297366842626,-0.5294755636386573
1772527274796609300,5.267609375,-2.431304187104106,-4.051310111501813,-1.581409359499812
1772527274806591200,5.27759130859375,-5.845521679204702,-6.493811984446644,-2.437709962493181
1772527274816573400,5.287573486328125,-12.13290683569908,-6.718175451105832,-2.638689046433568
1772527274826555100,5.29755517578125,-20.814728630149364,-5.618325034946203,-0.747494848902896
1772527274836537300,5.307537353515625,-28.858434891891477,-4.573044413363934,2.4778014421239494
1772527274846520300,5.317520263671875,-32.60437147899866,-2.6914479921966787,3.816958042530715
1772527274856502300,5.327502197265625,-31.468942384457588,-1.8321875164844095,3.8496602886930105
1772527274866484500,5.337484375,-26.635579978477953,-2.6445623223811388,3.405163540290296
1772527274876466200,5.347466064453125,-20.176610759353636,-3.663528353011608,2.3771339132383464
1772527274886448400,5.357448486328125,-12.76965692527294,-4.1494773480042815,0.41326048313975333
1772527274896431000,5.36743115234375,-5.368453617542982,-4.769031680366397,-1.5283645825326442
1772527274906413300,5.377413330078125,-0.8054407688498496,-5.306532875680923,-2.375976559896767
1772527274916395500,5.3873955078125,-0.39388708962798114,-4.888811613740026,-2.080245162463933
1772527274926377200,5.397377197265625,-2.335692772564292,-3.560501401518285,-1.440467395631969
1772527274936359400,5.407359375,-4.528314460277557,-1.803971914216876,-1.3808935091570018
1772527274946342100,5.417342041015625,-6.305468510195612,-0.22578590067774057,-1.585444167973846
1772527274956324400,5.427324462890625,-6.248315128865838,1.0605237834215164,-1.7968461539901792
1772527274966306300,5.437306396484375,-3.930688174346089,1.8358575832992792,-2.0342448971807956
1772527274976288300,5.447288330078125,-0.9150082280278206,2.363748361964524,-2.016369925533235
1772527274986270500,5.4572705078125,1.4525070852547883,2.7880463719472286,-1.6455046689219772
1772527274996253200,5.467253173828125,2.8852549925506112,3.2022438436761496,-1.0512337578330189
1772527275006235400,5.4772353515625,3.4817227560967203,3.6354105120301243,-0.40555582704655824
1772527275016217300,5.48721728515625,3.903116861331463,4.022060051620007,0.10885236971117555
1772527275026199300,5.49719921875,5.050947756806016,4.17808004989326,0.15813172973021863
1772527275036181200,5.50718115234375,6.910926220405101,4.008941919110715,-0.24679873195961116
1772527275046163200,5.5171630859375,8.714945480895041,3.7822143536686896,-0.7684086767897009
1772527275056146400,5.527146484375,10.082022938406467,3.5462539727181195,-0.9976384343110024
1772527275066128600,5.537128662109375,10.921564714300631,3.292561827982962,-0.9300434462048113
1772527275076110800,5.54711083984375,11.229243008506298,3.0096374512836337,-0.7466649008847772
1772527275086092800,5.5570927734375,11.413033057236671,2.6756092025518416,-0.6456254699468612
1772527275096074800,5.56707470703125,11.74012215435505,2.3173060520023108,-0.7166792202048003
1772527275106058000,5.57705810546875,12.122139942491053,2.033375420869887,-0.9344986720480024
1772527275116039700,5.587039794921875,12.343871307080983,2.0325831014484166,-1.0117508385546505
1772527275126022000,5.59702197265625,12.183734521138668,2.1497747718945144,-0.9440463987246155
1772527275136003800,5.60700390625,11.663325330400466,2.348214108224213,-0.8139560837388038
1772527275145985800,5.61698583984375,11.053292567360401,2.5825194154441355,-0.7284326402321457
1772527275155969000,5.626968994140625,10.896939976131915,2.6817878911867736,-0.5967075636513531
1772527275165950700,5.63695068359375,11.346841798448562,2.8528149044558404,-0.5170306542158126
1772527275175933000,5.646932861328125,12.164621824389695,3.0209336290627715,-0.7487519362919032
1772527275185915000,5.656914794921875,12.814693167829512,3.0410026036232707,-1.0914639883473516
1772527275195896800,5.666896728515625,12.599182285189627,3.0600188542604445,-1.3083600417353212
1772527275205878800,5.676878662109375,11.204931574070454,3.0582468761518595,-1.1654723506271838
1772527275215861800,5.68686181640625,9.42629868377149,3.012349925112724,-0.5906630227901041
1772527275225844000,5.696843994140625,7.9747016990989446,2.8713419102713464,0.13256971071138976
1772527275235825700,5.70682568359375,6.715351625856757,2.530532915358245,0.8397446049898862
1772527275245807900,5.716807861328125,5.344288898101449,1.735724015159905,1.3852140027046203
1772527275255789800,5.726789794921875,3.5742321129679677,0.4959089557319879,1.3439233764171599
1772527275265772800,5.736772705078125,1.1649696618020533,-1.1142688176125288,0.49349685308896
1772527275275755000,5.746755126953125,-2.4145506207019087,-2.5162127135828136,-0.23673976782523093
1772527275285736700,5.75673681640625,-7.451681449079513,-3.0029546125188467,-1.060293189536035
1772527275295719000,5.766718994140625,-13.39965929415226,-2.570336810219288,-1.8859142843663692
1772527275305700900,5.776700927734375,-19.308392339551446,-2.2929382112041115,-1.3581743123486638
1772527275315683800,5.786683837890625,-23.277209461283682,-2.256739355097711,-0.07152056405209005
1772527275325665800,5.796665771484375,-23.71491114271879,-2.565405491296947,0.7520663946021348
1772527275335647700,5.806647705078125,-20.655998203873633,-3.9786946648851034,0.5126592341985553
1772527275345630000,5.8166298828125,-16.752850947403907,-5.340211273398995,-1.301969171654433
1772527275355612000,5.82661181640625,-15.042898794621228,-6.022201603668928,-2.7549045653238893
1772527275365593900,5.83659375,-15.596749651712178,-5.056866625460982,-3.0955165763601658
1772527275375576800,5.846576904296875,-16.89885750118494,-3.5907322891309854,-1.7767444462038575
1772527275385558800,5.856558837890625,-16.485266178655625,-2.139456791497767,1.3056133733756838
1772527275395540700,5.866540771484375,-13.776741379451751,-0.9307926571369171,4.642814407421648
1772527275405523000,5.87652294921875,-10.81004027583599,-0.819699888087809,6.502311517244577
1772527275415505000,5.8865048828125,-8.048080239042639,-1.7664613909900186,6.083308106538653
1772527275425488000,5.89648779296875,-4.9769788497537375,-2.7080849464818835,4.14416521307081
1772527275435469800,5.9064697265625,-1.9492063145816325,-3.094005879536271,2.1448341006219387
1772527275445451800,5.91645166015625,1.2857821530938147,-2.9330791122600433,0.9285434899706393
1772527275455433700,5.926433837890625,5.034859376314282,-2.3943980595111847,0.4290151016324758
1772527275465415700,5.936415771484375,8.663184313997625,-1.858676148828864,-0.20421967329680918
1772527275475398700,5.946398681640625,11.315691457903384,-1.2006696284756064,-1.4109532779864966
1772527275485380900,5.956380859375,12.369631186759472,-0.032007834157347675,-2.527396078637242
1772527275495362800,5.96636279296875,11.823366254752873,1.6087749208092688,-2.7683213885188103
1772527275505344800,5.9763447265625,9.669065822127461,3.5721313412964344,-1.5342605087034404
1772527275515326700,5.98632666015625,6.69858052379787,4.763598257140815,0.7168142447613179
1772527275525309000,5.996308837890625,5.075206584271788,5.220165674826503,2.211926546033472
1772527275535292000,6.0062919921875,4.610477195179462,4.983254861283302,2.3918499824635684
1772527275545273900,6.01627392578125,4.537947381019592,4.022916376188397,1.6744015314519405
1772527275555255800,6.026255859375,5.17874879181087,3.141580700659752,0.9524148524887859
1772527275565237800,6.03623779296875,6.610193799814581,2.470588734266162,0.5430305166626349
1772527275575220000,6.046219970703125,8.180815223318337,1.836292467585206,0.3088078096922487
1772527275585203000,6.056202880859375,9.639570847573875,1.4045724909082054,0.14458030210388823
1772527275595185000,6.066184814453125,10.926709675973653,1.2200666951239107,0.0066506227038393255
1772527275605166800,6.076166748046875,11.741108827304839,1.174509935824573,-0.04323327565467916
1772527275615148800,6.086148681640625,11.796327441179752,1.398581141538918,-0.05616036997074261
1772527275625131000,6.096131103515625,11.273846704864502,2.1969629317879678,-0.06780779060665518
1772527275635113700,6.10611376953125,10.391167213511466,3.007315145815909,0.015859668036084622
1772527275645096000,6.116095947265625,9.00990165617168,3.1884578949078914,-0.18614006418893111
1772527275655078000,6.126077880859375,7.571354707208275,2.893588521131873,-0.9238904765330255
1772527275665059800,6.136059814453125,6.323833603447675,2.4147303611829876,-1.9779706367731094
1772527275675041800,6.146041748046875,5.291014404031634,2.050266642177105,-2.8842879010841247
1772527275685023700,6.156023681640625,4.253116878437996,2.147754371982813,-3.048047845959663
1772527275695006700,6.1660068359375,3.2685242420524356,2.523571259652078,-2.367293487225473
1772527275704988700,6.17598876953125,2.134810719257593,2.7193729409545657,-1.501689633835852
1772527275714971000,6.185970947265625,0.49211423962414264,2.2323769211269915,-0.7899461895328015
1772527275724952800,6.195952880859375,-1.467606454709172,1.1198282053053379,-0.5118595351882279
1772527275734934800,6.205934814453125,-3.8908173517286775,-0.3374553005710244,-0.2505336076389998
1772527275744917800,6.215917724609375,-6.522265925514698,-2.180538743470609,0.19687223314344882
1772527275754899700,6.225899658203125,-8.66735546220243,-4.0124198243543505,-0.046344292947836215
1772527275764882000,6.2358818359375,-11.248300760197639,-5.428783290821314,-1.6666428801491855
1772527275774863600,6.245863525390625,-16.122114419031142,-6.381000428780913,-3.308992738302052
1772527275784845800,6.255845703125,-22.609243564713,-6.402984881573915,-3.633775896565616
1772527275794828000,6.265828125,-28.40378441374302,-4.039993767717481,-3.754371237975359
1772527275804810800,6.275810791015625,-31.56927205969095,-1.0635776180341838,-2.5391473067075014
1772527275814793000,6.28579296875,-30.239068581068516,-0.7180725742593407,-0.5304716620039195
1772527275824774700,6.295774658203125,-24.92440617494583,-0.773964557351172,-0.35644013315662737
1772527275834756900,6.3057568359375,-18.095006729626654,-1.0264473262965679,-0.35637020972557365
1772527275844738800,6.31573876953125,-10.635567506027222,-1.9853449649333952,0.3973533044338226
1772527275854721800,6.3257216796875,-3.0186896495282647,-3.7253710612013933,0.5562074666870758
1772527275864704000,6.3357041015625,2.745336818772554,-5.632786691018938,0.8390388678733259
1772527275874685700,6.345685791015625,5.537293349900842,-5.994853578016161,1.2756887752331794
1772527275884668000,6.35566796875,6.25914515043795,-5.121005627894402,0.9925288362123071
1772527275894649900,6.36564990234375,7.188911387136578,-4.271955434420705,-0.05197393286526203
1772527275904632800,6.3756328125,7.993170837247371,-3.3975589105054733,-1.6516837959483266
1772527275914615000,6.385614990234375,8.459693539497255,-2.088775236530602,-2.6161586501955982
1772527275924596700,6.3955966796875,9.10950886234939,-0.4925292501658201,-2.10033693337813
1772527275934579000,6.405578857421875,9.41307796767056,1.278472999124229,-0.8977069646149873
1772527275944560600,6.415560546875,7.908586428156495,2.9565216549068687,0.9697737643729895
1772527275954542800,6.42554296875,5.159276614099741,3.781636846041679,2.6249673950731753
1772527275964525800,6.43552587890625,3.3989661469548937,3.973111896316707,2.7484187104359266
1772527275974507800,6.4455078125,3.5633424701631067,3.6344253003850575,2.2820360011786223
1772527275984490000,6.455489990234375,4.960894560915231,3.0944378412127493,1.6253345720745622
1772527275994471700,6.4654716796875,6.466402583995461,2.6339471126034852,0.831425762521103
1772527276004454000,6.475453857421875,7.79350517399311,2.223482105401158,0.2662148503682576
1772527276014436600,6.4854365234375,8.96804988887012,1.955680771292746,0.27971867599319666
1772527276024418800,6.495418701171875,9.775424256131052,1.8133467685446143,0.6610211919993162
1772527276034401000,6.505401123046875,10.304891782593726,1.7794231638938187,1.302261724860221
1772527276044382700,6.5153828125,10.739518878889083,1.9887991970404981,1.8750452459581195
1772527276054365000,6.525364990234375,10.690668046480416,1.9973814396858214,1.892381288423389
1772527276064346600,6.5353466796875,9.907559520947933,1.8765777162224053,1.5466953351236878
1772527276074329300,6.545329345703125,8.830752711245417,1.850354602946341,1.1130709130648524
1772527276084311600,6.5553115234375,7.793409312403202,1.8953262558341024,0.5777323026116937
1772527276094293200,6.565293212890625,6.720898738589883,1.9429510535791514,0.17208718984648586
1772527276104275500,6.575275390625,5.644983909291029,1.9905735132366418,-0.165385938642174
1772527276114257400,6.58525732421875,4.7432595257282255,1.9894611680805683,-0.6094842623118311
1772527276124240400,6.595240478515625,4.006807537430524,1.9814038260921836,-1.1678211057104169
1772527276134222600,6.60522265625,3.396715153157711,2.141170901939273,-1.6389102390930055
1772527276144204300,6.615204345703125,2.7821365633815525,2.3874527704179287,-1.7000024211764335
1772527276154186500,6.6251865234375,2.0533184309631585,2.576988961584866,-1.3484259485334158
1772527276164168400,6.63516845703125,1.121640807685256,2.8410917334362864,-0.5575958888381719
1772527276174150400,6.645150390625,0.07363572957515716,3.1545126629471776,0.5719399098806083
1772527276184133600,6.655133544921875,-0.6406020888268947,3.002887100240588,1.6974077285081146
1772527276194115300,6.665115234375,-1.4733599036693572,2.1709216048195956,1.8979913833901285
1772527276204097500,6.67509765625,-3.1180817516505717,0.8545151808813214,1.0779445084955543
1772527276214079500,6.68507958984375,-5.540048786088824,-1.103294419133663,-0.061036433308199044
1772527276224061400,6.6950615234375,-10.03606548935175,-3.119248165081441,-0.802186954685673
1772527276234044700,6.705044677734375,-15.779792681467532,-3.90686043177396,-0.5623519973240793
1772527276244026400,6.7150263671875,-21.093190182220933,-3.690330142958462,0.9899949338205158
1772527276254008600,6.725008544921875,-24.78149057291746,-2.990712970583141,2.5044366433322427
1772527276263990500,6.734990478515625,-26.22390588774681,-1.2979872624114155,2.121150150434673
1772527276273972500,6.744972412109375,-25.655911939013002,-0.018418284744024276,1.3025374730616808
1772527276283954400,6.754954345703125,-23.542589413464068,-0.7497767492949963,2.05480297043249
1772527276293937400,6.7649375,-19.69569420557022,-1.9091098665148019,3.2084213632673024
1772527276303919600,6.774919677734375,-14.682106165343523,-2.6148358771592375,3.7823429484844207
1772527276313901300,6.7849013671875,-9.796543616527318,-3.2698671810939905,3.4896371824830767
1772527276323883500,6.794883544921875,-5.821900565120577,-3.714562374678254,2.5436364348202942
1772527276333865500,6.804865478515625,-3.004688596704602,-3.837335352388024,1.4283609243832527
1772527276343848400,6.814848388671875,-1.437598854458332,-4.053071860477328,0.2807787429727614
1772527276353830400,6.824830322265625,-0.7669687071144581,-4.501221578429639,-1.1869149516284465
1772527276363812400,6.834812255859375,-0.28072715891599653,-4.5370837499275805,-2.6276862986430523
1772527276373794600,6.844794677734375,0.49814767456948755,-3.9118151315718888,-3.7760882720038293
1772527276383776500,6.854776611328125,1.4502011463999747,-2.822105001154542,-4.583132092136144
1772527276393758500,6.864758544921875,2.649770996940136,-1.3468985928356647,-4.978158414927124
1772527276403741400,6.874741455078125,4.110691690275073,0.056273968146741384,-4.849198565275967
1772527276413723400,6.884723388671875,5.5808267866790295,1.3373223707169293,-4.006591848853231
1772527276423705300,6.894705322265625,6.687707247605919,2.603197461813688,-2.9351562107950446
1772527276433687600,6.9046875,7.025166347569227,3.7188662093520164,-2.081478795912117
1772527276443669500,6.91466943359375,6.697630091205239,4.582629987832903,-1.2663964846223592
1772527276453652500,6.924652587890625,6.203416248953342,4.9884384014010426,-0.5300983717121184
1772527276463634400,6.934634521484375,6.00263414888978,5.136287368178367,-0.20914361263029277
1772527276473616400,6.944616455078125,6.278516205862164,5.2452691364228725,-0.36290516445226967
1772527276483598600,6.9545986328125,6.91400548171997,5.252768552267551,-0.8505873399131
1772527276493580300,6.964580322265625,7.729032994082569,5.187409652650356,-1.4215703874602914
1772527276503562500,6.9745625,8.461395667240023,5.20510079216361,-1.684262707991898
1772527276513545500,6.98454541015625,9.043640844166278,5.431124885511398,-1.4540841253131627
1772527276523527400,6.99452734375,9.44073520540297,5.703645357096195,-0.984780852434039
1772527276533509400,7.00450927734375,9.597636078163982,5.7775569810032845,-0.581834769494459
1772527276543491300,7.0144912109375,9.418730878865718,5.6853802170872685,-0.4485019654560834
1772527276553473500,7.0244736328125,8.937446076291799,5.601755008417368,-0.5830022789038718
1772527276563456500,7.03445654296875,8.25805979104042,5.460835548642278,-0.6915352804675697
1772527276573438500,7.0444384765625,7.4829101155579085,5.269447299867868,-0.5701859788853675
1772527276583420400,7.05442041015625,6.719571873900294,5.007942727816104,-0.334648280326277
1772527276593402400,7.06440234375,6.151159407493472,4.71926665572226,-0.028191125413402914
1772527276603384600,7.074384521484375,5.860969423705339,4.368615481230616,0.3632553661294281
1772527276613366300,7.0843662109375,5.885090888527035,3.9233527168914675,0.5960477115031332
1772527276623349500,7.094349609375,5.958008240699768,3.4052670006647703,0.7848452861972153
1772527276633331500,7.10433154296875,5.9303948421090835,2.6177587788686156,1.3321990363538265
1772527276643313400,7.1143134765625,5.675328778672218,1.5272560367688535,2.167754372960329
1772527276653295600,7.124295654296875,5.009920165368914,0.27323914124816656,2.6466104870826004
1772527276663277300,7.13427734375,4.043976115351915,-0.7459834944918752,2.9364322220802306
1772527276673260500,7.144260498046875,2.931747863656282,-1.3934692053526638,3.1511002241551873
1772527276683242500,7.154242431640625,1.5401216558218,-1.8828785699322819,3.382721991379559
1772527276693224400,7.164224365234375,-0.297615749874711,-2.778381010240316,3.81688410051167
1772527276703206700,7.17420654296875,-2.216318789643049,-4.388516698008775,4.313172410950064
1772527276713188400,7.184188232421875,-3.7100779227405782,-6.153434951210022,4.4331946286469694
1772527276723170600,7.194170654296875,-4.890555534797906,-7.427627788797021,4.123670998835563
1772527276733153300,7.2041533203125,-5.874448498481511,-7.312363579282164,2.7700290692195293
1772527276743135500,7.214135498046875,-6.088809626564383,-5.979048690640926,0.14390117899961768
1772527276753117400,7.224117431640625,-5.673883840560912,-5.319774634569883,-1.5770969031281767
1772527276763099400,7.234099365234375,-5.812295116907358,-5.726237128132581,-1.7880922080397605
1772527276773081600,7.24408154296875,-7.308292384320497,-5.636350520980358,-1.4608064193055033
1772527276783063300,7.254063232421875,-9.614764907619357,-4.154667317862809,-0.6947766735415906
1772527276793046500,7.264046630859375,-11.349058305454253,-2.461099898169935,0.7987235894240439
1772527276803028200,7.2740283203125,-11.825165413129328,-0.6991574459090828,2.1695757431685925
1772527276813010400,7.284010498046875,-11.348955429601668,0.807122438326478,2.939068415802717
1772527276822992600,7.29399267578125,-10.31669211050272,1.2992261565566061,3.5730750518873333
1772527276832974300,7.303974365234375,-9.008767683705686,1.0688622804388404,3.823312672254443
1772527276842956500,7.31395654296875,-7.602115171653032,0.49117608199119567,3.168789025580883
1772527276852939300,7.323939208984375,-6.094360830950737,-0.003434358362853527,1.6677599014803766
1772527276862921500,7.33392138671875,-4.395362033858895,-0.2505781043678522,0.07054265893064439
1772527276872903400,7.3439033203125,-2.6640035204321144,-0.2768169997349381,-1.2969210944846272
1772527276882885400,7.353885498046875,-0.8735288011699914,0.2342982929572463,-2.8931571439772843
1772527276892867600,7.36386767578125,0.34853462072908875,0.9402575278356671,-4.000805082145333
1772527276902850300,7.373850341796875,0.6097188747853041,1.5426213636830448,-4.208197832520306
1772527276912832500,7.38383251953125,0.16215455550551414,2.174906582802534,-3.7003725212842222
1772527276922814500,7.393814453125,-0.6468506278276444,2.762806424489617,-2.7426713989555833
1772527276932796400,7.40379638671875,-1.3962912770360707,3.047466246679425,-1.4518725867435336
1772527276942778400,7.4137783203125,-1.7380659021109341,3.1431676775902506,-0.22055596413500606
1772527276952760600,7.423760498046875,-1.4550246210336684,3.223036456336081,0.6368746658015996
1772527276962743600,7.43374365234375,-0.7439601719707251,3.174812231393158,1.2025362991303206
1772527276972725500,7.4437255859375,0.15957155327498912,3.0028809627607465,1.352332600583136
1772527276982707500,7.45370751953125,1.170399285635352,2.7702511875376103,1.1170028456863015
1772527276992689400,7.463689453125,2.331764200943708,2.666766263143718,0.639900370298326
1772527277002671400,7.47367138671875,3.6012750181943174,2.6426824999839065,0.1008305374275893
1772527277012653300,7.4836533203125,4.908740010786056,2.5574466412469743,-0.39024866006039083
1772527277022636300,7.49363623046875,6.060087974470854,2.4084362294748423,-0.8116704570196569
1772527277032618500,7.503618408203125,6.88112554090321,2.299748183479905,-1.1191492831304668
1772527277042600400,7.513600341796875,7.282767482441663,2.2251930009722707,-1.324663672412932
1772527277052582400,7.52358251953125,7.206222587421536,2.2268705787956713,-1.4250513614438474
1772527277062564900,7.53356494140625,6.81698829203546,2.446350657327473,-1.3245814009569585
1772527277072547800,7.5435478515625,6.337409708857536,2.863765045276284,-0.937384091291204
1772527277082530000,7.553530029296875,6.105550333485007,3.3387402263119816,-0.46069859920628364
1772527277092512000,7.563511962890625,6.207886672365665,3.6901723220482467,-0.09130922383386642
1772527277102494000,7.573493896484375,6.458387035322189,3.7962469706743955,-0.02942645762832835
1772527277112476000,7.583475830078125,6.569059240871668,3.4961581086844205,-0.08679397489912807
1772527277122457900,7.593457763671875,6.181852067399024,2.6935972791850564,0.009097151631209999
1772527277132441000,7.603441162109375,5.228372362157702,1.6774468904972075,0.42055904265008864
1772527277142423000,7.613423095703125,4.256717533278465,1.068309030470252,0.8269505898684263
1772527277152405000,7.623405029296875,3.7532279131591317,1.0064967174187303,1.0013661495972423
1772527277162387000,7.633386962890625,3.4753777709841724,0.80893708653301,0.8482087011482566
1772527277172369000,7.643368896484375,3.081672467663884,0.10483516995906829,0.40372517755329607
1772527277182350800,7.653350830078125,2.2718162204593417,-0.7400348152205347,-0.03113401046488434
1772527277192333800,7.663333740234375,0.6416735174506902,-1.8411632884919642,0.12278138021193444
1772527277202316000,7.67331591796875,-1.2328373293697834,-3.7017362108528613,1.0812357320606707
1772527277212298000,7.683298095703125,-2.1709552148282527,-4.771141804388165,0.7684112340729683
1772527277222280000,7.693280029296875,-1.851357934769988,-3.819595697557926,-1.966367292740941
1772527277232262000,7.703261962890625,-1.191764729747176,-2.8952807120025157,-4.638321479916573
1772527277242244900,7.713244873046875,-1.0328688837766646,-3.233213859218359,-5.268689759498835
1772527277252226800,7.723226806640625,-1.2936217606782912,-3.85554554733932,-3.6289053679198027
1772527277262209000,7.733208984375,-1.821340397647023,-3.7286475986540317,-1.3460612652286887
1772527277272191000,7.74319091796875,-2.1928695249944923,-2.893023872986436,0.4039313311172649
1772527277282173000,7.7531728515625,-2.2515122680991886,-1.9904417035505175,1.7261811107888816
1772527277292155100,7.763155029296875,-2.097456847897172,-1.4953928717792033,2.4978110877126456
1772527277302137900,7.773137939453125,-1.9420266322106121,-1.3934388102144002,2.7033757458776235
1772527277312120000,7.7831201171875,-2.1795850960075853,-1.4269672780677676,2.61364783641845
1772527277322101800,7.793101806640625,-2.9109657723903655,-1.7001403683423995,2.221677101805806
1772527277332084000,7.803083984375,-3.9584389355808494,-1.832381431621313,1.4886312686897814
1772527277342066200,7.813066162109375,-5.2842830499500035,-1.6766607085555791,0.5881487384142354
1772527277352047900,7.8230478515625,-6.443273052820563,-1.3979057264953851,-0.32397545860987154
1772527277362031000,7.833031005859375,-7.157509117656946,-1.0032751250237226,-1.1162490316443145
1772527277372012800,7.8430126953125,-7.225761400628089,-0.5431204965010286,-1.7483996645987032
1772527277381995000,7.8529951171875,-6.680763712078332,-0.23014351136535405,-2.1212110868416727
1772527277391977000,7.86297705078125,-5.672237826919555,0.026220482927560806,-2.225823115569353
1772527277401959000,7.872958984375,-4.321838532486558,0.3386941947162151,-1.9836815617658197
1772527277411942000,7.88294189453125,-3.0036060621649026,0.6971347079098225,-1.3730569703124462
1772527277421923800,7.892923828125,-1.725285330992937,1.0080179356366394,-0.5909748652182519
1772527277431906000,7.902906005859375,-0.3927431802898645,1.1491352560713886,0.0931214426212944
1772527277441887700,7.9128876953125,0.8406330782622098,1.0460384542122483,0.4112217073211446
1772527277451870000,7.922869873046875,1.733122015967965,0.7614321157753468,0.3077695161530748
1772527277461852000,7.932851806640625,2.241067446452379,0.45774581381529567,-0.11516907857730985
1772527277471835000,7.9428349609375,2.5590134521722794,0.12009323710650205,-0.7468594005435705
1772527277481817000,7.952817138671875,2.852560345172882,-0.28538082994073627,-1.2921741922184824
1772527277491798800,7.962798828125,2.9558599761277438,-0.6985828608915209,-1.4332533725999295
1772527277501781000,7.972781005859375,2.8516192649304863,-0.8589625156790017,-1.3423935365013777
1772527277511763000,7.982762939453125,2.6203251222252844,-0.47701837730109686,-1.1419872840128837
1772527277521745000,7.992744873046875,2.244346029731631,0.18607523705810308,-0.6800100431729108
1772527277531728100,8.00272802734375,2.004777395156026,0.656334787748754,-0.22483269160613417
1772527277541709800,8.012709716796875,1.9403864637881516,0.8413868192389607,-0.004822625250322744
1772527277551692000,8.022692138671875,2.0457535486668346,0.9877209975391625,0.013995198471611365
1772527277561674000,8.032674072265625,2.2576076623648405,1.1505752257466315,-0.06465800307253375
1772527277571656000,8.042656005859374,2.259388116040826,1.2554872603341936,-0.3394500911174342
1772527277581638000,8.052637939453126,2.2402333337157962,1.5813228502601384,-0.7529233767576515
1772527277591620900,8.062620849609376,2.5790210519343613,1.6559823699250817,-0.8260355939153582
1772527277601603000,8.07260302734375,3.0334143404513596,1.3952657333806155,-0.7773357873499394
1772527277611585000,8.0825849609375,3.5530221516788005,1.2771622087866068,-0.9449990232743323
1772527277621567000,8.09256689453125,4.079893231907486,0.8825853833287954,-1.2473352257996797
1772527277631549000,8.102548828125,4.422479757887125,0.28170214142799377,-1.4418842766925692
1772527277641532000,8.112531982421874,4.268377575933933,-0.2544289345771074,-1.516383198968321
1772527277651514000,8.12251416015625,3.626701720395684,-0.3925429815426469,-1.5014510027743875
1772527277661495800,8.132495849609375,2.6598803030222653,-0.13760229805111884,-1.4226476613029837
