time,seconds_elapsed,z,y,x
1772527269605861400,0.076861328125,-0.39376822113990784,-0.6476763486862183,-0.4103013575077057
1772527269615843600,0.086843505859375,-0.4564862847328186,-0.8472349643707275,-0.49248751997947693
1772527269625825300,0.0968251953125,-0.5761248469352722,-0.7268214225769043,-0.545805037021637
1772527269635808500,0.10680859375,-0.6022519469261169,-0.4880213439464569,-0.548612654209137
1772527269645790500,0.11679052734375,-0.6201491951942444,-0.4852151870727539,-0.5375543832778931
1772527269655772400,0.1267724609375,-0.6403260827064514,-0.5895448923110962,-0.5139617919921875
1772527269665754600,0.136754638671875,-0.6174140572547913,-0.6510857343673706,-0.4666643440723419
1772527269675737300,0.1467373046875,-0.5787007808685303,-0.7081719636917114,-0.4374465048313141
1772527269685719600,0.156719482421875,-0.4636673927307129,0.13575178384780884,-0.6157571077346802
1772527269695701200,0.166701171875,-0.3509659767150879,-0.028841542080044746,-0.7550879716873169
1772527269705683500,0.176683349609375,-0.2231111079454422,0.10781963169574738,-0.8072496652603149
1772527269715665400,0.18666552734375,-0.1689164936542511,0.18594056367874146,-0.9160388112068176
1772527269725648400,0.1966484375,-0.12139318883419037,0.16615673899650574,-1.059459924697876
1772527269735630600,0.206630615234375,-0.019357949495315552,0.11296188831329346,-1.1308478116989136
1772527269745612300,0.2166123046875,0.06580594927072525,-0.06036035344004631,-1.1365476846694946
1772527269755594500,0.226594482421875,0.19224855303764343,-0.39005693793296814,-1.148221492767334
1772527269765576400,0.236576416015625,0.25295692682266235,-0.7621220946311951,-1.221816897392273
1772527269775559400,0.246559326171875,0.3591196537017822,-0.8980091214179993,-1.3724615573883057
1772527269785541600,0.256541748046875,0.7477667331695557,-0.392564594745636,-1.776000738143921
1772527269795523300,0.2665234375,0.8938407301902771,-0.03760385140776634,-2.0801260471343994
1772527269805505500,0.276505615234375,0.6903001666069031,-0.2556632161140442,-2.1104207038879395
1772527269815488300,0.28648828125,0.47570639848709106,-0.20134106278419495,-1.8645679950714111
1772527269825470500,0.296470458984375,0.19693176448345184,0.032910849899053574,-1.4659106731414795
1772527269835452700,0.30645263671875,-0.047791484743356705,0.12547366321086884,-1.1183083057403564
1772527269845434400,0.316434326171875,0.021609961986541748,-0.16949298977851868,-0.7460986971855164
1772527269855416600,0.32641650390625,0.13552619516849518,-0.511189877986908,-0.34549739956855774
1772527269865399300,0.3363994140625,0.14369677007198334,-0.6735069155693054,0.0071021984331309795
1772527269875381500,0.346381591796875,0.16750475764274597,-0.8448976874351501,0.3381709158420563
1772527269885363500,0.356363525390625,0.21087221801280975,-1.1183491945266724,0.6787436604499817
1772527269895345400,0.366345458984375,0.24804487824440002,-1.410780429840088,0.8977904915809631
1772527269905327600,0.37632763671875,0.21671946346759796,-1.8126857280731201,0.9215839505195618
1772527269915310300,0.386310302734375,0.23153597116470337,-1.8617568016052246,0.7228514552116394
1772527269925292500,0.39629248046875,0.3236704170703888,-1.5190937519073486,0.36149853467941284
1772527269935274200,0.406274169921875,0.5844391584396362,-0.9344155788421631,0.08313141763210297
1772527269945256400,0.41625634765625,0.9659124612808228,-0.5004904866218567,0.047659970819950104
1772527269955239400,0.426239501953125,1.2185097932815552,-0.31218191981315613,0.17811676859855652
1772527269965221400,0.436221435546875,1.3059355020523071,-0.17974771559238434,0.32972148060798645
1772527269975203600,0.44620361328125,1.2877874374389648,-0.0020026888232678175,0.45991945266723633
1772527269985185300,0.456185302734375,1.230987310409546,0.11631490290164948,0.6646441221237183
1772527269995167500,0.46616748046875,1.3699510097503662,0.28601232171058655,1.0403552055358887
1772527270005150500,0.476150390625,1.678615927696228,0.7019924521446228,1.6067341566085815
1772527270015132400,0.48613232421875,1.7289226055145264,0.828084409236908,2.0644092559814453
1772527270025114600,0.496114501953125,1.3287274837493896,0.2753541171550751,2.0241076946258545
1772527270035096300,0.506096435546875,0.9336866736412048,-0.32287076115608215,1.5602831840515137
1772527270045078500,0.51607861328125,0.7261945009231567,-0.2635595202445984,0.9098846912384033
1772527270055061500,0.5260615234375,0.5740254521369934,0.1453201323747635,0.16965743899345398
1772527270065043700,0.536043701171875,0.4585428237915039,0.4307457506656647,-0.6553091406822205
1772527270075026000,0.54602587890625,0.39561596512794495,0.5532126426696777,-1.4211794137954712
1772527270085007600,0.556007568359375,0.3265623450279236,0.6033149361610413,-1.94392728805542
1772527270094989800,0.56598974609375,0.1316649615764618,0.6002821326255798,-2.212355375289917
1772527270104972500,0.57597265625,-0.20861485600471497,0.6470954418182373,-2.307748556137085
1772527270114954800,0.585954833984375,-0.579345703125,0.8985601663589478,-2.20627760887146
1772527270124936700,0.595936767578125,-0.937555193901062,1.2347378730773926,-2.002502202987671
1772527270134918700,0.605918701171875,-1.2803401947021484,1.609560251235962,-1.806856632232666
1772527270144901600,0.615901611328125,-1.572516918182373,1.9065526723861694,-1.6461399793624878
1772527270154883600,0.625883544921875,-1.7660186290740967,2.027879238128662,-1.4923219680786133
1772527270164865800,0.63586572265625,-1.8750451803207397,1.9313150644302368,-1.353238821029663
1772527270174847500,0.645847412109375,-1.9116566181182861,1.6205308437347412,-1.222848892211914
1772527270184829700,0.65582958984375,-1.8764549493789673,1.27629816532135,-1.0253806114196777
1772527270194812700,0.665812744140625,-1.7006802558898926,0.938530683517456,-0.7613781690597534
1772527270204794600,0.675794677734375,-1.4486334323883057,0.5366479754447937,-0.5104135870933533
1772527270214776800,0.68577685546875,-1.2196320295333862,0.17894388735294342,-0.22535178065299988
1772527270224758500,0.695758544921875,-1.0304425954818726,-0.042655088007450104,0.11900319159030914
1772527270234740700,0.70574072265625,-0.8706057071685791,-0.18175753951072693,0.4726271629333496
1772527270244723700,0.7157236328125,-0.7146959900856018,-0.2818915843963623,0.8134667873382568
1772527270254705700,0.72570556640625,-0.586590588092804,-0.35638663172721863,1.1157240867614746
1772527270264687900,0.73568798828125,-0.48977217078208923,-0.42735323309898376,1.3331326246261597
1772527270274669600,0.745669677734375,-0.4172925353050232,-0.4572879672050476,1.4180008172988892
1772527270284652800,0.75565283203125,-0.3555538058280945,-0.36739668250083923,1.3547265529632568
1772527270294634500,0.765634521484375,-0.2942115366458893,-0.2367904782295227,1.1473679542541504
1772527270304616700,0.77561669921875,-0.20601829886436462,-0.09867627918720245,0.8409017324447632
1772527270314599000,0.785598876953125,-0.08767828345298767,0.015136711299419403,0.5036302208900452
1772527270324580600,0.79558056640625,0.03622821345925331,0.07435396313667297,0.1931551992893219
1772527270334563800,0.805563720703125,0.18176744878292084,0.08790507167577744,-0.01914440281689167
1772527270344545500,0.815545654296875,0.3158853352069855,-0.015797089785337448,-0.1553986519575119
1772527270354527700,0.82552783203125,0.39017149806022644,-0.3071737289428711,-0.17316892743110657
1772527270364509700,0.835509765625,0.40914225578308105,-0.776939332485199,-0.08227284997701645
1772527270374491600,0.84549169921875,0.3613712787628174,-1.5040597915649414,0.03428623825311661
1772527270384475000,0.855474853515625,0.19543105363845825,-2.340693235397339,0.05456195026636124
1772527270394456600,0.86545654296875,-0.002185180550441146,-3.1216771602630615,-0.12339038401842117
1772527270404438800,0.875438720703125,-0.17289060354232788,-3.615323066711426,-0.5742190480232239
1772527270414420500,0.88542041015625,-0.3168516159057617,-3.408431053161621,-1.1751441955566406
1772527270424402700,0.895402587890625,-0.2945934534072876,-2.513169288635254,-1.836880087852478
1772527270434385700,0.9053857421875,-0.1277332603931427,-1.1006872653961182,-2.4217891693115234
1772527270444367600,0.91536767578125,-0.3009987771511078,1.3439433574676514,-2.7052509784698486
1772527270454349800,0.925349853515625,-0.755103349685669,3.9088611602783203,-2.3331692218780518
1772527270464331500,0.93533154296875,-1.073824167251587,4.922474384307861,-1.2601450681686401
1772527270474314800,0.945314697265625,-1.1002531051635742,3.8244476318359375,0.06317619234323502
1772527270484296700,0.955296630859375,-0.9523916244506836,1.4067108631134033,1.2851916551589966
1772527270494278700,0.965278564453125,-0.8562884330749512,-0.9695871472358704,2.27132248878479
1772527270504260900,0.9752607421875,-0.7581075429916382,-1.917791724205017,3.2522318363189697
1772527270514242600,0.98524267578125,-0.6630489826202393,-1.6991924047470093,4.179660797119141
1772527270524225800,0.995225830078125,-0.6481645703315735,-1.3128386735916138,4.322665214538574
1772527270534207500,1.00520751953125,-0.7862780690193176,-1.0937321186065674,3.2780299186706543
1772527270544189700,1.015189697265625,-0.9534140825271606,-0.7978953719139099,1.4311946630477905
1772527270554172000,1.025171875,-0.8399620056152344,-0.5325397253036499,-0.5620093941688538
1772527270564153600,1.035153564453125,-0.4122801423072815,-0.2859984040260315,-2.1224124431610107
1772527270574136800,1.04513671875,0.08698351681232452,0.023348454385995865,-2.8845620155334473
1772527270584118500,1.055118408203125,0.4854874908924103,0.16984735429286957,-2.917017936706543
1772527270594100700,1.065100830078125,0.7085497975349426,0.10764040797948837,-2.36188006401062
1772527270604082700,1.075082763671875,0.8049778342247009,-0.004371346905827522,-1.4098116159439087
1772527270614065700,1.085065673828125,0.8041548132896423,0.03539114445447922,-0.40122875571250916
1772527270624047900,1.0950478515625,0.6364164352416992,0.25276073813438416,0.30427029728889465
1772527270634029600,1.105029541015625,0.33027559518814087,0.5760557055473328,0.5862922668457031
1772527270644011800,1.11501171875,-0.04209159314632416,0.6839882731437683,0.5262427926063538
1772527270653993700,1.12499365234375,-0.4315539002418518,0.5314452052116394,0.27496346831321716
1772527270663976700,1.134976806640625,-0.7327041625976562,0.37538668513298035,0.07124228030443192
1772527270673958700,1.144958740234375,-0.8685026168823242,0.27402207255363464,0.018135765567421913
1772527270683940600,1.154940673828125,-0.8400864005088806,0.11997739970684052,0.11065930873155594
1772527270693922800,1.1649228515625,-0.7244179844856262,-0.1283021867275238,0.2509422302246094
1772527270703904500,1.174904541015625,-0.55362868309021,-0.3489762246608734,0.36026501655578613
1772527270713887700,1.1848876953125,-0.3693214952945709,-0.4125472903251648,0.3915695250034332
1772527270723869700,1.19486962890625,-0.1821822226047516,-0.33932048082351685,0.3192353844642639
1772527270733851600,1.2048515625,-0.010501042939722538,-0.1808115839958191,0.1743697077035904
1772527270743833900,1.214833740234375,0.11275031417608261,-0.02754293382167816,0.003306357655674219
1772527270753816600,1.224816650390625,0.13063359260559082,0.04018878936767578,-0.1524159461259842
1772527270763798800,1.234798828125,0.04427154362201691,-0.04887557402253151,-0.2683910131454468
1772527270773780500,1.244780517578125,-0.07396651059389114,-0.22301775217056274,-0.33784112334251404
1772527270783762700,1.2547626953125,-0.18830719590187073,-0.452531635761261,-0.39665064215660095
1772527270793745000,1.264744873046875,-0.2681601643562317,-0.708305299282074,-0.46821489930152893
1772527270803727600,1.2747275390625,-0.27508649230003357,-0.866779625415802,-0.5460066199302673
1772527270813709800,1.284709716796875,-0.19581805169582367,-0.8386309742927551,-0.5936340093612671
1772527270823691500,1.29469140625,-0.01377847045660019,-0.5725811719894409,-0.5436925292015076
1772527270833673700,1.304673828125,0.2679815888404846,-0.11818244308233261,-0.39504316449165344
1772527270843655700,1.31465576171875,0.5737199187278748,0.35985684394836426,-0.21641510725021362
1772527270853638700,1.324638671875,0.8135809302330017,0.6775981783866882,-0.08234403282403946
1772527270863620900,1.334620849609375,0.943799614906311,0.781923234462738,-0.02272704429924488
1772527270873602600,1.3446025390625,0.9878935217857361,0.6175671815872192,-0.054552625864744186
1772527270883584800,1.354584716796875,0.9740504026412964,0.26646748185157776,-0.14109738171100616
1772527270893566700,1.364566650390625,0.9743800759315491,-0.011591183952987194,-0.1570786088705063
1772527270903549700,1.3745498046875,1.0005717277526855,-0.0009555842261761427,-0.0776815190911293
1772527270913532000,1.384531982421875,1.0093252658843994,0.23323409259319305,-0.08997663855552673
1772527270923513600,1.394513671875,1.0008593797683716,0.4850892424583435,-0.2914873957633972
1772527270933495800,1.404495849609375,1.0028924942016602,0.6242402195930481,-0.531792163848877
1772527270943478500,1.414478515625,0.9164785742759705,0.6232281923294067,-0.6984293460845947
1772527270953460700,1.424460693359375,0.6391903162002563,0.5651673674583435,-0.749637246131897
1772527270963442700,1.434442626953125,0.3202085793018341,0.6191746592521667,-0.6751020550727844
1772527270973424600,1.444424560546875,0.09594564139842987,0.9196818470954895,-0.45867010951042175
1772527270983406800,1.45440673828125,0.032065995037555695,1.391711950302124,-0.030706241726875305
1772527270993389600,1.4643896484375,0.12363439053297043,1.8674017190933228,0.5952394604682922
1772527271003371800,1.474371826171875,0.25067970156669617,2.1068050861358643,1.3450684547424316
1772527271013353500,1.484353515625,0.30067625641822815,2.311915874481201,2.256721258163452
1772527271023335700,1.494335693359375,0.18157917261123657,2.396918773651123,3.107492208480835
1772527271033318000,1.50431787109375,0.016641151160001755,2.263345956802368,3.6328508853912354
1772527271043300600,1.514300537109375,0.04838017374277115,2.1742563247680664,3.8406567573547363
1772527271053282800,1.52428271484375,0.23538945615291595,2.35048246383667,3.775205373764038
1772527271063264800,1.5342646484375,0.41619306802749634,2.632768154144287,3.4105727672576904
1772527271073246700,1.544246826171875,0.43035343289375305,2.8140132427215576,2.6780407428741455
1772527271083229700,1.554229736328125,0.21007457375526428,2.7594382762908936,1.6182619333267212
1772527271093212000,1.5642119140625,-0.1562809944152832,2.355741262435913,0.3564635217189789
1772527271103193900,1.57419384765625,-0.43838006258010864,1.6884537935256958,-0.9515389800071716
1772527271113175800,1.58417578125,-0.5301274657249451,0.866929292678833,-2.2039599418640137
1772527271123157800,1.59415771484375,-0.5374093651771545,-0.018214883282780647,-3.373774528503418
1772527271133140700,1.604140625,-0.5225147008895874,-0.8514487147331238,-4.325866222381592
1772527271143123000,1.614123046875,-0.40959078073501587,-1.466744065284729,-4.9312052726745605
1772527271153105000,1.62410498046875,-0.16347470879554749,-1.8031030893325806,-5.137397289276123
1772527271163086800,1.6340869140625,0.08422856032848358,-1.9254343509674072,-4.9342780113220215
1772527271173069800,1.64406982421875,0.2390449345111847,-1.7800273895263672,-4.236695289611816
1772527271183051800,1.6540517578125,0.30237704515457153,-1.517722249031067,-3.1187593936920166
1772527271193034000,1.664033935546875,0.3216197192668915,-1.3247979879379272,-1.8025649785995483
1772527271203015700,1.674015625,0.3499882221221924,-1.2030329704284668,-0.4997897744178772
1772527271212998000,1.683997802734375,0.38270971179008484,-1.2074120044708252,0.6546556353569031
1772527271222980900,1.69398095703125,0.39761486649513245,-1.284052848815918,1.6118683815002441
1772527271232962800,1.703962890625,0.37979021668434143,-1.45976722240448,2.322031259536743
1772527271242944800,1.71394482421875,0.27275991439819336,-1.804354190826416,2.7098636627197266
1772527271252926700,1.7239267578125,0.09967543929815292,-2.27458119392395,2.7389423847198486
1772527271262909000,1.733908935546875,-0.0564931258559227,-2.766108751296997,2.4599008560180664
1772527271272891600,1.7438916015625,-0.15889553725719452,-3.058425188064575,1.9648908376693726
1772527271282873900,1.753873779296875,-0.21038936078548431,-3.0095627307891846,1.36203932762146
1772527271292855800,1.763855712890625,-0.26734116673469543,-2.581251859664917,0.7145569920539856
1772527271302837800,1.773837646484375,-0.3889075219631195,-1.8139604330062866,0.0861537978053093
1772527271312819700,1.78381982421875,-0.5395246744155884,-0.8892827033996582,-0.451358824968338
1772527271322802700,1.793802734375,-0.7205032706260681,-0.04407234489917755,-0.8510494828224182
1772527271332785000,1.803784912109375,-0.8810375332832336,0.5784591436386108,-1.047916293144226
1772527271342766800,1.813766845703125,-0.9618450403213501,0.9536657929420471,-1.0068343877792358
1772527271352748800,1.823748779296875,-0.8927531838417053,1.1423097848892212,-0.7482955455780029
1772527271362732000,1.83373193359375,-0.6807863712310791,1.1960958242416382,-0.29913952946662903
1772527271372713700,1.843713623046875,-0.41644638776779175,1.1549993753433228,0.2447374016046524
1772527271382696000,1.853696044921875,-0.2401144802570343,0.9628944396972656,0.6829978227615356
1772527271392678000,1.863677978515625,-0.11222786456346512,0.6437970995903015,0.8594252467155457
1772527271402659800,1.873659912109375,-0.02498164400458336,0.3748473823070526,0.8011872172355652
1772527271412642800,1.883642822265625,0.04340705648064613,0.3439862132072449,0.70554119348526
1772527271422624800,1.893624755859375,0.1507239192724228,0.48376035690307617,0.6275811195373535
1772527271432607000,1.90360693359375,0.2606848180294037,0.6495503783226013,0.43349602818489075
1772527271442589000,1.9135888671875,0.2940744459629059,0.5755943655967712,-0.043966423720121384
1772527271452571000,1.92357080078125,0.22026915848255157,0.25880196690559387,-0.7466264367103577
1772527271462553900,1.933553955078125,0.07966944575309753,-0.1469508856534958,-1.4318181276321411
1772527271472535800,1.943535888671875,0.06449609994888306,-0.21008199453353882,-1.6092147827148438
1772527271482517800,1.953517822265625,0.26599565148353577,0.3440733551979065,-0.8758593201637268
1772527271492499700,1.963499755859375,0.6770113706588745,1.1134421825408936,0.5529516339302063
1772527271502483000,1.97348291015625,1.1164041757583618,1.5411325693130493,2.0141310691833496
1772527271512464600,1.983464599609375,1.3435865640640259,1.3545325994491577,2.982123851776123
1772527271522446800,1.99344677734375,1.382952332496643,0.6641882658004761,3.4854085445404053
1772527271532428800,2.0034287109375,1.348235011100769,-0.20736083388328552,3.68497896194458
1772527271542410800,2.01341064453125,1.2818623781204224,-1.040816068649292,3.6480870246887207
1772527271552394000,2.02339404296875,1.3066285848617554,-1.7016526460647583,3.3738927841186523
1772527271562375700,2.033375732421875,1.5497355461120605,-1.8450289964675903,2.9005415439605713
1772527271572358000,2.04335791015625,1.9075865745544434,-1.398128867149353,2.1951277256011963
1772527271582339800,2.05333984375,2.028273105621338,-0.8651342391967773,1.2087085247039795
1772527271592321800,2.06332177734375,1.674475908279419,-0.7086734771728516,0.07518989592790604
1772527271602305000,2.073304931640625,1.0222821235656738,-0.8801243305206299,-0.8950694799423218
1772527271612286700,2.08328662109375,0.4948085844516754,-1.0650215148925781,-1.531832218170166
1772527271622269000,2.09326904296875,0.26707929372787476,-1.0630987882614136,-1.8197563886642456
1772527271632251000,2.1032509765625,0.2853769063949585,-0.8169832229614258,-1.730360746383667
1772527271642233900,2.11323388671875,0.53667813539505,-0.4973335862159729,-1.3496499061584473
1772527271652215800,2.1232158203125,0.8515528440475464,-0.1875440627336502,-0.8342902660369873
1772527271662197800,2.13319775390625,1.0740294456481934,0.0679822564125061,-0.3155216872692108
1772527271672180000,2.143179931640625,1.207795262336731,0.2777087986469269,0.1810688078403473
1772527271682162000,2.153161865234375,1.3137978315353394,0.4863187372684479,0.6409858465194702
1772527271692145000,2.163144775390625,1.3707278966903687,0.6823822855949402,1.020104169845581
1772527271702126800,2.173126953125,1.3410166501998901,0.7911362051963806,1.2498422861099243
1772527271712108800,2.18310888671875,1.2187085151672363,0.7674691677093506,1.3240998983383179
1772527271722090800,2.1930908203125,1.0161021947860718,0.6408675312995911,1.2562286853790283
1772527271732072700,2.20307275390625,0.7900324463844299,0.4956616461277008,1.099137544631958
1772527271742056000,2.213055908203125,0.574545681476593,0.38185253739356995,0.8878892660140991
1772527271752038000,2.223037841796875,0.37066948413848877,0.3450033366680145,0.6412627696990967
1772527271762019800,2.233019775390625,0.19573895633220673,0.4226827025413513,0.3888150751590729
1772527271772001800,2.243001708984375,0.045268356800079346,0.6041721105575562,0.16725927591323853
1772527271781983700,2.252983642578125,-0.08817412704229355,0.8529358506202698,-0.01152084767818451
1772527271791967000,2.262967041015625,-0.2217889130115509,1.1034225225448608,-0.13204196095466614
1772527271801948700,2.27294873046875,-0.3409062325954437,1.3033268451690674,-0.1802409142255783
1772527271811931000,2.282930908203125,-0.4380287826061249,1.447482943534851,-0.16074471175670624
1772527271821912800,2.292912841796875,-0.5063214302062988,1.4933065176010132,-0.11999864876270294
1772527271831895800,2.302895751953125,-0.5443289875984192,1.3908990621566772,-0.055482473224401474
1772527271841878000,2.3128779296875,-0.5472124218940735,1.1947942972183228,0.05838257819414139
1772527271851859700,2.322859619140625,-0.47083812952041626,0.9683600664138794,0.2082197517156601
1772527271861842000,2.332842041015625,-0.32441407442092896,0.733269214630127,0.3113440275192261
1772527271871824000,2.342823974609375,-0.12554018199443817,0.4475403428077698,0.28653067350387573
1772527271881806800,2.352806884765625,0.09835070371627808,0.046684782952070236,0.0833490639925003
1772527271891788800,2.362788818359375,0.3015328347682953,-0.4624939560890198,-0.28971046209335327
1772527271901770800,2.372770751953125,0.495379775762558,-0.9520857334136963,-0.7030873894691467
1772527271911753000,2.3827529296875,0.6834477186203003,-1.3977993726730347,-1.1257092952728271
1772527271921735000,2.39273486328125,0.8381906747817993,-1.8235338926315308,-1.569710373878479
1772527271931718000,2.4027177734375,0.8527051210403442,-2.3216118812561035,-2.032221555709839
1772527271941699800,2.412699951171875,0.711434006690979,-2.729245662689209,-2.339878797531128
1772527271951681800,2.422681884765625,0.490003377199173,-2.8166065216064453,-2.390035390853882
1772527271961663700,2.432663818359375,0.22422389686107635,-2.55502986907959,-2.174499273300171
1772527271971646700,2.442646728515625,-0.057130906730890274,-2.0954554080963135,-1.692338466644287
1772527271981629000,2.45262890625,-0.2992956042289734,-1.5472171306610107,-1.00575852394104
1772527271991611000,2.46261083984375,-0.4700625240802765,-0.9346425533294678,-0.2242175191640854
1772527272001592800,2.4725927734375,-0.5205854177474976,-0.5183912515640259,0.42771658301353455
1772527272011574800,2.48257470703125,-0.5401039123535156,-0.6525496244430542,0.6222876906394958
1772527272021557800,2.492557861328125,-0.6401655673980713,-1.2503587007522583,0.21401762962341309
1772527272031540000,2.5025400390625,-0.7298630475997925,-1.799448847770691,-0.5972977876663208
1772527272041521700,2.512521728515625,-0.6356006860733032,-1.9657760858535767,-1.4429435729980469
1772527272051503900,2.52250390625,-0.40352827310562134,-1.8074226379394531,-1.9291937351226807
1772527272061485600,2.532485595703125,-0.1510896235704422,-1.5339778661727905,-1.9225398302078247
1772527272071468300,2.54246826171875,0.09796731173992157,-1.3996288776397705,-1.4824297428131104
1772527272081450500,2.552450439453125,0.2855462431907654,-1.4783340692520142,-0.8217393755912781
1772527272091432400,2.562432373046875,0.37512677907943726,-1.6873961687088013,-0.17637187242507935
1772527272101414400,2.572414306640625,0.3790203034877777,-1.9106730222702026,0.2751670777797699
1772527272111396600,2.582396728515625,0.2801332473754883,-1.9479941129684448,0.34898412227630615
1772527272121379300,2.59237939453125,0.06005014851689339,-1.761121392250061,-0.05847577750682831
1772527272131361500,2.602361572265625,-0.17567025125026703,-1.448208212852478,-0.8038345575332642
1772527272141343200,2.61234326171875,-0.3354298174381256,-1.0583477020263672,-1.676632285118103
1772527272151325400,2.622325439453125,-0.4300861358642578,-0.5758941769599915,-2.4460740089416504
1772527272161308400,2.632308349609375,-0.42448630928993225,-0.0394400879740715,-2.8230152130126953
1772527272171290400,2.642290283203125,-0.3878222107887268,0.44526901841163635,-2.733548641204834
1772527272181272600,2.6522724609375,-0.3562310039997101,0.7740945816040039,-2.2639856338500977
1772527272191254300,2.662254150390625,-0.3213746249675751,0.8855092525482178,-1.5788241624832153
1772527272201236500,2.672236572265625,-0.29842352867126465,0.8176604509353638,-0.8290036916732788
1772527272211219500,2.682219482421875,-0.27912402153015137,0.616650402545929,-0.14940577745437622
1772527272221201400,2.692201416015625,-0.2570895552635193,0.3791230320930481,0.3797057271003723
1772527272231183600,2.70218359375,-0.27294567227363586,0.15606366097927094,0.7061740159988403
1772527272241165300,2.712165283203125,-0.32903769612312317,-0.05122401565313339,0.7986539006233215
1772527272251147500,2.7221474609375,-0.40940728783607483,-0.22054164111614227,0.6773409843444824
1772527272261130200,2.732130126953125,-0.4683283865451813,-0.3214448094367981,0.38866469264030457
1772527272271112400,2.742112548828125,-0.4838188588619232,-0.3083334267139435,-0.0030735782347619534
1772527272281094700,2.7520947265625,-0.45510920882225037,-0.1953674703836441,-0.396180123090744
1772527272291076400,2.762076416015625,-0.385343074798584,-0.03463754802942276,-0.7060216665267944
1772527272301058600,2.77205859375,-0.29916104674339294,0.19451415538787842,-0.8559446334838867
1772527272311041300,2.782041259765625,-0.19722934067249298,0.4014137089252472,-0.8943088054656982
1772527272321023500,2.7920234375,-0.10728853195905685,0.516309916973114,-0.8525352478027344
1772527272331005400,2.80200537109375,-0.08796096593141556,0.49052223563194275,-0.7797253131866455
1772527272340987400,2.8119873046875,-0.12579064071178436,0.27809491753578186,-0.7162611484527588
1772527272350970600,2.821970703125,-0.19920991361141205,-0.18704788386821747,-0.6475442051887512
1772527272360952300,2.831952392578125,-0.28439244627952576,-0.7234690189361572,-0.4739668071269989
1772527272370934500,2.8419345703125,-0.3516513407230377,-1.1434859037399292,-0.1775893121957779
1772527272380916500,2.85191650390625,-0.3657975196838379,-1.3161593675613403,0.15955328941345215
1772527272390898400,2.8618984375,-0.3417607843875885,-1.1508064270019531,0.3674373924732208
1772527272400881400,2.87188134765625,-0.23382394015789032,-0.8732216954231262,0.3237176239490509
1772527272410863400,2.88186328125,-0.07070896774530411,-0.8116877675056458,0.043987058103084564
1772527272420845600,2.891845458984375,0.05144890397787094,-1.0120630264282227,-0.2511860132217407
1772527272430827300,2.9018271484375,0.08317657560110092,-1.3422434329986572,-0.3078360855579376
1772527272440809500,2.9118095703125,0.060022786259651184,-1.6006691455841064,0.06700730323791504
1772527272450792400,2.92179248046875,0.009502368047833443,-1.572635531425476,0.8227577805519104
1772527272460774400,2.9317744140625,-0.11723720282316208,-1.262277364730835,1.636324167251587
1772527272470756600,2.941756591796875,-0.3252710998058319,-0.7770747542381287,2.2049384117126465
1772527272480738300,2.95173828125,-0.5063374042510986,-0.29675254225730896,2.406583786010742
1772527272490720500,2.961720458984375,-0.6399807929992676,0.07926403731107712,2.3191287517547607
1772527272500703200,2.971703125,-0.818597674369812,0.28112125396728516,1.951169729232788
1772527272510685400,2.981685546875,-1.018845796585083,0.32185742259025574,1.281966209411621
1772527272520667600,2.991667724609375,-1.157217025756836,0.14034485816955566,0.4097271263599396
1772527272530649300,3.0016494140625,-1.2251286506652832,-0.057307757437229156,-0.42898696660995483
1772527272540632600,3.011632568359375,-1.2698748111724854,0.12792281806468964,-0.9970320463180542
1772527272550614300,3.0216142578125,-1.2491804361343384,0.6209805011749268,-1.293616771697998
1772527272560596500,3.031596435546875,-1.1418555974960327,1.137198805809021,-1.4238213300704956
1772527272570578400,3.041578369140625,-0.9783154726028442,1.5207823514938354,-1.4124759435653687
1772527272580560400,3.051560302734375,-0.7075508236885071,1.704610824584961,-1.229174256324768
1772527272590543600,3.061543701171875,-0.3154436945915222,1.7499306201934814,-0.8738391399383545
1772527272600525300,3.071525390625,0.13567262887954712,1.7311255931854248,-0.4322095215320587
1772527272610507500,3.081507568359375,0.4979385733604431,1.7163681983947754,0.0012158788740634918
1772527272620489500,3.091489501953125,0.7019087672233582,1.7291274070739746,0.3815469741821289
1772527272630471400,3.101471435546875,0.7875510454177856,1.802640438079834,0.7159439325332642
1772527272640454700,3.11145458984375,0.8319496512413025,1.9000860452651978,0.9849836826324463
1772527272650436400,3.121436279296875,0.8525029420852661,2.055384635925293,1.2149078845977783
1772527272660418600,3.13141845703125,0.8400294780731201,2.2844786643981934,1.4171013832092285
1772527272670400300,3.141400146484375,0.8055760860443115,2.4615554809570312,1.5698528289794922
1772527272680382500,3.151382568359375,0.735827624797821,2.519392490386963,1.629799485206604
1772527272690365400,3.161365478515625,0.6201916337013245,2.4547617435455322,1.545650601387024
1772527272700347400,3.171347412109375,0.46965667605400085,2.2690749168395996,1.3297088146209717
1772527272710329600,3.18132958984375,0.27693507075309753,1.981370210647583,1.030318260192871
1772527272720311300,3.191311279296875,0.04457826167345047,1.5622600317001343,0.6955254673957825
1772527272730293500,3.20129345703125,-0.14941789209842682,1.1020934581756592,0.37858688831329346
1772527272740276200,3.211276123046875,-0.21243761479854584,0.7320918440818787,0.11449373513460159
1772527272750258400,3.221258544921875,-0.1551545113325119,0.525627613067627,-0.05096966773271561
1772527272760240600,3.23124072265625,-0.008094485849142075,0.4390437602996826,-0.1689373254776001
1772527272770222300,3.241222412109375,0.1807001829147339,0.42224815487861633,-0.27509915828704834
1772527272780205600,3.25120556640625,0.3424544632434845,0.502412736415863,-0.34042808413505554
1772527272790187300,3.261187255859375,0.4370088279247284,0.6977332830429077,-0.3190672993659973
1772527272800169500,3.27116943359375,0.470991849899292,0.9681570529937744,-0.2416747659444809
1772527272810151400,3.2811513671875,0.4581083059310913,1.207984209060669,-0.2019166797399521
1772527272820133400,3.29113330078125,0.430635929107666,1.3214303255081177,-0.2315443456172943
1772527272830116600,3.30111669921875,0.3862822949886322,1.227120041847229,-0.37034615874290466
1772527272840098300,3.311098388671875,0.33336952328681946,0.9808778762817383,-0.6165386438369751
1772527272850080500,3.32108056640625,0.26407182216644287,0.6639641523361206,-1.0342352390289307
1772527272860062500,3.3310625,0.21398574113845825,0.457756370306015,-1.602962851524353
1772527272870044400,3.34104443359375,0.22934256494045258,0.40028297901153564,-2.2363460063934326
1772527272880027600,3.351027587890625,0.2760823667049408,0.20315365493297577,-2.8714520931243896
1772527272890009300,3.36100927734375,0.1313106119632721,-0.2516518235206604,-3.270141839981079
1772527272899991600,3.370991455078125,-0.29224729537963867,-0.9679795503616333,-3.166234016418457
1772527272909973500,3.380973388671875,-0.8399867415428162,-1.6729940176010132,-2.2696163654327393
1772527272919955500,3.39095556640625,-1.1952711343765259,-1.9639041423797607,-0.5331907272338867
1772527272929938400,3.4009384765625,-1.301592230796814,-1.6317325830459595,1.587371826171875
1772527272939920400,3.41092041015625,-1.3040090799331665,-1.2593244314193726,3.3852620124816895
1772527272949902600,3.420902587890625,-1.327781081199646,-1.1656461954116821,4.403297424316406
1772527272959884300,3.43088427734375,-1.3870246410369873,-1.588496208190918,4.402211666107178
1772527272969866500,3.440866455078125,-1.515339732170105,-2.2047204971313477,3.5100135803222656
1772527272979849200,3.45084912109375,-1.5604270696640015,-2.550295829772949,2.142707109451294
1772527272989831400,3.46083154296875,-1.4260962009429932,-2.1430039405822754,0.9572398066520691
1772527272999813600,3.470813720703125,-1.109434723854065,-1.0471843481063843,0.32740622758865356
1772527273009795300,3.48079541015625,-0.6709235906600952,0.19816702604293823,0.030041851103305817
1772527273019777500,3.490777587890625,-0.23840034008026123,1.4315248727798462,-0.149493008852005
1772527273029760300,3.50076025390625,0.08043348789215088,2.4901087284088135,-0.3175767660140991
1772527273039742500,3.510742431640625,0.1689489781856537,3.2338287830352783,-0.5318781733512878
1772527273049724400,3.520724365234375,0.0850449949502945,3.539299964904785,-0.7862123250961304
1772527273059707000,3.530706787109375,-0.08721145987510681,3.4494802951812744,-1.0247820615768433
1772527273069689000,3.540689208984375,-0.2744598686695099,3.1291537284851074,-1.200512409210205
1772527273079671800,3.550671875,-0.40587541460990906,2.7123312950134277,-1.3376550674438477
1772527273089654000,3.560654052734375,-0.40894442796707153,2.247549057006836,-1.4543613195419312
1772527273099635700,3.5706357421875,-0.2564294636249542,1.9344401359558105,-1.5203256607055664
1772527273109618000,3.580617919921875,0.1305914968252182,1.8870103359222412,-1.4379758834838867
1772527273119600000,3.59060009765625,0.595965564250946,1.9186502695083618,-1.2712527513504028
1772527273129582800,3.600582763671875,0.8550441861152649,1.747452735900879,-1.0413435697555542
1772527273139565000,3.61056494140625,0.8197322487831116,1.277673602104187,-0.7572811841964722
1772527273149546800,3.620546630859375,0.7550413012504578,0.5302016139030457,-0.3726388216018677
1772527273159529000,3.630529052734375,0.7305535078048706,-0.3727005422115326,0.07679358869791031
1772527273169511000,3.640510986328125,0.6788729429244995,-1.1995813846588135,0.46124252676963806
1772527273179494000,3.650493896484375,0.5732237696647644,-1.6793192625045776,0.7045928835868835
1772527273189476000,3.66047607421875,0.41451001167297363,-1.8210506439208984,0.7287474870681763
1772527273199457800,3.670457763671875,0.22804905474185944,-1.7172588109970093,0.5243209004402161
1772527273209440000,3.68043994140625,0.0042752716690301895,-1.3709959983825684,0.22451527416706085
1772527273219423000,3.690423095703125,-0.2147204577922821,-0.7412492036819458,-0.07479394227266312
1772527273229405000,3.700405029296875,-0.3895314335823059,0.06622689962387085,-0.34668079018592834
1772527273239387100,3.71038720703125,-0.49597930908203125,0.7828196287155151,-0.5062083601951599
1772527273249368800,3.720368896484375,-0.50298672914505,1.1772282123565674,-0.503105640411377
1772527273259351000,3.73035107421875,-0.4500201940536499,1.2511656284332275,-0.3739950656890869
1772527273269333800,3.740333740234375,-0.3830265402793884,1.0125861167907715,-0.20558874309062958
1772527273279316000,3.75031591796875,-0.32007578015327454,0.5844818949699402,-0.043716222047805786
1772527273289298200,3.760298095703125,-0.2866222858428955,0.2555505633354187,0.09551467001438141
1772527273299280000,3.77027978515625,-0.29684802889823914,0.0852251946926117,0.16912177205085754
1772527273309262000,3.780261962890625,-0.291262686252594,0.027422817423939705,0.1347595453262329
1772527273319244800,3.790244873046875,-0.25133606791496277,0.0074272723868489265,-0.04457052797079086
1772527273329227000,3.80022705078125,-0.1880805343389511,0.010825147852301598,-0.28309279680252075
1772527273339209000,3.810208984375,-0.1745021492242813,-0.07930021733045578,-0.5526731014251709
1772527273349191000,3.82019091796875,-0.40526658296585083,-0.3707018494606018,-0.9839593768119812
1772527273359173000,3.830173095703125,-0.7890357971191406,-0.6997085213661194,-1.339943766593933
1772527273369155800,3.84015576171875,-1.0216830968856812,-0.7192045450210571,-1.2835946083068848
1772527273379138000,3.850137939453125,-0.888014018535614,-0.5004799365997314,-0.8087758421897888
1772527273389119700,3.86011962890625,-0.47940966486930847,-0.0579272136092186,-0.05932546406984329
1772527273399102000,3.87010205078125,0.0330488495528698,0.5094422101974487,0.819979727268219
1772527273409084000,3.880083984375,0.4166921079158783,0.8208518028259277,1.6012381315231323
1772527273419067000,3.89006689453125,0.5970693230628967,0.6606584191322327,2.137655019760132
1772527273429049000,3.900049072265625,0.5848480463027954,0.02173137664794922,2.382291555404663
1772527273439030800,3.91003076171875,0.3788645565509796,-0.823691189289093,2.3185651302337646
1772527273449013000,3.920012939453125,0.12262459844350815,-1.5277026891708374,1.995221495628357
1772527273458995000,3.929994873046875,-0.048768989741802216,-1.8709173202514648,1.5464003086090088
1772527273468978000,3.93997802734375,-0.13453061878681183,-1.767382025718689,1.1017035245895386
1772527273478960000,3.949960205078125,-0.20514141023159027,-1.2866746187210083,0.744483232498169
1772527273488941800,3.95994189453125,-0.2236623615026474,-0.5762712955474854,0.5299909114837646
1772527273498924000,3.969924072265625,-0.1815415322780609,0.1160387471318245,0.37204766273498535
1772527273508906000,3.979906005859375,-0.1019439548254013,0.49949556589126587,0.1694210171699524
1772527273518889000,3.989888916015625,-0.08974640816450119,0.5861819982528687,-0.07065150141716003
1772527273528871200,3.99987109375,-0.15072853863239288,0.48311787843704224,-0.2569981813430786
1772527273538852900,4.009852783203125,-0.2537936866283417,0.27481046319007874,-0.3548206090927124
1772527273548835000,4.0198349609375,-0.3256497085094452,0.09104914218187332,-0.3353681266307831
1772527273558817000,4.029817138671875,-0.2808246910572052,-0.01092942152172327,-0.19764195382595062
1772527273568800000,4.039800048828125,-0.1575068086385727,0.006854647770524025,0.03250898793339729
1772527273578782000,4.049781982421875,-0.03006763756275177,0.09149230271577835,0.31229695677757263
1772527273588764000,4.059763916015625,0.0845685675740242,0.20752549171447754,0.5828462839126587
1772527273598746000,4.06974609375,0.18751464784145355,0.3056967854499817,0.746974766254425
1772527273608727800,4.079727783203125,0.2723580598831177,0.3328319489955902,0.7701816558837891
1772527273618711000,4.0897109375,0.32429981231689453,0.35477080941200256,0.6884332895278931
1772527273628693000,4.09969287109375,0.3455420136451721,0.4295899569988251,0.5722443461418152
1772527273638675000,4.109675048828125,0.3609904944896698,0.5655946731567383,0.4795628488063812
1772527273648657000,4.119656982421875,0.38573557138442993,0.7054031491279602,0.3907299041748047
1772527273658638800,4.129638916015625,0.4001653790473938,0.7713184952735901,0.2864692807197571
1772527273668622000,4.1396220703125,0.36166900396347046,0.8000768423080444,0.19057510793209076
1772527273678603800,4.149603759765625,0.29711291193962097,0.7924016118049622,0.1262509822845459
1772527273688586000,4.1595859375,0.20996765792369843,0.7522445917129517,0.06817828863859177
1772527273698568000,4.16956787109375,0.09621259570121765,0.6781312227249146,-0.022560937330126762
1772527273708550000,4.1795498046875,-0.04467826709151268,0.5339164137840271,-0.17141780257225037
1772527273718533000,4.189533203125,-0.17925338447093964,0.3343513607978821,-0.37446093559265137
1772527273728514800,4.199514892578125,-0.2599174976348877,0.14294403791427612,-0.5764713883399963
1772527273738497000,4.2094970703125,-0.28557974100112915,-0.04141220822930336,-0.7271631360054016
1772527273748479000,4.21947900390625,-0.25360748171806335,-0.2400309443473816,-0.7784398198127747
1772527273758461000,4.2294609375,-0.19041572511196136,-0.48289045691490173,-0.752796471118927
1772527273768444200,4.239444091796875,-0.15614056587219238,-0.6987078785896301,-0.7748051285743713
1772527273778425900,4.24942578125,-0.15336768329143524,-0.75123530626297,-0.9073588848114014
1772527273788408000,4.259407958984375,-0.08326777815818787,-0.42052650451660156,-1.0907771587371826
1772527273798390000,4.26939013671875,0.03904908150434494,0.23936323821544647,-1.3190276622772217
1772527273808372000,4.2793720703125,0.2689407467842102,0.8839288353919983,-1.6254284381866455
1772527273818355000,4.28935498046875,0.41729453206062317,0.9536847472190857,-2.1106388568878174
1772527273828337000,4.2993369140625,0.28707534074783325,0.38637879490852356,-2.759127378463745
1772527273838319000,4.309319091796875,-0.05846954882144928,-0.4433785676956177,-3.3928329944610596
1772527273848301000,4.319301025390625,-0.5229129791259766,-1.1232014894485474,-3.776336669921875
1772527273858283000,4.329282958984375,-0.7726240158081055,-1.318995714187622,-3.3503782749176025
1772527273868266000,4.339265869140625,-0.23844021558761597,-0.7843276262283325,-1.6991928815841675
1772527273878248000,4.349248046875,0.7997321486473083,0.20096738636493683,0.7072842121124268
1772527273888230000,4.35922998046875,1.6421260833740234,0.8522101044654846,2.8493876457214355
1772527273898211800,4.3692119140625,2.1322214603424072,0.7599672675132751,4.1656928062438965
1772527273908194000,4.379194091796875,1.9933607578277588,0.05055895447731018,4.432321548461914
1772527273918176800,4.3891767578125,1.2593696117401123,-0.9682836532592773,3.691807508468628
1772527273928159000,4.399158935546875,0.4374059736728668,-1.8490142822265625,2.305142879486084
1772527273938141000,4.409140869140625,-0.08894065767526627,-2.1639676094055176,0.8337797522544861
1772527273948123000,4.419122802734375,-0.2483999878168106,-1.6337472200393677,-0.25622156262397766
1772527273958104800,4.429104736328125,-0.1468890756368637,-0.56838059425354,-0.8909740447998047
1772527273968087800,4.439087890625,0.029236197471618652,0.6086320281028748,-1.1974575519561768
1772527273978070000,4.449070068359375,0.16731950640678406,1.453202724456787,-1.3300827741622925
1772527273988052000,4.459052001953125,0.20530232787132263,1.9758572578430176,-1.3586012125015259
1772527273998034000,4.469033935546875,0.07315707206726074,2.240349054336548,-1.337975263595581
1772527274008016000,4.479015869140625,-0.2032821774482727,2.1889443397521973,-1.291256308555603
1772527274017998000,4.488998046875,-0.5232926607131958,1.8772345781326294,-1.2122124433517456
1772527274027981000,4.49898095703125,-0.7858824133872986,1.3421584367752075,-1.0547982454299927
1772527274037963000,4.508962890625,-0.900473415851593,0.7175638675689697,-0.7530852556228638
1772527274047945000,4.518945068359375,-0.8498679995536804,0.21059635281562805,-0.2874617576599121
1772527274057927000,4.528927001953125,-0.7202125191688538,-0.1817471832036972,0.222981795668602
1772527274067908400,4.538908447265625,-0.5556572675704956,-0.4994816184043884,0.6260794997215271
1772527274077891300,4.548891357421875,-0.3942158818244934,-0.6552645564079285,0.8978843688964844
1772527274087873300,4.558873291015625,-0.2508011758327484,-0.6327031254768372,1.0435124635696411
1772527274097855200,4.568855224609375,-0.10002311319112778,-0.45305532217025757,1.1147615909576416
1772527274107837400,4.57883740234375,0.04091612249612808,-0.16664840281009674,1.1046638488769531
1772527274117819400,4.5888193359375,0.14744709432125092,0.12741784751415253,0.9922398924827576
1772527274127802400,4.59880224609375,0.20473554730415344,0.39180105924606323,0.7965951561927795
1772527274137784300,4.608784423828125,0.15829215943813324,0.5673102736473083,0.544087290763855
1772527274147766300,4.618766357421875,0.04530659317970276,0.6035520434379578,0.27452465891838074
1772527274157748200,4.628748291015625,-0.0852319747209549,0.5063394904136658,0.0003855009563267231
1772527274167730400,4.63873046875,-0.2099408060312271,0.34919625520706177,-0.2731318473815918
1772527274177713400,4.64871337890625,-0.3072090446949005,0.2321724146604538,-0.46707549691200256
1772527274187695400,4.6586953125,-0.3424583971500397,0.19258323311805725,-0.49860137701034546
1772527274197677300,4.66867724609375,-0.32168012857437134,0.19667944312095642,-0.3997565507888794
1772527274207659300,4.6786591796875,-0.26530393958091736,0.17935632169246674,-0.25832539796829224
1772527274217641500,4.688641357421875,-0.21157948672771454,0.1896425187587738,-0.12103729695081711
1772527274227624400,4.69862451171875,-0.17143510282039642,0.2406158298254013,-0.036825861781835556
1772527274237606400,4.7086064453125,-0.14592361450195312,0.2627301812171936,-0.05034353584051132
1772527274247588400,4.71858837890625,-0.11020460724830627,0.21269923448562622,-0.14176015555858612
1772527274257570300,4.7285703125,-0.0430934801697731,0.12157145142555237,-0.23467572033405304
1772527274267552300,4.73855224609375,0.044411804527044296,-0.022643232718110085,-0.3214763402938843
1772527274277535500,4.748535400390625,0.08915556967258453,-0.15222172439098358,-0.434174120426178
1772527274287517200,4.75851708984375,0.0037198523059487343,-0.19351282715797424,-0.7081874012947083
1772527274297499400,4.76849951171875,-0.2017880231142044,-0.24203641712665558,-1.3254674673080444
1772527274307481300,4.7784814453125,-0.36022254824638367,-0.26326438784599304,-2.194843053817749
1772527274317463300,4.78846337890625,-0.5825152397155762,-0.29385054111480713,-3.1236023902893066
1772527274327446300,4.7984462890625,-0.9219876527786255,-0.7535075545310974,-3.9367640018463135
1772527274337428200,4.80842822265625,-1.124966025352478,-1.6641544103622437,-4.2173333168029785
1772527274347410400,4.818410400390625,-0.970237135887146,-2.2052574157714844,-3.4488120079040527
1772527274357392400,4.828392333984375,-0.5060310959815979,-1.8710651397705078,-1.4716544151306152
1772527274367374300,4.838374267578125,0.09267549216747284,-1.0350441932678223,1.136498212814331
1772527274377357300,4.848357421875,0.4080825746059418,-0.0321209542453289,3.217799663543701
1772527274387339300,4.85833935546875,0.3552086651325226,0.8080743551254272,4.00536584854126
1772527274397321200,4.8683212890625,-0.047610681504011154,0.19136963784694672,2.956026792526245
1772527274407303400,4.878303466796875,-0.4122026860713959,-1.3497989177703857,0.6771258115768433
1772527274417285000,4.88828515625,-0.5175890922546387,-2.237482786178589,-1.382293939590454
1772527274427268400,4.898268310546875,-0.3815084397792816,-1.9742933511734009,-2.418914794921875
1772527274437250300,4.908250244140625,-0.11669541895389557,-1.1447514295578003,-2.5205891132354736
1772527274447232300,4.918232177734375,0.20079994201660156,-0.34048882126808167,-1.6942332983016968
1772527274457214500,4.92821435546875,0.5726355314254761,0.0713069885969162,-0.23222443461418152
1772527274467196200,4.938196044921875,0.9304014444351196,0.15315745770931244,1.283260703086853
1772527274477178400,4.948178466796875,0.8183907270431519,0.12587788701057434,2.417635679244995
1772527274487161300,4.958161376953125,0.1295589804649353,-0.043181538581848145,2.9413604736328125
1772527274497143300,4.968143310546875,-0.6746581196784973,-0.46327123045921326,2.7980449199676514
1772527274507125500,4.97812548828125,-1.2460365295410156,-1.0630170106887817,2.084669589996338
1772527274517107200,4.988107177734375,-1.3339637517929077,-1.5152980089187622,1.1817482709884644
1772527274527089400,4.99808935546875,-1.0255441665649414,-1.3590164184570312,0.47950446605682373
1772527274537072400,5.008072265625,-0.6101422905921936,-0.6431646347045898,0.08511774986982346
1772527274547054300,5.018054443359375,-0.2654661536216736,0.2515071630477905,-0.0519719235599041
1772527274557036300,5.028036376953125,-0.014741526916623116,1.0707043409347534,0.017955228686332703
1772527274567018200,5.038018310546875,0.16764047741889954,1.7574914693832397,0.22260424494743347
1772527274577000400,5.04800048828125,0.346262127161026,2.2039318084716797,0.47982487082481384
1772527274586983200,5.057983154296875,0.49378737807273865,2.3144311904907227,0.7479648590087891
1772527274596965400,5.06796533203125,0.5204154849052429,2.108248472213745,0.9662641286849976
1772527274606947300,5.077947265625,0.40542072057724,1.58856999874115,1.0626503229141235
1772527274616929300,5.08792919921875,0.22279340028762817,0.8444268703460693,0.9739701151847839
1772527274626911500,5.097911376953125,0.053928520530462265,0.12551012635231018,0.7402293682098389
1772527274636894200,5.107894287109375,-0.04329124093055725,-0.33936381340026855,0.44585418701171875
1772527274646876400,5.11787646484375,-0.06009386107325554,-0.518030047416687,0.14681901037693024
1772527274656858000,5.127858154296875,-0.00820376630872488,-0.46864837408065796,-0.10641351342201233
1772527274666840300,5.13784033203125,0.10013552010059357,-0.1972094476222992,-0.3058986961841583
1772527274676822500,5.147822509765625,0.22850440442562103,0.12589778006076813,-0.4621061682701111
1772527274686805200,5.15780517578125,0.3583560585975647,0.41878801584243774,-0.5637836456298828
1772527274696787500,5.167787353515625,0.48390892148017883,0.5910084843635559,-0.6095186471939087
1772527274706769200,5.17776904296875,0.5703181028366089,0.5864549875259399,-0.5999858975410461
1772527274716751400,5.18775146484375,0.5755701065063477,0.4576379358768463,-0.549868106842041
1772527274726733300,5.1977333984375,0.5277881026268005,0.2767634391784668,-0.469657838344574
1772527274736716300,5.20771630859375,0.5044439435005188,0.08245201408863068,-0.36860525608062744
1772527274746698500,5.217698486328125,0.5329768657684326,-0.0005168975330889225,-0.23699064552783966
1772527274756680200,5.22768017578125,0.6394822597503662,0.04392459988594055,-0.14700350165367126
1772527274766662400,5.237662353515625,0.805757462978363,0.1254062056541443,-0.1633630096912384
1772527274776644400,5.247644287109375,0.9957767128944397,0.25954964756965637,-0.2838550806045532
1772527274786626300,5.257626220703125,1.0035706758499146,0.28070083260536194,-0.5948605537414551
1772527274796609300,5.267609375,0.6533569693565369,-0.07563039660453796,-1.142147183418274
1772527274806591200,5.27759130859375,0.03157016262412071,-0.8480594158172607,-1.5704503059387207
1772527274816573400,5.287573486328125,-0.552684485912323,-1.6971089839935303,-1.415819525718689
1772527274826555100,5.29755517578125,-0.7256960868835449,-1.9884779453277588,-0.4601048529148102
1772527274836537300,5.307537353515625,-0.538517951965332,-1.668800711631775,0.835444450378418
1772527274846520300,5.317520263671875,-0.22987504303455353,-0.9952104687690735,2.005175828933716
1772527274856502300,5.327502197265625,0.05996396020054817,-0.3403666019439697,2.753274917602539
1772527274866484500,5.337484375,0.2825622856616974,0.28222382068634033,3.028235673904419
1772527274876466200,5.347466064453125,0.3793567419052124,0.7572790384292603,2.7937517166137695
1772527274886448400,5.357448486328125,0.26474401354789734,0.6723451614379883,2.019266366958618
1772527274896431000,5.36743115234375,-0.050822995603084564,0.07118374109268188,0.9402169585227966
1772527274906413300,5.377413330078125,-0.36133211851119995,-0.4048621952533722,-0.023240476846694946
1772527274916395500,5.3873955078125,-0.4953301250934601,-0.4553197920322418,-0.6284081339836121
1772527274926377200,5.397377197265625,-0.5156381130218506,-0.2447129487991333,-0.8956605792045593
1772527274936359400,5.407359375,-0.4938094913959503,0.2305758148431778,-0.8285132646560669
1772527274946342100,5.417342041015625,-0.45364734530448914,0.8038619756698608,-0.5489951372146606
1772527274956324400,5.427324462890625,-0.46540307998657227,1.1237667798995972,-0.26943543553352356
1772527274966306300,5.437306396484375,-0.5413979291915894,1.118813395500183,-0.10343240201473236
1772527274976288300,5.447288330078125,-0.6194221377372742,0.9475014805793762,-0.0015310700982809067
1772527274986270500,5.4572705078125,-0.6582767963409424,0.7041981816291809,0.06873510032892227
1772527274996253200,5.467253173828125,-0.6184180974960327,0.5104425549507141,0.20610147714614868
1772527275006235400,5.4772353515625,-0.502842128276825,0.4090445935726166,0.45828428864479065
1772527275016217300,5.48721728515625,-0.34197279810905457,0.3546133041381836,0.7385182976722717
1772527275026199300,5.49719921875,-0.2185373455286026,0.2758805751800537,0.925382137298584
1772527275036181200,5.50718115234375,-0.15289069712162018,0.22939881682395935,0.9653623104095459
1772527275046163200,5.5171630859375,-0.13063786923885345,0.23991040885448456,0.8971639275550842
1772527275056146400,5.527146484375,-0.09778963774442673,0.2800050973892212,0.7665193676948547
1772527275066128600,5.537128662109375,-0.04931404069066048,0.3968050479888916,0.6272662281990051
1772527275076110800,5.54711083984375,0.013589557260274887,0.5499756336212158,0.5155764222145081
1772527275086092800,5.5570927734375,0.06859443336725235,0.6565014719963074,0.431852787733078
1772527275096074800,5.56707470703125,0.06854090839624405,0.6925537586212158,0.3493725657463074
1772527275106058000,5.57705810546875,0.04941417649388313,0.6580076217651367,0.265409916639328
1772527275116039700,5.587039794921875,0.01745304837822914,0.5743446946144104,0.16231735050678253
1772527275126022000,5.59702197265625,0.005300445016473532,0.5333227515220642,0.09554021805524826
1772527275136003800,5.60700390625,0.010013973340392113,0.5410821437835693,0.08953718841075897
1772527275145985800,5.61698583984375,0.02512798272073269,0.555382251739502,0.17789052426815033
1772527275155969000,5.626968994140625,0.05241793021559715,0.45894575119018555,0.276333212852478
1772527275165950700,5.63695068359375,0.09549252688884735,0.25634145736694336,0.3016038239002228
1772527275175933000,5.646932861328125,0.08267606049776077,-0.028193064033985138,0.20059093832969666
1772527275185915000,5.656914794921875,0.011914998292922974,-0.3491477072238922,0.012201370671391487
1772527275195896800,5.666896728515625,-0.0470801442861557,-0.580370306968689,-0.147765651345253
1772527275205878800,5.676878662109375,-0.06295979768037796,-0.6775995492935181,-0.18354091048240662
1772527275215861800,5.68686181640625,-0.025500306859612465,-0.7605511546134949,-0.13554489612579346
1772527275225844000,5.696843994140625,0.09376589953899384,-0.8617683053016663,-0.10075975209474564
1772527275235825700,5.70682568359375,0.2748289108276367,-0.978192150592804,-0.13826984167099
1772527275245807900,5.716807861328125,0.4780941307544708,-1.0980112552642822,-0.24830925464630127
1772527275255789800,5.726789794921875,0.5750078558921814,-1.2408349514007568,-0.4517369568347931
1772527275265772800,5.736772705078125,0.5358094573020935,-1.458655834197998,-0.6885954141616821
1772527275275755000,5.746755126953125,0.39850619435310364,-1.7501885890960693,-0.8044767379760742
1772527275285736700,5.75673681640625,0.2131560742855072,-2.0951809883117676,-0.6901643872261047
1772527275295719000,5.766718994140625,0.141294926404953,-2.178675413131714,-0.2488628625869751
1772527275305700900,5.776700927734375,0.3389762043952942,-1.7556111812591553,0.49865248799324036
1772527275315683800,5.786683837890625,0.7471224665641785,-1.1553375720977783,1.2740089893341064
1772527275325665800,5.796665771484375,1.0003904104232788,-0.5147765278816223,1.6362659931182861
1772527275335647700,5.806647705078125,0.9058731198310852,-0.11888536065816879,1.335468053817749
1772527275345630000,5.8166298828125,0.563094437122345,0.053350839763879776,0.7936762571334839
1772527275355612000,5.82661181640625,0.17250995337963104,0.03212464600801468,0.40892595052719116
1772527275365593900,5.83659375,-0.20215222239494324,-0.18055276572704315,0.455394446849823
1772527275375576800,5.846576904296875,-0.36867567896842957,-0.542883574962616,0.7842514514923096
1772527275385558800,5.856558837890625,-0.1411254107952118,-0.8911126255989075,0.9893139004707336
1772527275395540700,5.866540771484375,0.395251989364624,-1.0617493391036987,1.0185445547103882
1772527275405523000,5.87652294921875,0.9873453974723816,-1.0074374675750732,1.0165470838546753
1772527275415505000,5.8865048828125,1.3904536962509155,-0.8496357798576355,0.9706528782844543
1772527275425488000,5.89648779296875,1.537501335144043,-0.6726235151290894,0.874149739742279
1772527275435469800,5.9064697265625,1.4814740419387817,-0.542805552482605,0.7285289168357849
1772527275445451800,5.91645166015625,1.3297611474990845,-0.423319011926651,0.4486910402774811
1772527275455433700,5.926433837890625,1.1866511106491089,-0.07004138082265854,-0.0738224908709526
1772527275465415700,5.936415771484375,0.971344530582428,0.648276686668396,-0.8917049765586853
1772527275475398700,5.946398681640625,0.6217580437660217,1.5757267475128174,-1.846397042274475
1772527275485380900,5.956380859375,0.13659848272800446,2.36065673828125,-2.7400381565093994
1772527275495362800,5.96636279296875,-0.32743576169013977,2.682175874710083,-3.308318614959717
1772527275505344800,5.9763447265625,-0.5210844874382019,2.655219078063965,-3.271775484085083
1772527275515326700,5.98632666015625,-0.507782518863678,2.4033517837524414,-2.801194190979004
1772527275525309000,5.996308837890625,-0.3614784777164459,1.719055414199829,-2.007038116455078
1772527275535292000,6.0062919921875,-0.21612899005413055,0.8020368218421936,-1.0514940023422241
1772527275545273900,6.01627392578125,-0.140618696808815,0.025215471163392067,-0.127844899892807
1772527275555255800,6.026255859375,-0.09061437845230103,-0.5800589919090271,0.639383852481842
1772527275565237800,6.03623779296875,-0.07033529132604599,-1.0074468851089478,1.1332160234451294
1772527275575220000,6.046219970703125,-0.06910411268472672,-1.2469888925552368,1.3966494798660278
1772527275585203000,6.056202880859375,-0.06930990517139435,-1.3227380514144897,1.429911494255066
1772527275595185000,6.066184814453125,-0.03394739329814911,-1.2570559978485107,1.2409424781799316
1772527275605166800,6.076166748046875,0.05223685875535011,-1.064776062965393,0.8868849277496338
1772527275615148800,6.086148681640625,0.23760804533958435,-0.6553632616996765,0.4146569073200226
1772527275625131000,6.096131103515625,0.5816392302513123,-0.11906086653470993,-0.1469007432460785
1772527275635113700,6.10611376953125,0.92760169506073,0.47272682189941406,-0.6965252757072449
1772527275645096000,6.116095947265625,1.1697211265563965,1.1271201372146606,-1.1210170984268188
1772527275655078000,6.126077880859375,1.1799812316894531,1.6579184532165527,-1.4056997299194336
1772527275665059800,6.136059814453125,0.9605363607406616,2.0298492908477783,-1.5223181247711182
1772527275675041800,6.146041748046875,0.6964700818061829,2.1993582248687744,-1.4617091417312622
1772527275685023700,6.156023681640625,0.557401716709137,2.088304042816162,-1.264499545097351
1772527275695006700,6.1660068359375,0.575329065322876,1.7390532493591309,-0.9776284694671631
1772527275704988700,6.17598876953125,0.6352765560150146,1.2531105279922485,-0.6107535362243652
1772527275714971000,6.185970947265625,0.720657229423523,0.648320734500885,-0.2458927035331726
1772527275724952800,6.195952880859375,0.8221232295036316,0.07813731580972672,0.06898472458124161
1772527275734934800,6.205934814453125,0.9028119444847107,-0.3843488395214081,0.3272719383239746
1772527275744917800,6.215917724609375,0.918002724647522,-0.7656844258308411,0.3711489737033844
1772527275754899700,6.225899658203125,0.7574186325073242,-1.2157583236694336,0.04737890139222145
1772527275764882000,6.2358818359375,0.3865487575531006,-1.4879136085510254,-0.41011470556259155
1772527275774863600,6.245863525390625,-0.011559716425836086,-1.3173725605010986,-0.6392700672149658
1772527275784845800,6.255845703125,-0.4014289975166321,-0.7374470829963684,-0.39163738489151
1772527275794828000,6.265828125,-0.5597131252288818,-0.053403496742248535,0.39990442991256714
1772527275804810800,6.275810791015625,-0.41706031560897827,0.5172327160835266,1.374687910079956
1772527275814793000,6.28579296875,-0.28064602613449097,0.6185508370399475,2.1297192573547363
1772527275824774700,6.295774658203125,-0.24617375433444977,0.22517026960849762,2.604187488555908
1772527275834756900,6.3057568359375,-0.1763528734445572,-0.5314249992370605,2.863792896270752
1772527275844738800,6.31573876953125,-0.14724698662757874,-1.5521082878112793,2.745450735092163
1772527275854721800,6.3257216796875,-0.23743227124214172,-2.482478618621826,2.1867401599884033
1772527275864704000,6.3357041015625,-0.30077606439590454,-2.957432746887207,1.3771589994430542
1772527275874685700,6.345685791015625,-0.2717452049255371,-2.5727813243865967,0.6285532116889954
1772527275884668000,6.35566796875,-0.2696814239025116,-1.6417430639266968,-0.06890988349914551
1772527275894649900,6.36564990234375,-0.39774617552757263,-0.5882635116577148,-0.7394464612007141
1772527275904632800,6.3756328125,-0.6658266186714172,0.35963642597198486,-1.2724579572677612
1772527275914615000,6.385614990234375,-0.9190559983253479,1.0479274988174438,-1.67405366897583
1772527275924596700,6.3955966796875,-1.1225849390029907,1.3217304944992065,-2.0196938514709473
1772527275934579000,6.405578857421875,-1.19998037815094,1.113450288772583,-2.143324375152588
1772527275944560600,6.415560546875,-1.054839849472046,0.7007617354393005,-1.8281445503234863
1772527275954542800,6.42554296875,-0.8623716235160828,0.29950112104415894,-1.1848680973052979
1772527275964525800,6.43552587890625,-0.7233894467353821,0.01851654425263405,-0.49575066566467285
1772527275974507800,6.4455078125,-0.6591652035713196,-0.08093388378620148,0.00017946073785424232
1772527275984490000,6.455489990234375,-0.6528997421264648,0.0522109717130661,0.2550102770328522
1772527275994471700,6.4654716796875,-0.6879120469093323,0.41253745555877686,0.3019106686115265
1772527276004454000,6.475453857421875,-0.7149667143821716,0.8537855744361877,0.18253803253173828
1772527276014436600,6.4854365234375,-0.6882925033569336,1.2421176433563232,-0.02288675867021084
1772527276024418800,6.495418701171875,-0.5722998976707458,1.5187053680419922,-0.22026333212852478
1772527276034401000,6.505401123046875,-0.34135377407073975,1.588559865951538,-0.41190147399902344
1772527276044382700,6.5153828125,-0.12246034294366837,1.415056824684143,-0.6100097298622131
1772527276054365000,6.525364990234375,0.007951190695166588,1.060874581336975,-0.7181510925292969
1772527276064346600,6.5353466796875,0.07553711533546448,0.6361158490180969,-0.7106889486312866
1772527276074329300,6.545329345703125,0.07837817072868347,0.19123511016368866,-0.6415764689445496
1772527276084311600,6.5553115234375,0.019462984055280685,-0.18126420676708221,-0.5144366025924683
1772527276094293200,6.565293212890625,-0.07221686840057373,-0.46889016032218933,-0.33604928851127625
1772527276104275500,6.575275390625,-0.19682152569293976,-0.6558494567871094,-0.13358958065509796
1772527276114257400,6.58525732421875,-0.3674875497817993,-0.6657577753067017,0.0534125417470932
1772527276124240400,6.595240478515625,-0.5603586435317993,-0.5311331748962402,0.1864893138408661
1772527276134222600,6.60522265625,-0.7466374039649963,-0.25908008217811584,0.22838696837425232
1772527276144204300,6.615204345703125,-0.9123866558074951,0.08110605180263519,0.2127181440591812
1772527276154186500,6.6251865234375,-1.0019495487213135,0.44240859150886536,0.16505874693393707
1772527276164168400,6.63516845703125,-0.8764581084251404,0.8060266971588135,0.15990464389324188
1772527276174150400,6.645150390625,-0.5607268214225769,1.0055006742477417,0.21701453626155853
1772527276184133600,6.655133544921875,-0.2073705643415451,0.9691195487976074,0.2921164631843567
1772527276194115300,6.665115234375,-0.01967870071530342,0.7904472947120667,0.3904787302017212
1772527276204097500,6.67509765625,-0.033320967108011246,0.04780172184109688,0.19413664937019348
1772527276214079500,6.68507958984375,-0.2685111165046692,-0.6445685029029846,-0.08586091548204422
1772527276224061400,6.6950615234375,-0.6241128444671631,-0.8860043883323669,-0.21422594785690308
1772527276234044700,6.705044677734375,-0.8256427645683289,-0.7699902057647705,-0.15138280391693115
1772527276244026400,6.7150263671875,-0.6952563524246216,-0.25762075185775757,0.06981100142002106
1772527276254008600,6.725008544921875,-0.36186882853507996,0.5006973147392273,0.40202704071998596
1772527276263990500,6.734990478515625,-0.03627192974090576,1.3201146125793457,0.8225557208061218
1772527276273972500,6.744972412109375,0.30010849237442017,2.0524604320526123,1.2918846607208252
1772527276283954400,6.754954345703125,0.6901460886001587,2.4133028984069824,1.658196210861206
1772527276293937400,6.7649375,1.077011227607727,2.135402202606201,1.8173863887786865
1772527276303919600,6.774919677734375,1.2644133567810059,1.3471211194992065,1.8171740770339966
1772527276313901300,6.7849013671875,1.2995293140411377,0.33122682571411133,1.704149603843689
1772527276323883500,6.794883544921875,1.339634656906128,-0.6116440892219543,1.468496561050415
1772527276333865500,6.804865478515625,1.3715832233428955,-1.3084639310836792,1.1665254831314087
1772527276343848400,6.814848388671875,1.261948585510254,-1.6896189451217651,0.8896396160125732
1772527276353830400,6.824830322265625,1.010501742362976,-1.7097532749176025,0.6637628078460693
1772527276363812400,6.834812255859375,0.708044171333313,-1.4485782384872437,0.4219675064086914
1772527276373794600,6.844794677734375,0.41458645462989807,-0.9997031092643738,0.1670486479997635
1772527276383776500,6.854776611328125,0.1331503838300705,-0.40949591994285583,-0.07459183782339096
1772527276393758500,6.864758544921875,-0.11217654496431351,0.13061606884002686,-0.3001149594783783
1772527276403741400,6.874741455078125,-0.2868208885192871,0.5118972063064575,-0.5043042302131653
1772527276413723400,6.884723388671875,-0.39672422409057617,0.6291884183883667,-0.6710420846939087
1772527276423705300,6.894705322265625,-0.44821059703826904,0.50458163022995,-0.7596533894538879
1772527276433687600,6.9046875,-0.47544780373573303,0.26326778531074524,-0.687539279460907
1772527276443669500,6.91466943359375,-0.4809803366661072,-0.04459415003657341,-0.45587459206581116
1772527276453652500,6.924652587890625,-0.4786226153373718,-0.31491830945014954,-0.10342438519001007
1772527276463634400,6.934634521484375,-0.49648749828338623,-0.5195364952087402,0.28185150027275085
1772527276473616400,6.944616455078125,-0.5373960733413696,-0.6077465415000916,0.6165037751197815
1772527276483598600,6.9545986328125,-0.6145573854446411,-0.6188346147537231,0.8405041694641113
1772527276493580300,6.964580322265625,-0.7036771178245544,-0.5964078307151794,0.9481395483016968
1772527276503562500,6.9745625,-0.7182974815368652,-0.5172593593597412,0.9552348256111145
1772527276513545500,6.98454541015625,-0.6159186959266663,-0.3825140595436096,0.8532338738441467
1772527276523527400,6.99452734375,-0.46986880898475647,-0.2174292504787445,0.6436042189598083
1772527276533509400,7.00450927734375,-0.33035698533058167,-0.08087007701396942,0.37947675585746765
1772527276543491300,7.0144912109375,-0.2307109832763672,0.047647688537836075,0.12573783099651337
1772527276553473500,7.0244736328125,-0.16919489204883575,0.18920987844467163,-0.08306997269392014
1772527276563456500,7.03445654296875,-0.13180674612522125,0.3099234104156494,-0.23919597268104553
1772527276573438500,7.0444384765625,-0.09249477088451385,0.40752801299095154,-0.3217949867248535
1772527276583420400,7.05442041015625,-0.0484086312353611,0.5055224895477295,-0.3243054151535034
1772527276593402400,7.06440234375,0.019131265580654144,0.5869707465171814,-0.2642167806625366
1772527276603384600,7.074384521484375,0.08282198011875153,0.6429761052131653,-0.1887381374835968
1772527276613366300,7.0843662109375,0.12278110533952713,0.6158602833747864,-0.1450577676296234
1772527276623349500,7.094349609375,0.18010124564170837,0.47829365730285645,-0.1544790416955948
1772527276633331500,7.10433154296875,0.28096288442611694,0.32124704122543335,-0.22509753704071045
1772527276643313400,7.1143134765625,0.3900635838508606,0.2416105419397354,-0.3921787440776825
1772527276653295600,7.124295654296875,0.5086756944656372,0.31338807940483093,-0.6044960618019104
1772527276663277300,7.13427734375,0.6662623882293701,0.44847622513771057,-0.8152596354484558
1772527276673260500,7.144260498046875,0.87944495677948,0.4312745928764343,-0.9895395636558533
1772527276683242500,7.154242431640625,1.1429874897003174,0.3006681203842163,-1.056363582611084
1772527276693224400,7.164224365234375,1.4294682741165161,0.2679905891418457,-0.9749525785446167
1772527276703206700,7.17420654296875,1.6582694053649902,0.28980839252471924,-0.8327082991600037
1772527276713188400,7.184188232421875,1.7788118124008179,0.11274813115596771,-0.7022088766098022
1772527276723170600,7.194170654296875,1.761716604232788,-0.22193442285060883,-0.4902772307395935
1772527276733153300,7.2041533203125,1.5274863243103027,-0.5880375504493713,-0.2714748680591583
1772527276743135500,7.214135498046875,1.0789339542388916,-1.0137823820114136,-0.27173522114753723
1772527276753117400,7.224117431640625,0.5442513227462769,-1.5328569412231445,-0.5459089875221252
1772527276763099400,7.234099365234375,-0.01789282262325287,-2.097015142440796,-0.9018614292144775
1772527276773081600,7.24408154296875,-0.5006368160247803,-2.5192415714263916,-1.0235904455184937
1772527276783063300,7.254063232421875,-0.7682710289955139,-2.7357218265533447,-0.8243457674980164
1772527276793046500,7.264046630859375,-0.801815390586853,-2.7844860553741455,-0.4832257032394409
1772527276803028200,7.2740283203125,-0.6570059061050415,-2.6111066341400146,-0.17124508321285248
1772527276813010400,7.284010498046875,-0.30301907658576965,-2.2331058979034424,0.02626880258321762
1772527276822992600,7.29399267578125,0.25039881467819214,-1.7758564949035645,0.09540773928165436
1772527276832974300,7.303974365234375,0.8420901298522949,-1.2666031122207642,0.07299724221229553
1772527276842956500,7.31395654296875,1.3232078552246094,-0.7332586050033569,0.007475823163986206
1772527276852939300,7.323939208984375,1.6181881427764893,-0.31059420108795166,-0.0673811063170433
1772527276862921500,7.33392138671875,1.7188761234283447,-0.08745815604925156,-0.12455994635820389
1772527276872903400,7.3439033203125,1.5964250564575195,0.02620183490216732,-0.23663854598999023
1772527276882885400,7.353885498046875,1.2977479696273804,0.013543615117669106,-0.49949485063552856
1772527276892867600,7.36386767578125,0.9624956846237183,0.08649452030658722,-0.8108585476875305
1772527276902850300,7.373850341796875,0.7079309821128845,0.29432323575019836,-1.0545361042022705
1772527276912832500,7.38383251953125,0.5503560304641724,0.4912043511867523,-1.1498514413833618
1772527276922814500,7.393814453125,0.48225685954093933,0.6390172839164734,-1.0427886247634888
1772527276932796400,7.40379638671875,0.4904102683067322,0.7359349131584167,-0.7402853965759277
1772527276942778400,7.4137783203125,0.5471206307411194,0.8029949069023132,-0.33005255460739136
1772527276952760600,7.423760498046875,0.6611065864562988,0.8206236958503723,0.11499682813882828
1772527276962743600,7.43374365234375,0.8117921352386475,0.844311535358429,0.551499605178833
1772527276972725500,7.4437255859375,0.9629520773887634,0.915124237537384,0.9432194232940674
1772527276982707500,7.45370751953125,1.0862717628479004,1.0151753425598145,1.277935266494751
1772527276992689400,7.463689453125,1.1445353031158447,1.0757683515548706,1.5427887439727783
1772527277002671400,7.47367138671875,1.1244630813598633,1.0610685348510742,1.7052797079086304
1772527277012653300,7.4836533203125,1.0407737493515015,0.9885810017585754,1.7627637386322021
1772527277022636300,7.49363623046875,0.9090210795402527,0.8861491680145264,1.716384768486023
1772527277032618500,7.503618408203125,0.7587463855743408,0.7948703765869141,1.584570288658142
1772527277042600400,7.513600341796875,0.6202138662338257,0.7634278535842896,1.405631422996521
1772527277052582400,7.52358251953125,0.5211690068244934,0.777455747127533,1.261366605758667
1772527277062564900,7.53356494140625,0.4707873463630676,0.8080794215202332,1.2049254179000854
1772527277072547800,7.5435478515625,0.45550185441970825,0.846332848072052,1.2392184734344482
1772527277082530000,7.553530029296875,0.4667491018772125,0.8450400233268738,1.325148582458496
1772527277092512000,7.563511962890625,0.4903644323348999,0.7663209438323975,1.3790544271469116
1772527277102494000,7.573493896484375,0.5258462429046631,0.593602180480957,1.343294382095337
1772527277112476000,7.583475830078125,0.5537766814231873,0.3707893490791321,1.2308048009872437
1772527277122457900,7.593457763671875,0.5810704231262207,0.156219482421875,1.1003066301345825
1772527277132441000,7.603441162109375,0.6266824007034302,0.08325126767158508,1.0173203945159912
1772527277142423000,7.613423095703125,0.7131251692771912,0.14972366392612457,0.9615165591239929
1772527277152405000,7.623405029296875,0.8232623338699341,0.179016575217247,0.869758129119873
1772527277162387000,7.633386962890625,0.9021901488304138,0.08422130346298218,0.7334915995597839
1772527277172369000,7.643368896484375,0.9169744253158569,-0.06532265245914459,0.5599309802055359
1772527277182350800,7.653350830078125,0.8825843334197998,-0.22172972559928894,0.420952707529068
1772527277192333800,7.663333740234375,0.857021689414978,-0.2815603017807007,0.38420695066452026
1772527277202316000,7.67331591796875,0.9158247709274292,-0.3309627175331116,0.4820031225681305
1772527277212298000,7.683298095703125,0.8548372983932495,-0.4266407787799835,0.5398749113082886
1772527277222280000,7.693280029296875,0.43362611532211304,-0.4350302517414093,0.3924137353897095
1772527277232262000,7.703261962890625,-0.19726744294166565,-0.12189815938472748,0.13161595165729523
1772527277242244900,7.713244873046875,-0.7288638949394226,0.3653120696544647,-0.1379144936800003
1772527277252226800,7.723226806640625,-0.9751407504081726,0.6370669007301331,-0.36746057868003845
1772527277262209000,7.733208984375,-0.9814420938491821,0.621432900428772,-0.5025618672370911
1772527277272191000,7.74319091796875,-0.8564705848693848,0.4399656057357788,-0.5443588495254517
1772527277282173000,7.7531728515625,-0.6894181370735168,0.1326671689748764,-0.5826591849327087
1772527277292155100,7.763155029296875,-0.5051628351211548,-0.2249668538570404,-0.7396165728569031
1772527277302137900,7.773137939453125,-0.25333523750305176,-0.45761922001838684,-1.003513216972351
1772527277312120000,7.7831201171875,0.03480786085128784,-0.46418845653533936,-1.318901777267456
1772527277322101800,7.793101806640625,0.2943428158760071,-0.38893845677375793,-1.623387336730957
1772527277332084000,7.803083984375,0.4895314872264862,-0.20056937634944916,-1.8066444396972656
1772527277342066200,7.813066162109375,0.5947955846786499,0.0720740333199501,-1.7922179698944092
1772527277352047900,7.8230478515625,0.6220123171806335,0.32514864206314087,-1.5760115385055542
1772527277362031000,7.833031005859375,0.5851008296012878,0.507409930229187,-1.1986721754074097
1772527277372012800,7.8430126953125,0.4974050521850586,0.5878115892410278,-0.7452651262283325
1772527277381995000,7.8529951171875,0.3690412938594818,0.6408758163452148,-0.2871558666229248
1772527277391977000,7.86297705078125,0.21487490832805634,0.6123895645141602,0.09840461611747742
1772527277401959000,7.872958984375,0.0766037255525589,0.46570807695388794,0.4160216152667999
1772527277411942000,7.88294189453125,0.019286373630166054,0.28921931982040405,0.6861684322357178
1772527277421923800,7.892923828125,0.07085554301738739,0.12809187173843384,0.8660961389541626
1772527277431906000,7.902906005859375,0.1904677003622055,-0.0014956907834857702,0.9400110840797424
1772527277441887700,7.9128876953125,0.3229310214519501,-0.05793797969818115,0.9097077250480652
1772527277451870000,7.922869873046875,0.4438451826572418,0.02415236085653305,0.8111318349838257
1772527277461852000,7.932851806640625,0.5007990002632141,0.22333163022994995,0.683276355266571
1772527277471835000,7.9428349609375,0.44100362062454224,0.4506217837333679,0.552897572517395
1772527277481817000,7.952817138671875,0.29457294940948486,0.5685229301452637,0.4391486644744873
1772527277491798800,7.962798828125,0.10855326801538467,0.559004008769989,0.35227078199386597
1772527277501781000,7.972781005859375,-0.04224810376763344,0.48244014382362366,0.3190884292125702
1772527277511763000,7.982762939453125,-0.12157994508743286,0.38454365730285645,0.34257060289382935
1772527277521745000,7.992744873046875,-0.1327991932630539,0.31941354274749756,0.42846351861953735
1772527277531728100,8.00272802734375,-0.1402224898338318,0.28979572653770447,0.5159481167793274
1772527277541709800,8.012709716796875,-0.0942138284444809,0.30404049158096313,0.584627628326416
1772527277551692000,8.022692138671875,-0.010865948162972927,0.27748849987983704,0.5929795503616333
1772527277561674000,8.032674072265625,0.07444356381893158,0.3211655020713806,0.6162087917327881
1772527277571656000,8.042656005859374,0.13196943700313568,0.3880971372127533,0.6998693346977234
1772527277581638000,8.052637939453126,0.1604377180337906,0.1702469289302826,0.7757832407951355
1772527277591620900,8.062620849609376,0.1971358060836792,-0.06654590368270874,0.7936500906944275
1772527277601603000,8.07260302734375,0.23622438311576843,-0.22693461179733276,0.723933756351471
1772527277611585000,8.0825849609375,0.234053373336792,-0.3058227598667145,0.5362480282783508
1772527277621567000,8.09256689453125,0.1936260610818863,-0.30275627970695496,0.20475797355175018
1772527277631549000,8.102548828125,0.10464052855968475,-0.27861207723617554,-0.23035752773284912
1772527277641532000,8.112531982421874,0.004489944316446781,-0.1751265525817871,-0.6522696018218994
1772527277651514000,8.12251416015625,-0.047988709062337875,0.005433378275483847,-0.9831748604774475
1772527277661495800,8.132495849609375,-0.10890351980924606,0.10255353897809982,-1.185409665107727
