time,seconds_elapsed,z,y,x
1772526339459974700,0.077974609375,-0.19815292060375211,-0.04903934071809053,-0.3252446382954716
1772526339469956600,0.08795654296875,-0.03941664910912514,-0.12112404145896434,-0.2354069117862731
1772526339479938800,0.097938720703125,0.12539806551635266,-0.1701001076824963,-0.1852227849472314
1772526339489921500,0.107921630859375,0.27630525082051755,-0.1437026607528329,-0.18364216469228267
1772526339499903700,0.11790380859375,0.3787707690387964,-0.10102759436964988,-0.17284611845500766
1772526339509885400,0.127885498046875,0.4273170655429363,-0.11571370684802532,-0.16078882011026144
1772526339519868700,0.13786865234375,0.4255208297759294,-0.12438742716908455,-0.15612082829922436
1772526339529850600,0.1478505859375,0.39257308441996575,-0.12351473598778247,-0.2078139714617282
1772526339539833600,0.15783349609375,0.3195809134453535,-0.17080051103681326,-0.29160094656459984
1772526339549815600,0.167815673828125,0.222526898881793,-0.2651762463018298,-0.3624531098358333
1772526339559797800,0.1777978515625,0.061084291037917134,-0.3856660815104842,-0.44027752327248454
1772526339569780500,0.187780517578125,-0.09458382505774497,-0.43889118348062034,-0.5285336066134274
1772526339579762700,0.1977626953125,-0.17765315341055393,-0.4366603556886315,-0.5346671409323811
1772526339589744600,0.20774462890625,-0.15323475146889687,-0.34883301915377374,-0.44129707557857034
1772526339599727600,0.2177275390625,-0.0662660775899887,-0.2378931025788188,-0.2820510279309004
1772526339609709800,0.227709716796875,0.012525135052204131,-0.13584054907560347,-0.12538944381847977
1772526339619692500,0.237692626953125,0.07922668145000934,-0.02231587670445442,-0.06881174348480999
1772526339629674800,0.2476748046875,0.14505845927596092,0.027756314192712305,-0.01197053337674588
1772526339639656400,0.257656494140625,0.12025661097466946,0.009082593382894992,0.03374861341007054
1772526339649639700,0.2676396484375,0.03626256899237632,0.005844634374976158,0.042302981667779384
1772526339659621600,0.27762158203125,-0.04339548961222171,0.019604279658198356,0.009841777719743549
1772526339669603600,0.287603515625,-0.10218494771122932,0.034413141733407974,-0.003896240253560245
1772526339679586600,0.297586669921875,-0.1480126329064369,0.02034223854392767,0.010214008565619588
1772526339689568800,0.30756884765625,-0.1764215657889843,0.014053952054679393,0.07999277045167982
1772526339699550700,0.31755078125,-0.2096574804365635,0.014801555551588534,0.15150427441447972
1772526339709533700,0.32753369140625,-0.22286299896836279,0.05575637401342392,0.1931300874730572
1772526339719515600,0.337515625,-0.2236725617855787,0.10410627116262912,0.19894651866685598
1772526339729498600,0.34749853515625,-0.17065467282533645,0.1345633687466383,0.1978975210705772
1772526339739480800,0.357480712890625,-0.0609983663201332,0.1294651688247919,0.23400994100254027
1772526339749462500,0.367462646484375,0.05934007771909237,0.11683949600756167,0.24824524097349493
1772526339759445800,0.37744580078125,0.10702303539216518,0.08857289420515298,0.23167408193349837
1772526339769427500,0.387427490234375,0.13515256681144236,0.06513882712572813,0.22165139468889683
1772526339779409700,0.39740966796875,0.1711141070306301,0.03207739226222038,0.22183807636741548
1772526339789392600,0.407392578125,0.19657354245781897,0.0389019775852561,0.1861328855294734
1772526339799374600,0.41737451171875,0.2131681189060211,0.013866612789034843,0.16958317113630472
1772526339809357600,0.427357666015625,0.2097965966463089,-0.025455051513016223,0.1443515896482393
1772526339819339800,0.43733984375,0.19353636671900748,-0.01677811632156372,0.1192031198663637
1772526339829321700,0.44732177734375,0.21545184592902658,0.010956278300285338,0.06836736071817577
1772526339839304700,0.4573046875,0.21429156997799872,-0.0021630232527852056,0.04918006436303258
1772526339849286700,0.46728662109375,0.20349486615359783,-0.01791705722361803,0.0351755044080317
1772526339859268600,0.4772685546875,0.19918109460771083,-0.017934300619363783,0.04147913459688425
1772526339869251800,0.487251953125,0.21038053401410578,-0.010944295601546764,0.04793379062898457
1772526339879233500,0.497233642578125,0.2057178029000759,0.009132277743518352,0.06723587247021495
1772526339889216800,0.507216796875,0.18423837701976298,0.03739186528325081,0.063515098381415
1772526339899198500,0.517198486328125,0.14046177913546562,0.07116261745989322,0.037648178131878374
1772526339909180700,0.5271806640625,0.10842588792741298,0.08052548908889293,0.038425226918980475
1772526339919163600,0.53716357421875,0.08735036667287349,0.07924597067236899,0.059446533768251535
1772526339929145600,0.5471455078125,0.06264905613660812,0.06298223361372947,0.04775887245349586
1772526339939127800,0.5571279296875,0.034688451543450356,0.03458352986425161,0.03805595521517098
1772526339949110800,0.56711083984375,0.037814474609494206,0.04055968166440725,0.03160992088094353
1772526339959092700,0.5770927734375,0.02424479894042015,0.05310936663597822,0.025436419877782463
1772526339969074700,0.58707470703125,0.01621463721990585,0.033850539414584636,0.057432417466863984
1772526339979057700,0.5970576171875,0.05772153660655022,0.04025426897704601,0.08633454069383442
1772526339989039600,0.60703955078125,0.10251461805701255,0.05316372717171907,0.09390782549232243
1772526339999022800,0.61702294921875,0.13460136266946793,0.03861614638119936,0.11358319762535393
1772526340009004500,0.627004638671875,0.16950082661509513,0.009080255295336246,0.12088847913742065
1772526340018986800,0.63698681640625,0.2039484551399946,0.0023582535639405247,0.10442468946203588
1772526340028969700,0.6469697265625,0.22312603381872176,-0.031743045741319656,0.0952023953475058
1772526340038951700,0.65695166015625,0.2669675136327743,-0.0630593905031681,0.07757474952451884
1772526340048933600,0.66693359375,0.24713877756893635,-0.09083645522296428,0.0485679238140583
1772526340058916600,0.67691650390625,0.16322247699797152,-0.12804156576246023,0.04088094950802624
1772526340068898600,0.686898681640625,0.06144260295629501,-0.12798282131254674,0.036592458533868194
1772526340078881800,0.6968818359375,-0.02857084544599056,-0.07159487139731645,0.019487813671678303
1772526340088863500,0.706863525390625,-0.08333879294395447,-0.03747223704308271,0.019352935245633123
1772526340098845700,0.716845703125,-0.13199497956335543,-0.020819792927801607,0.031125352234393357
1772526340108828700,0.72682861328125,-0.12753800015449523,-0.002734101139008999,0.016499080184474588
1772526340118811000,0.736810791015625,-0.1306757136583328,-0.007799275574088096,0.0004770429272204637
1772526340128792800,0.746792724609375,-0.1519260069578886,-0.07388532042205333,0.020245207910239694
1772526340138775800,0.75677587890625,-0.16613514957427977,-0.08538549634069204,0.010213643239438533
1772526340148757800,0.7667578125,-0.16970540927648542,-0.066793316334486,-0.002862403693795204
1772526340158739700,0.77673974609375,-0.17128712550997732,-0.06550239974111319,-0.0011800035648047923
1772526340168723000,0.786722900390625,-0.15224983208477497,-0.04072831622958183,-0.013071516888588666
1772526340178704600,0.79670458984375,-0.0828401957720518,-0.008415361645817757,-0.010108502364531159
1772526340188688000,0.80668798828125,-0.03753390410244465,-0.008088906170427798,0.021434563825279473
1772526340198669600,0.816669677734375,-0.032089667221903796,-0.01683043103069067,0.048881519807875154
1772526340208651800,0.82665185546875,0.006850012025237083,0.016259060883522032,0.03543379001803696
1772526340218634800,0.836634765625,0.07805939123630523,0.05189619145393371,0.029677199252694842
1772526340228616700,0.84661669921875,0.1359568689316511,0.019810031363368032,0.03946450683884323
1772526340238599000,0.856598876953125,0.2044330237865448,0.025277649119496343,0.03345869055278599
1772526340248582000,0.866581787109375,0.22743980536460875,0.021526479892432688,0.0218330616235733
1772526340258563800,0.876563720703125,0.18491642241179942,0.007333119367063045,0.030766090467944738
1772526340268546800,0.886546875,0.1414642341762781,0.019700141248106956,0.05438603550828993
1772526340278528800,0.89652880859375,0.1328466279566288,0.09595452888906002,0.056442602711915965
1772526340288510700,0.9065107421875,0.14839607926607132,0.11832798099964856,0.0936631300162524
1772526340298494000,0.916493896484375,0.17490706957280636,0.1155009408801794,0.11686959888488054
1772526340308475600,0.9264755859375,0.2109890213012695,0.1187359772786498,0.11147891882248222
1772526340318457900,0.936457763671875,0.21268238121569155,0.11361848813444375,0.0909413038369268
1772526340328440600,0.946440673828125,0.22846271867156026,0.08765840970873832,0.056554903979972
1772526340338422800,0.9564228515625,0.24453590159416197,0.06303688641041517,0.02564472886621952
1772526340348405000,0.966405029296875,0.22394904063940047,0.02478109777420759,-0.00047426644824445245
1772526340358387700,0.9763876953125,0.15976970619559286,-0.03590221124738455,-0.015687179279699922
1772526340368370000,0.986369873046875,0.04486790025234222,-0.06792699653953313,-0.03992233360894024
1772526340378353000,0.996352783203125,-0.044341830551624294,-0.04638385777324438,-0.05121463893055916
1772526340388334800,1.0063349609375,-0.09789981773793696,0.002311491812765598,-0.04911920102126896
1772526340398316800,1.01631689453125,-0.10408581289649009,0.032281098140776156,-0.039089974438026545
1772526340408299800,1.0262998046875,-0.10087269606888294,0.01434299812912941,-0.019252762806788087
1772526340418281700,1.03628173828125,-0.10158931990563869,-0.002629179459810257,-0.004057166436314583
1772526340428263700,1.046263671875,-0.1131868187189102,-0.03150105367898941,-0.034768238781392576
1772526340438246700,1.05624658203125,-0.12710077778100967,-0.059815878537297244,-0.07091843344047666
1772526340448228900,1.066228759765625,-0.13710954609811304,-0.07777326777130365,-0.08203983917459845
1772526340458210800,1.0762109375,-0.15332710592746734,-0.07180822188705205,-0.08503449094593525
1772526340468193800,1.08619384765625,-0.14222586619853972,-0.06187222654521465,-0.07801957068257033
1772526340478176000,1.096176025390625,-0.13061609242558478,-0.06568418604880571,-0.07236468672603369
1772526340488158700,1.10615869140625,-0.09829612357914447,-0.05804243912398815,-0.07835508624725043
1772526340498141000,1.116140869140625,-0.054827568730711936,-0.04049129260331392,-0.09454035124219953
1772526340508122600,1.12612255859375,-0.0014250643670558928,-0.0397384284093976,-0.08463577395193278
1772526340518105900,1.13610595703125,0.029828736552596092,-0.013333528825640678,-0.09047872782647609
1772526340528087800,1.146087890625,0.055680970689654344,0.011400514936447143,-0.06769304165318608
1772526340538069800,1.15606982421875,0.0978548095524311,0.04188128565698862,-0.044312531391903755
1772526340548052700,1.166052734375,0.15202829828858375,0.08030015590041875,-0.03102795627452433
1772526340558034700,1.17603466796875,0.2088461640536785,0.07818155631124973,-0.008860109738633036
1772526340568017700,1.186017578125,0.24068097973167896,0.0643251726552844,0.006357113941758871
1772526340578000000,1.195999755859375,0.275811914345622,0.05443973845690488,-0.013849588588997722
1772526340587981800,1.20598193359375,0.27497955517470835,0.0388756741002202,-0.03190042826011777
1772526340597964800,1.21596484375,0.23073826238811015,0.038297874212265014,-0.03469005897864699
1772526340607946800,1.22594677734375,0.15303952115774153,0.05689034647941589,-0.016872589671984312
1772526340617928700,1.2359287109375,0.08384849603176116,0.10619330656975508,0.02054857477098703
1772526340627911700,1.24591162109375,0.017122984236478806,0.18045710491538047,0.04334653590396046
1772526340637893600,1.2558935546875,0.0040320319950580595,0.23441958124935625,0.06009688743576407
1772526340647875800,1.265875732421875,0.011243863070011139,0.24903613562285898,0.07686009844914078
1772526340657858800,1.27585888671875,0.044161213287711144,0.20709552099406717,0.06532375523857772
1772526340667840800,1.2858408203125,0.07674597055017948,0.14417904609292745,0.034352351456880564
1772526340677823700,1.29582373046875,0.10764788929224013,0.08611381061524152,0.010956059104576706
1772526340687806000,1.305805908203125,0.12848258752822875,0.07099895133078098,0.023449483844265342
1772526340697787600,1.31578759765625,0.13980653009712696,0.09071399788707495,0.05834704809375107
1772526340707771000,1.32577099609375,0.1481651931196451,0.10903583651930093,0.08272709078639745
1772526340717752600,1.335752685546875,0.14659867445528507,0.1311412853434682,0.09240421599633991
1772526340727734800,1.34573486328125,0.12378946127593517,0.14343524198830127,0.07136332766376435
1772526340737717800,1.3557177734375,0.09304302535653114,0.11619535288512706,0.023771409275010227
1772526340747699700,1.36569970703125,0.06064706866443157,0.07756956189274787,-0.011933379704132675
1772526340757682700,1.3756826171875,0.04412731101810932,0.06538257275372743,-0.03147116999737918
1772526340767664600,1.38566455078125,0.042619829064607616,0.042808045113086696,-0.02602934426963329
1772526340777646800,1.395646728515625,0.020340192717313764,0.029954993280768394,-0.01375007373727858
1772526340787629800,1.4056298828125,-0.014903554621338843,0.05380787029415369,-0.03196216838471591
1772526340797611800,1.41561181640625,-0.056658875811100004,0.05784545524716377,-0.05788995197601616
1772526340807593700,1.42559375,-0.07058510983288288,0.033254619348049165,-0.0609463438719511
1772526340817577000,1.435576904296875,-0.04471709360480308,0.00957856020629406,-0.06780695035643876
1772526340827558700,1.44555859375,-0.0014034370571374892,-0.013542787662148476,-0.08437701341789215
1772526340837540900,1.455540771484375,0.030913024657964704,-0.047775019870698446,-0.11146299060098826
1772526340847523600,1.465523681640625,0.04451718711853027,-0.08855126689523458,-0.14070789938364178
1772526340857505800,1.475505859375,0.033787703311443325,-0.1277437518596649,-0.16733312718719243
1772526340867488800,1.48548876953125,-0.016025836649537085,-0.16207915218174457,-0.17194157083071768
1772526340877470700,1.495470703125,-0.06444470738172531,-0.18374211793541906,-0.16629505284372717
1772526340887453000,1.505452880859375,-0.07315583710372447,-0.15127309600710867,-0.15269052505698055
1772526340897435600,1.515435546875,-0.060168345236778255,-0.10963146432489156,-0.12787556154578925
1772526340907417900,1.52541796875,-0.031710312515497205,-0.09192220463305711,-0.06600227555464953
1772526340917399800,1.53539990234375,0.0001426233410835266,-0.08341098139733076,-0.01730064235832542
1772526340927382800,1.5453828125,-0.018624036449193953,-0.09260200359076261,-0.013006561893597245
1772526340937364700,1.55536474609375,-0.054501990038156506,-0.09437222813367843,-0.04720368625614792
1772526340947346700,1.5653466796875,-0.052636196166276926,-0.07971008105278014,-0.0782657639959827
1772526340957329700,1.57532958984375,-0.010191723668575287,-0.06718290017396211,-0.06628171355053782
1772526340967312000,1.585311767578125,0.05044248551428318,-0.054228433793783185,-0.022627792197838423
1772526340977294600,1.595294677734375,0.08646013983488082,-0.006346738678216934,0.010828012278117239
1772526340987276800,1.60527685546875,0.1102548569202423,0.035951311086118216,0.029624226956441995
1772526340997258800,1.6152587890625,0.08588613933920859,0.05496756172329187,0.03605279869921505
1772526341007241700,1.62524169921875,0.04942717099189758,0.06707534814625978,0.028387853561900555
1772526341017224000,1.635223876953125,0.015740005445480345,0.0769087598964572,0.04227364597544074
1772526341027205600,1.64520556640625,-0.014434183543920516,0.08664689457863568,0.060123702377453445
1772526341037188900,1.65518896484375,-0.029814708027243612,0.10271715489178895,0.07043755458835511
1772526341047170800,1.6651708984375,-0.021074352210760115,0.14124182359725235,0.06596322218589484
1772526341057153800,1.67515380859375,0.050254269465804094,0.1501803323343396,0.050425095988065
1772526341067135700,1.6851357421875,0.10669219600260257,0.12413520597368478,0.08931242399346083
1772526341077117700,1.69511767578125,0.1258715282469988,0.13669453555643557,0.11149985201265662
1772526341087100700,1.7051005859375,0.1104290444433689,0.1508534092903137,0.07965688956081866
1772526341097083000,1.715082763671875,0.0764139621168375,0.14139233798384665,0.05256199841890484
1772526341107064800,1.72506494140625,0.08745207348167895,0.14642156432271003,-0.004245492082647979
1772526341117047800,1.7350478515625,0.162082074791193,0.10685527760982513,0.0002763692559674382
1772526341127029800,1.74502978515625,0.1691664800941944,0.047402387166023255,0.033577933018282054
1772526341137011700,1.75501171875,0.2376806288719177,0.03536328206509352,0.025710158785246313
1772526341146995000,1.764994873046875,0.2657762580215931,0.041754736667871474,0.015273447379656135
1772526341156976600,1.7749765625,0.21669453946650027,0.04406272134929895,-0.010071275626681744
1772526341166959900,1.7849599609375,0.14505553666651247,0.06083937636613845,-0.016474712928198278
1772526341176941800,1.79494189453125,0.06701718821823596,0.06359218220561742,-0.04304020990114659
1772526341186923800,1.804923828125,0.018777765706181525,0.06099602823257446,-0.05317275072839111
1772526341196906800,1.81490673828125,0.006920154651999473,0.041411330057680606,-0.04535268809460103
1772526341206888700,1.824888671875,-0.013710545444488525,0.0036968086913228035,-0.06742799750883131
1772526341216871000,1.834870849609375,-0.0228004453510046,-0.01566489438265562,-0.09259710821993648
1772526341226854000,1.84485400390625,-0.008387889117002487,-0.04810878186970949,-0.1200793912442401
1772526341236835800,1.8548359375,0.0011252046376466751,-0.09631079498082398,-0.11880023815389722
1772526341246817800,1.86481787109375,0.023254034337401388,-0.10253098466992377,-0.1155576760360971
1772526341256800800,1.87480078125,0.041945875325798986,-0.08369184416532516,-0.10667323557380587
1772526341266782700,1.88478271484375,0.04434416863918304,-0.08039046453237533,-0.08238214980624615
1772526341276765700,1.894765625,0.061350833019614213,-0.07323591660261154,-0.06597465689536183
1772526341286747600,1.90474755859375,0.07685469162166118,-0.06559884585291147,-0.06855320214647799
1772526341296729900,1.914729736328125,0.02609130358994007,-0.09677490536123513,-0.07200776304714382
1772526341306712800,1.924712890625,-0.017079729616641996,-0.08120996422171592,-0.10236899904124439
1772526341316694800,1.93469482421875,-0.028376784178614615,-0.0633794162377715,-0.10689729012064635
1772526341326676700,1.9446767578125,-0.010072481203079223,-0.04300532125085592,-0.07344999774470926
1772526341336659700,1.95465966796875,0.029849779340624806,-0.03467471527904272,-0.009265475669130682
1772526341346641700,1.9646416015625,0.04535948316156864,0.006430909830331802,0.03472750491220504
1772526341356624000,1.974623779296875,0.020109306570887563,0.05919423950761556,0.057362347905337806
1772526341366606600,1.984606689453125,-0.00765314510166645,0.0896896232753992,0.07698430935069918
1772526341376588800,1.9945888671875,-0.03976736224293709,0.1060483451411128,0.10349665136430412
1772526341386571800,2.00457177734375,-0.07415829214453697,0.10439970115125179,0.12148538558464497
1772526341396553700,2.0145537109375,-0.11739420728087424,0.10571925931721925,0.1103432658560574
1772526341406536000,2.024535888671875,-0.11308452738821506,0.12789192815870046,0.08099591961223632
1772526341416518700,2.0345185546875,-0.050632455128431314,0.11346797374784946,0.08320687365997582
1772526341426500900,2.0445009765625,0.030924715095758438,0.0890799669444561,0.08539123196173459
1772526341436482600,2.054482666015625,0.09380874903202056,0.06593319237381219,0.0844718520944938
1772526341446465800,2.0644658203125,0.13525252005457877,0.0422045262619853,0.07226520840693265
1772526341456447700,2.07444775390625,0.15728665720820426,0.024786650732159615,0.04140413313191384
1772526341466430700,2.0844306640625,0.13882745593190193,0.007023907287418842,0.03126322633512318
1772526341476412700,2.09441259765625,0.12460896096527575,-0.03256488351821899,-0.008501578624546527
1772526341486395000,2.104394775390625,0.08807458929419518,-0.04951835640668869,-0.04645063939914107
1772526341496377600,2.114377685546875,0.08217676342725753,-0.05164718512892723,-0.05019464823305607
1772526341506359800,2.12435986328125,0.10012333900630474,-0.05416881256103515,-0.0526380227971822
1772526341516341800,2.134341796875,0.08885492601692677,-0.059632338663935656,-0.05946662670820951
1772526341526324700,2.14432470703125,0.0613514175415039,-0.05865034188926219,-0.09160499191004783
1772526341536307000,2.154306884765625,0.01626665966808796,-0.06485650305300951,-0.11454561291672288
1772526341546288600,2.16428857421875,-0.05090367328524589,-0.06552899548709393,-0.08513327514529227
1772526341556271900,2.17427197265625,-0.12179507258832455,-0.048723698897659776,-0.07434037071317434
1772526341566253600,2.184253662109375,-0.18722469935417174,-0.009072071988880635,-0.061612370032630856
1772526341576236800,2.19423681640625,-0.21250468656122684,0.02142740343213081,-0.054753297918103634
1772526341586218800,2.20421875,-0.1838759734481573,0.02962123128175735,-0.030908713809028265
1772526341596200700,2.21420068359375,-0.1371761815935373,0.01400222186744213,-0.017914207679405807
1772526341606183700,2.22418359375,-0.07090601235032082,-0.016717326045036316,-0.04714344396889209
1772526341616166000,2.234165771484375,-0.04546469710171223,-0.011450491558015346,-0.08851393055953084
1772526341626147800,2.24414794921875,-0.014526538002490997,-0.009376023371517658,-0.08373086100146174
1772526341636130800,2.254130859375,-0.02859656440913677,-0.006382394513487815,-0.054416576777026056
1772526341646112800,2.26411279296875,-0.025007600006461142,0.006588438479602336,-0.01020626365058124
1772526341656094700,2.2740947265625,-0.017061609438061714,0.050392801153659815,0.017441512133739887
1772526341666078000,2.284077880859375,-0.0004173486292362213,0.055234103704988956,0.042402898378297686
1772526341676059600,2.2940595703125,0.02380114682614803,0.028504794472455977,0.059826874855346976
1772526341686043000,2.30404296875,0.07098609184920787,0.009179916277527808,0.07352828714530915
1772526341696024600,2.314024658203125,0.08878010721504688,-0.010023673625290393,0.07273300858177244
1772526341706006800,2.3240068359375,0.06731587890386581,-0.017409107701480388,0.0680266940543428
1772526341715989800,2.33398974609375,0.044369303080439564,0.03357669090926647,0.04399382083155214
1772526341725971700,2.3439716796875,0.030076573833823204,0.08812485817670822,0.029301059416681527
1772526341735954000,2.353953857421875,0.0039484453648328775,0.05794979240447282,0.052514980939403176
1772526341745937000,2.36393701171875,-0.004005143988132477,0.049504620142281054,0.05755845499932766
1772526341755918800,2.3739189453125,0.0033685996502637863,0.04841390229612589,0.07210055589713156
1772526341765901800,2.38390185546875,-0.014752163451910019,0.03297755597233772,0.0899103533539921
1772526341775883800,2.3938837890625,0.01752104364335537,0.058816346105933184,0.05439261137954891
1772526341785865700,2.40386572265625,0.08356967909038067,0.06759644941091537,0.034222879858314986
1772526341795849000,2.413848876953125,0.15574878011643886,0.04881313074678182,0.04878704645745456
1772526341805830700,2.42383056640625,0.21442717905640601,0.013906944799423218,0.06934701940529048
1772526341815812900,2.433812744140625,0.2839268317401409,0.044810324846208095,0.052586292609944935
1772526341825795800,2.4437958984375,0.33867022931873797,0.05692395648807287,0.049559930526092644
1772526341835777800,2.45377783203125,0.3539227435082197,0.04183978460282087,0.05815517878346145
1772526341845759700,2.463759765625,0.3411187915146351,0.028871581958234308,0.04054360731244087
1772526341855742700,2.47374267578125,0.2826116574883461,0.012536240968108176,0.0019102906007319688
1772526341865725000,2.483724853515625,0.18358488154709338,0.0061804422006011,-0.03127528209909797
1772526341875708000,2.4937080078125,0.11291150890886784,0.03326017230600119,-0.03309847893826663
1772526341885689900,2.50368994140625,0.08763093717992305,0.05629267284721136,-0.02128974852710962
1772526341895671800,2.513671875,0.07676409072875977,0.07345598909407854,0.008804214832931756
1772526341905654800,2.52365478515625,0.08736088806688785,0.0945285877391696,0.03875584711283445
1772526341915636700,2.53363671875,0.11836276005208492,0.12348404858857392,0.048502457362413404
1772526341925619000,2.543618896484375,0.15859072554409503,0.13068857313990592,0.04162402296029031
1772526341935601700,2.5536015625,0.17394845367372036,0.11932926699668168,0.02755253524892032
1772526341945583900,2.563583984375,0.11144728157520294,0.0847352157384157,0.01551854471452534
1772526341955565600,2.573565673828125,0.025142040041089057,0.061649231444299214,-0.02497647421583533
1772526341965548800,2.583548828125,-0.04690437451601028,0.05656506004780531,-0.057335167637467384
1772526341975530800,2.59353076171875,-0.06308861659765243,0.06322159532755613,-0.06644552581012249
1772526341985513700,2.603513671875,-0.03746902217268944,0.06852788504213095,-0.04576543361395597
1772526341995495700,2.61349560546875,-0.022542671197652814,0.07527911286801099,-0.007403042798116803
1772526342005477600,2.6234775390625,-0.008790040177106856,0.07030775419622659,0.016582301488518712
1772526342015460600,2.633460693359375,-0.010799626433849335,0.049424832904338835,0.014807693031430244
1772526342025442800,2.64344287109375,-0.019147183540463446,0.018217501474916933,-0.016749182488024233
1772526342035424800,2.6534248046875,-0.018010872986912726,-0.014371931962668895,-0.02327273903787136
1772526342045407700,2.66340771484375,-0.03326747882962227,-0.04775280803889036,-0.028304303464293478
1772526342055390000,2.673389892578125,-0.009394435811042785,-0.043644788198173044,-0.05308605882562697
1772526342065372700,2.68337255859375,-0.029585575446486472,-0.038703824664652345,-0.06371449341103434
1772526342075355000,2.69335498046875,-0.062357379713654515,-0.05683920081406831,-0.06625131841227412
1772526342085336600,2.703336669921875,-0.05069967514574528,-0.08014847247004508,-0.06349529770240188
1772526342095319800,2.71331982421875,-0.04751227728128433,-0.08003010678738355,-0.05149966641701757
1772526342105301800,2.7233017578125,-0.011741291198134421,-0.06177811852097511,-0.059528366832807655
1772526342115283700,2.73328369140625,0.04171031300425529,-0.03161328188180923,-0.06278400762788951
1772526342125266700,2.7432666015625,0.0780827721118927,-0.03170008338242769,-0.05309015047885477
1772526342135249000,2.753248779296875,0.07166179915368556,-0.035895196984708305,-0.02250117014348507
1772526342145230800,2.76323095703125,0.05011866038739681,-0.0032502339676022526,-0.008985416618734598
1772526342155213800,2.7732138671875,0.006876315510272979,0.024618308427929878,0.005555880561470985
1772526342165195800,2.78319580078125,-0.027374329137802123,0.024096330380439755,0.01605272465646267
1772526342175178800,2.7931787109375,-0.006937105786800384,0.031065877132117746,0.022916911337524652
1772526342185161000,2.803160888671875,0.04252104486525059,0.04803747019916772,0.0080268007196486
1772526342195142700,2.813142578125,0.07496551687419414,0.056251756314933295,-0.0021961218047887084
1772526342205126000,2.8231259765625,0.11449497870802879,0.060445993134379386,0.01580159943960607
1772526342215107800,2.83310791015625,0.14166238709688186,0.049473055960237974,0.027845819107070565
1772526342225089800,2.84308984375,0.14636369665563106,0.04322364017665386,0.02456533613167703
1772526342235072800,2.85307275390625,0.12774141377210615,0.0433285618558526,0.04114091561846435
1772526342245054700,2.8630546875,0.11390753420889377,0.032471067754924296,0.05937631807625293
1772526342255037000,2.873036865234375,0.1195008241713047,0.029869653084874152,0.07078676988482475
1772526342265020000,2.88302001953125,0.11152385394275188,0.01489887844622135,0.05792210067994892
1772526342275001900,2.893001953125,0.11330547666251659,0.0012920856371521948,0.006431859678402542
1772526342284984800,2.90298486328125,0.10928104345202445,-0.0017629180192947386,-0.02017630739249289
1772526342294966800,2.912966796875,0.0659311465471983,-0.02316255666166544,-0.010011398665606975
1772526342304948700,2.92294873046875,-0.005992518413066863,-0.025266835464537143,0.00909662190824747
1772526342314932000,2.932931884765625,-0.06936287456154823,0.01910392892062664,-0.005115808643773197
1772526342324913700,2.94291357421875,-0.1028174003958702,0.05479980394095182,0.001228811142593622
1772526342334895900,2.952895751953125,-0.10467150382995605,0.0522539188504219,0.014401158057153224
1772526342344878800,2.96287890625,-0.1031967551022768,0.021390286292135713,0.010956862822175025
1772526342354860800,2.97286083984375,-0.08608078512847422,-0.0011576456025242806,-0.02177607073932886
1772526342364843000,2.982843017578125,-0.043322424376010894,-0.02272241167873144,-0.03681421152576804
1772526342374825700,2.99282568359375,0.0021352584630250928,-0.05820932012349367,-0.016007205014303326
1772526342384808000,3.002807861328125,0.04576397230923176,-0.054740767230093475,0.01240085108540952
1772526342394791000,3.012791015625,0.05733692120313644,-0.050347208446264266,0.009856135038658976
1772526342404772900,3.02277294921875,0.04697510166466236,-0.042915889401733874,-0.024358196187019347
1772526342414754800,3.0327548828125,0.0123608844012022,-0.04470364960134029,-0.05222776149585843
1772526342424738000,3.042738037109375,-0.013684826481342316,-0.04800210662484169,-0.06066226623356342
1772526342434719700,3.0527197265625,-0.060928223693370816,-0.050773032642900943,-0.06609685850292443
1772526342444702000,3.062701904296875,-0.07111936284005642,-0.036837738531827924,-0.06025799628160894
1772526342454684700,3.0726845703125,-0.0027530981004238128,-0.024033202016353606,-0.03358304758481681
1772526342464667000,3.0826669921875,0.07016600763797759,-0.00982289035618305,-0.001542261005938053
1772526342474649900,3.09264990234375,0.12960954573154448,0.007852174805104733,0.018328560633957384
1772526342484631800,3.1026318359375,0.14570318692028522,0.0032695231899619102,0.011548764300718902
1772526342494613800,3.11261376953125,0.13123217849731444,-0.00481149193495512,-0.012091931266710161
1772526342504596700,3.1225966796875,0.10773732114136218,-0.011079612419009208,-0.020718305314704775
1772526342514579000,3.132578857421875,0.0966565396785736,-0.012292787601053713,-0.03316087664999068
1772526342524561000,3.142560791015625,0.10506313349604605,-0.0014130816683173178,-0.04103628620021045
1772526342534544000,3.1525439453125,0.1126554883211851,-0.0009223755419254302,-0.025572321217134594
1772526342544525800,3.16252587890625,0.1134925236672163,0.023536066149175167,-0.017211831563711165
1772526342554507800,3.1725078125,0.1275005907535553,0.02083148336559534,-0.011568711110204457
1772526342564490800,3.18249072265625,0.13563655093610286,0.01978226657360792,0.0007821998862549662
1772526342574473000,3.192472900390625,0.13380875098705292,0.008557400465011597,0.010024988799542188
1772526342584455700,3.20245556640625,0.12123100896477698,0.004737257654964923,0.0040841640410944815
1772526342594438000,3.21243798828125,0.09010872547030449,0.011086918942630291,0.003091682405024767
1772526342604419600,3.222419677734375,0.029986557462811467,-0.006303191797435283,-0.005937938681617379
1772526342614402800,3.23240283203125,0.002515197691321373,0.018792671014368535,-0.012830840000510215
1772526342624384800,3.242384765625,-0.021267244434356687,0.028388474616408345,-0.004527816155366599
1772526342634366700,3.25236669921875,0.0022030630022287366,0.021381226202845573,0.0018100085640326141
1772526342644349700,3.262349609375,0.025704934620857236,0.025353344704210756,0.008989069880545139
1772526342654332000,3.272331787109375,0.06236147136688232,0.007861234894394874,0.040022725243493915
1772526342664314600,3.282314697265625,0.07145663197040557,-0.014839549474418163,0.05493585141077637
1772526342674296800,3.292296875,0.05828676927387714,-0.004889817868173122,0.03665587915889919
1772526342684278800,3.30227880859375,0.05156652110815048,0.02389963876456022,0.0008323226382955908
1772526342694261800,3.31226171875,0.07062485732138156,0.01559913567006588,0.0006000117197632789
1772526342704244000,3.322243896484375,0.05500584790706634,-0.033410978953540324,0.008656696121022104
1772526342714225700,3.3322255859375,0.07509761882126331,-0.005868015250563621,0.014615787188522517
1772526342724209000,3.342208984375,0.04450666572451591,-0.003980009546875953,-0.0046058863602578635
1772526342734190600,3.352190673828125,-0.003681318861246109,-0.026421266196668146,-0.0006246347043663263
1772526342744172800,3.3621728515625,-0.0019990648627281186,-0.010661094745993614,-0.011242109504342079
1772526342754155800,3.37215576171875,0.00921381854712963,-0.0026420389413833617,-0.0021065438251942395
1772526342764137700,3.3821376953125,0.02388181084692478,0.003189151430130005,-0.00664510057028383
1772526342774120700,3.39212060546875,0.04865969375073909,0.021276012262701986,-0.029021694486029443
1772526342784103000,3.40210302734375,0.04042319580316543,0.0010474632263183592,-0.03840433026142418
1772526342794084900,3.4120849609375,0.04615326388776302,-0.0256412217348814,-0.0659062678342685
1772526342804067800,3.42206787109375,0.06185176827907562,-0.028280922588706014,-0.08534867146164178
1772526342814049800,3.4320498046875,0.07348258484005928,-0.024118834473192692,-0.05624941822737455
1772526342824031700,3.44203173828125,0.11371639555096626,-0.007923486475646495,-0.004717749236896634
1772526342834015000,3.452014892578125,0.14798808298707009,0.002567512400448322,0.0215670676311478
1772526342843996700,3.46199658203125,0.17041794146001338,-0.0016790391281247138,0.019404848095960915
1772526342853979000,3.471978759765625,0.2101011325508356,-0.012006371875107287,-0.007588226639293134
1772526342863961900,3.4819619140625,0.1920458359003067,-0.0231271930873394,-0.018154373110830783
1772526342873943800,3.49194384765625,0.12425064904689788,-0.028764906713366508,-0.04502539236899465
1772526342883926800,3.5019267578125,0.03658990125060081,-0.014323124384880065,-0.0623896745480597
1772526342893908700,3.51190869140625,-0.056306409111618994,0.001148293252289295,-0.06269271261524409
1772526342903891000,3.521890869140625,-0.12283084537684917,0.012283142989873885,-0.0479407683590427
1772526342913874000,3.5318740234375,-0.12677812169790267,0.027202187441289424,-0.02840104183703661
1772526342923856000,3.54185595703125,-0.10558452702164649,0.038061727368831635,0.0011083631007000802
1772526342933837800,3.551837890625,-0.05397650485932827,0.025032734447717666,-0.0043580125464126465
1772526342943820800,3.56182080078125,0.00544715948998928,0.008060849119722843,-0.02124342516735196
1772526342953802800,3.571802734375,0.056742462441325185,-0.012623042468726635,-0.029417561935819684
1772526342963786000,3.581785888671875,0.09836042098700999,-0.04587327790260315,-0.03958093629274517
1772526342973767700,3.591767578125,0.12815233266055584,-0.07337386376857757,-0.016346373840793967
1772526342983750000,3.60175,0.07219020694196224,-0.09595862054228782,0.016348529265262184
1772526342993732900,3.61173291015625,0.021087796214222906,-0.05322597875297069,-0.015779899064451455
1772526343003714800,3.62171484375,-0.02291150451004505,0.010029226583242417,-0.058508631863631304
1772526343013697000,3.631697021484375,-0.042541503131389616,-0.03217763776630163,-0.032981063103675844
1772526343023679700,3.6416796875,-0.025934651723504065,-0.03145692227631807,-0.019331892457604406
1772526343033662000,3.651661865234375,-0.008819850793480872,-0.028641864855587482,-0.0036962241694331165
1772526343043643600,3.6616435546875,0.03553659280538559,-0.022402678205072878,-0.005201148839667439
1772526343053627000,3.671626953125,0.08201835799515247,-0.015638590897619722,-0.0027115239810198543
1772526343063608800,3.68160888671875,0.11174831034839153,-0.021507775191962716,0.008130188028886914
1772526343073591800,3.691591796875,0.09586743512749671,-0.011257014812529087,0.0008887655332684517
1772526343083573800,3.70157373046875,0.07468027019202708,-0.0009594926819205283,-0.022063947769999502
1772526343093555200,3.71155517578125,0.06896539967656135,0.016090718579292295,-0.02689399827495217
1772526343103538200,3.7215380859375,0.06893325097262859,0.031629648494720455,-0.032722192971780896
1772526343113520400,3.731520263671875,0.08484627489745616,0.02537672557979822,-0.039230917278677224
1772526343123502300,3.74150244140625,0.09799100315272807,0.014991232904791832,-0.032500366914644835
1772526343133485300,3.7514853515625,0.0879039089024067,0.014614216285943985,-0.013935440241545438
1772526343143467500,3.761467529296875,0.052476621690392494,0.018671382722258566,-0.007998743668943643
1772526343153449200,3.77144921875,0.013813421297073364,0.03812193312346935,-0.007360299634933471
1772526343163432400,3.781432373046875,0.007929039433598517,0.05254325718581676,-0.01989602914638817
1772526343173414100,3.7914140625,0.017828502157330513,0.029333938772976395,-0.008706380481645465
1772526343183397400,3.8013974609375,0.051747138372063635,0.018164017722010612,-0.014691153979673981
1772526343193379300,3.81137939453125,0.10129121374189853,0.005049100083112716,-0.005390753127634525
1772526343203361300,3.821361328125,0.1312912152081728,0.000012567220628261566,-0.002545812025293708
1772526343213344300,3.83134423828125,0.13530980319976807,-0.012879063056409358,-0.015315277227386832
1772526343223326200,3.841326171875,0.11147767671346664,-0.009169979405403136,-0.02027384948283434
1772526343233308400,3.851308349609375,0.07512450682818889,-0.0015709025785326956,-0.023212825544178483
1772526343243291400,3.86129150390625,0.046342648980021474,0.007490940277278423,-0.04648227664642036
1772526343253273300,3.8712734375,0.02329144373834133,-0.005028934077918529,-0.050477922153845424
1772526343263255300,3.88125537109375,0.032066870868206025,0.007487725406885147,-0.04809774901904165
1772526343273238500,3.891238525390625,0.07249357380270957,0.0006862286984920501,-0.018029139295965432
1772526343283220200,3.90122021484375,0.12757131790220735,0.020443068569898606,-0.0006781915225088596
1772526343293203500,3.911203369140625,0.16357845082879066,0.061144789053499696,0.014756693496555088
1772526343303185200,3.92118505859375,0.1687877099096775,0.06365384926497936,0.031381738148257135
1772526343313167400,3.93116748046875,0.12814999457299708,0.06797083568125963,0.05459675564952195
1772526343323150300,3.941150390625,0.08759586586654186,0.06571984188407659,0.06882409150972962
1772526343333132300,3.95113232421875,0.08396247780025005,0.08495207335948944,0.07591594946682453
1772526343343114500,3.961114501953125,0.10828326458632945,0.0971487071096897,0.07557400416135787
1772526343353097200,3.97109716796875,0.13759937544167042,0.11935936987400055,0.09261530146375298
1772526343363079400,3.981079345703125,0.17698153775930403,0.13226619772017,0.11378032763265072
1772526343373061400,3.991061279296875,0.1870434975683689,0.12844956204146146,0.11884615965485572
1772526343383044400,4.00104443359375,0.16477379809319972,0.11899550499767064,0.11818163133151828
1772526343393026300,4.0110263671875,0.12655132720470427,0.11272475416511296,0.09964907255806028
1772526343403009500,4.021009521484375,0.12596855888068675,0.10142623829841613,0.07651333083808422
1772526343412991200,4.0309912109375,0.12769348297715186,0.05070844297409057,0.07513042511232197
1772526343422973400,4.040973388671875,0.14947452215254306,0.010177110621333122,0.08905432104654609
1772526343432956200,4.0509560546875,0.16364391728043556,-0.0040378772139549254,0.07747026623673736
1772526343442938400,4.0609384765625,0.12402853072881698,0.0002738485053181648,0.04994293849430978
1772526343452920300,4.07092041015625,0.03998246629834175,0.007057809557020664,0.01907820995748043
1772526343462903300,4.0809033203125,-0.059493806976079935,0.029230770659446716,-0.010783479016646742
1772526343472885200,4.09088525390625,-0.1288771398037672,0.028142098639905452,-0.02733319340981543
1772526343482867200,4.1008671875,-0.17971417759358882,0.023108780647814273,-0.01640095357224345
1772526343492850200,4.11085009765625,-0.1829220337241888,0.001979483379423618,-0.02118117358610034
1772526343502832400,4.120832275390625,-0.16655775890052318,-0.012776479464769362,-0.03466236725412309
1772526343512815400,4.1308154296875,-0.16193302170932292,-0.02785451387017965,-0.043323301158845424
1772526343522797300,4.14079736328125,-0.15454875667691229,-0.042750177446007724,-0.0653567076601088
1772526343532779300,4.150779296875,-0.15207622908353804,-0.07928834850937128,-0.11237674444504081
1772526343542762200,4.16076220703125,-0.14196049326062202,-0.12488543981909751,-0.14655191270411014
1772526343552744400,4.170744384765625,-0.10448562586903572,-0.14850889199078082,-0.16089987926930188
1772526343562726100,4.18072607421875,-0.03494505665302276,-0.15382424179464577,-0.14312201132066546
1772526343572709400,4.19070947265625,0.027990415209531782,-0.12746230456978083,-0.11697459362931549
1772526343582691300,4.20069140625,0.058794134274125096,-0.11644961990714073,-0.10109978282302617
1772526343592673300,4.21067333984375,0.02748947995007038,-0.11235884346216916,-0.11095233766511083
1772526343602656300,4.22065625,0.0077817399173974984,-0.0732768331348896,-0.14489939625672996
1772526343612638200,4.23063818359375,0.005488076022267341,-0.07020283251702784,-0.1440915870051831
1772526343622621200,4.24062109375,0.035085926428437234,-0.0814414348900318,-0.11953311900570988
1772526343632603400,4.250603271484375,0.08493862935602664,-0.06250818636119365,-0.09081512017399072
1772526343642585300,4.26058544921875,0.11712415816783904,-0.04952127901613712,-0.0772227942816913
1772526343652568300,4.270568359375,0.13148586099743842,-0.021730478031933308,-0.05678929725773632
1772526343662550300,4.28055029296875,0.13097031269073486,0.0020738836646080018,-0.019726883124560116
1772526343672532200,4.2905322265625,0.07959259215295314,0.0017743161961436271,0.014854016391187906
1772526343682515500,4.300515380859375,0.030016368079185483,0.03500263205915689,0.02361519579999149
1772526343692497200,4.3104970703125,-0.008247603863477707,0.06126140117049217,0.016390797504410148
1772526343702479400,4.320479248046875,-0.020986089405417442,0.058791503925621505,0.04330729987211525
1772526343712462300,4.33046240234375,0.0003682487905025482,0.06614712738543749,0.05612396521680057
1772526343722444300,4.3404443359375,0.028665537992119787,0.0784817083016038,0.06387976697534323
1772526343732427300,4.35042724609375,0.05474748923182487,0.06847323224544524,0.10228775049857794
1772526343742409200,4.3604091796875,0.05758943465948105,0.06514759495407342,0.12060557054281235
1772526343752391400,4.370391357421875,0.028588965624570844,0.08130231868028641,0.11596965437047183
1772526343762374400,4.38037451171875,0.021818448576331136,0.0747518741235137,0.10244637512639164
1772526343772356400,4.3903564453125,0.020382862815260885,0.05827537109702825,0.09697824591360986
1772526343782338300,4.40033837890625,0.031057401564717292,0.04185118277966976,0.10118395397514104
1772526343792321300,4.4103212890625,0.020133271968364716,0.035194355238974094,0.11504559832811355
1772526343802303200,4.42030322265625,0.0017798691540956495,0.03613514322042465,0.09761654381714761
1772526343812285400,4.430285400390625,-0.015236732098460196,0.05981178688406944,0.06990735670179128
1772526343822268200,4.44026806640625,-0.035222704550623894,0.04160393002033234,0.07467332899458706
1772526343832250400,4.45025048828125,-0.0229834007024765,0.032252164307236666,0.05448898442611098
1772526343842233300,4.4602333984375,0.002590601015090942,0.03102262251228094,0.03278115661740303
1772526343852215300,4.47021533203125,0.03484685697555542,0.025019290444254872,-0.0006165975283831357
1772526343862197500,4.480197509765625,0.05827040266096591,-0.016940905667841434,-0.02306399165801704
1772526343872180200,4.49018017578125,0.06273556537628174,-0.051049511496722697,-0.023311390547826886
1772526343882162400,4.500162353515625,0.04177928658723831,-0.06126110890954733,-0.05875058739334345
1772526343892144000,4.51014404296875,0.025383447581529616,-0.04199263707697391,-0.08884849627614021
1772526343902127400,4.52012744140625,0.011550737062096595,-0.020509996326267717,-0.117035420438461
1772526343912109300,4.530109375,0.012123568513989448,-0.00414659828543663,-0.1361626571694389
1772526343922091300,4.54009130859375,0.006204115337133408,-0.017377835780382156,-0.12853358706310392
1772526343932074200,4.55007421875,0.02646598212122917,-0.044048692823946474,-0.11586509801745414
1772526343942056400,4.560056396484375,0.09033259735405444,-0.013432020764052867,-0.11500760440528392
1772526343952038400,4.570038330078125,0.16072656852900982,0.02264963870346546,-0.10544168448485433
1772526343962021400,4.580021484375,0.2055477070301771,0.03560702769309282,-0.04860599080212414
1772526343972003300,4.59000341796875,0.2161918506413698,0.04041384345293045,-0.019722133884206412
1772526343981986300,4.599986328125,0.18575988749861716,0.05533171886056661,-0.04326346073038876
1772526343991968500,4.609968505859375,0.16780629765689373,0.04814356092214584,-0.057143736718595024
1772526344001950200,4.6199501953125,0.1617161640882492,0.02901362077742815,-0.0618138474214822
1772526344011933400,4.629933349609375,0.1884679774135351,-0.02080050370544195,-0.05116721959225833
1772526344021915100,4.6399150390625,0.2123363442569971,-0.04594955800920725,-0.04410436853393912
1772526344031897300,4.6498974609375,0.24252748438119887,-0.03202273946553468,-0.03719327397122979
1772526344041880300,4.65988037109375,0.2255517996609211,-0.019840134240686893,0.0004768602641299367
1772526344051862300,4.6698623046875,0.1482055251300335,-0.0020639467924833295,0.0342661344781518
1772526344061844200,4.67984423828125,0.04072247101068496,0.044376317343115805,0.04597966088652611
1772526344071827500,4.689827392578125,-0.02694353650510311,0.08912059121578932,0.03269866596572101
1772526344081809400,4.699809326171875,-0.07275134795606136,0.1250333238571882,0.013574315311573446
1772526344091792400,4.70979248046875,-0.08427695057690143,0.10104834489673375,0.02020155143160373
1772526344101775000,4.719775146484375,-0.04500877002775669,0.054286885982751845,0.013783720278553664
1772526344111757000,4.729757080078125,-0.003559738308191299,0.030514672990143297,0.0060251785736531015
1772526344121740000,4.739739990234375,0.02542027246057987,-0.0018660861328244208,0.010190152765996753
1772526344131722200,4.74972216796875,0.028609423890709876,-0.01108604215979576,0.03760181823950261
1772526344141704200,4.7597041015625,0.028426468539237974,0.003466507066786289,0.04934128280673176
1772526344151687200,4.769687255859375,0.004960837277770042,0.014922843843698502,0.0686949852373451
1772526344161669400,4.77966943359375,0.015837620601058006,0.018394027085602283,0.07830470776688307
1772526344171651000,4.789651123046875,0.01764437776207924,0.02103840411454439,0.0471049751220271
1772526344181634300,4.79963427734375,0.012336334481835364,-0.01243628772497177,0.006576565378718078
1772526344191616000,4.809615966796875,0.0039782559812068935,-0.055413844186067575,-0.03451557919457555
1772526344201599200,4.81959912109375,0.007664251017570495,-0.06180968270301818,-0.053252976357750594
1772526344211581200,4.829581298828125,0.029569208833575247,-0.05004764097779989,-0.05212729679606855
1772526344221563100,4.839563232421875,0.03747194478213787,-0.040948973242938516,-0.03433408514782786
1772526344231546000,4.849546142578125,0.020935820522904394,-0.038928281070291997,-0.004854673489555717
1772526344241528000,4.859528076171875,0.0030891981869935986,-0.01640548361688852,0.013865882136672735
1772526344251510000,4.869510009765625,0.0006207622468471527,0.018123393450677393,0.006024228725582361
1772526344261493200,4.8794931640625,0.04457739287316799,0.03498275831490755,0.00853197376281023
1772526344271475200,4.88947509765625,0.09932137497365474,0.02189677450954914,0.00927322058416903
1772526344281457200,4.89945703125,0.13301730834841727,-0.002938099278509617,0.03341974678188562
1772526344291440000,4.909440185546875,0.14046937792003153,0.001664133819937706,0.04664681955836713
1772526344301422000,4.919422119140625,0.11656886237263679,0.021807050399482247,0.06004369594380259
1772526344311404300,4.929404296875,0.09170037857592106,0.05067454070448875,0.07825703270025551
1772526344321387000,4.939386962890625,0.10304302584528922,0.06956891852766275,0.0958943231344223
1772526344331369200,4.949369140625,0.11712532721161842,0.08201806573420763,0.11509236007928847
1772526344341352200,4.959352294921875,0.10744739828407764,0.06914601694047451,0.12076434130109846
1772526344351334100,4.969334228515625,0.09214052355885505,0.07140519404411315,0.11191248793415724
1772526344361316000,4.979316162109375,0.07340601247251033,0.08828326360881328,0.08245959895662963
1772526344371299300,4.98929931640625,0.06573357814848423,0.08000000391006469,0.07792699702829121
1772526344381281000,4.999281005859375,0.026090134546160697,0.06972820074260234,0.0795733759958297
1772526344391263200,5.00926318359375,-0.0199421333104372,0.06755085670351982,0.0658265901941806
1772526344401246000,5.019245849609375,-0.014703063613176345,0.08592033386975527,0.04081942857913673
1772526344411228200,5.029228271484375,0.007525134807825088,0.08296820606589317,0.03131590637043118
1772526344421210000,5.039210205078125,0.011011223357915878,0.0703098000228405,0.03427059145756066
1772526344431193000,5.049193115234375,0.0006692775636911391,0.05994710370153188,0.015181421714648603
1772526344441175300,5.05917529296875,-0.00936287162899971,0.05542553462386131,-0.008691182912513614
1772526344451158000,5.069157958984375,-0.0169271694034338,0.05069821384102106,-0.013763810001686215
1772526344461140200,5.07914013671875,-0.013092121285200119,0.03474485790580511,-0.03313815336152911
1772526344471122200,5.0891220703125,0.006621463966369629,0.05261866050958633,-0.03977802976742387
1772526344481105200,5.099105224609375,0.012767711636424064,0.06817687964737415,-0.054802215093746776
1772526344491087000,5.109087158203125,0.011302899780869484,0.05758592752814293,-0.08161386884748935
1772526344501069000,5.119069091796875,-0.008428805649280547,0.03996317707598209,-0.1155151886012405
1772526344511052000,5.129052001953125,-0.04104980326890945,0.0037272038295865055,-0.12508118158690631
1772526344521034200,5.1390341796875,-0.042378421524167056,-0.020666648192703724,-0.1460107915647328
1772526344531016200,5.14901611328125,0.005968553015589714,-0.020014906285703182,-0.16112323969639836
1772526344540999200,5.158999267578125,0.08400105624496937,-0.01507189692556858,-0.1606286611124873
1772526344550981000,5.168981201171875,0.17383154929578304,-0.0029208558827638624,-0.14078881913274527
1772526344560964000,5.178964111328125,0.22069383823573588,-0.00001432078629732132,-0.11967391571588813
1772526344570946300,5.1889462890625,0.24208733939826488,-0.002657528771460056,-0.10216163990087807
1772526344580928000,5.198927978515625,0.2410229250371456,0.017427520141005515,-0.12247728269882499
1772526344590911200,5.2089111328125,0.19632453613281248,-0.003423836968839168,-0.12005283203087747
1772526344600893200,5.21889306640625,0.1538514220625162,-0.046639293839037414,-0.11197203610166907
1772526344610875100,5.228875244140625,0.12432605237066745,-0.05181494291126728,-0.10168554682172834
1772526344620858000,5.238858154296875,0.09431319142282009,-0.03906564371436834,-0.08659618730470538
1772526344630840000,5.248840087890625,0.07855155866742133,-0.033146482798457146,-0.06109371645338833
1772526344640822300,5.258822265625,0.046669396716356275,-0.0028650340422987936,-0.03453727956973016
1772526344650805200,5.26880517578125,-0.035090602603554726,0.024710370625555513,-0.020782237396389246
1772526344660787200,5.278787109375,-0.1327554425418377,0.058582537350058556,-0.04325637340247631
1772526344670769200,5.28876904296875,-0.23412732030451297,0.05850041202455759,-0.06379851843267678
1772526344680752000,5.298752197265625,-0.26805355530381203,0.06572831745147704,-0.04826375323571264
1772526344690734000,5.308734130859375,-0.29103987861573694,0.05124941798299551,-0.023386063219234345
1772526344700717300,5.31871728515625,-0.2864677483946085,0.04542611865699291,-0.0294237359482795
1772526344710699000,5.328698974609375,-0.2624158416777849,0.021234218947589395,-0.028526129521429536
1772526344720681200,5.33868115234375,-0.2044891378879547,-0.010156360094249249,-0.014783289242535828
1772526344730664200,5.348664306640625,-0.09513502919971942,0.020474340490996838,0.02610547824576497
1772526344740646100,5.358646240234375,-0.05550502960085869,-0.009514847320318221,0.021302681073918937
1772526344750628400,5.36862841796875,-0.03945522755384445,-0.07934475487172603,-0.020746070104464887
1772526344760611000,5.378611083984375,-0.0003542202651500702,-0.07961158911436796,-0.07449497675299643
1772526344770593300,5.38859326171875,0.01685118155777454,-0.07308920160830021,-0.11147446184307336
1772526344780576300,5.398576171875,0.041835400688648224,-0.07467910114824772,-0.12298632819950579
1772526344790558200,5.40855810546875,0.0728454559803009,-0.05627104553729295,-0.11892477784901857
1772526344800540200,5.4185400390625,0.08661679170131682,-0.03515869940370321,-0.10058576888628304
1772526344810523100,5.428523193359375,0.0930447789222002,-0.02574059045612812,-0.062255526774376624
1772526344820505000,5.438505126953125,0.08184241690635681,0.013698270484805106,-0.051285073818266386
1772526344830487300,5.4484873046875,0.07008066744208336,0.04624912547767162,-0.03983165965080261
1772526344840470000,5.458469970703125,0.07990297327637672,0.062008420145511625,-0.023239275159686802
1772526344850452200,5.4684521484375,0.1308154143899679,0.09392214627861976,-0.021830723536014555
1772526344860434200,5.47843408203125,0.1639157199591398,0.08603986859619617,-0.011105112186446785
1772526344870417200,5.488417236328125,0.18184183727204797,0.08366144902706146,0.0006881283946335316
1772526344880399000,5.498399169921875,0.1796376052260399,0.10653992805033921,-0.010513576034083962
1772526344890381000,5.508381103515625,0.1515688640832901,0.12111819624006748,-0.009086100514233112
1772526344900364300,5.5183642578125,0.10512450829446315,0.1266296531379223,-0.013153203822672366
1772526344910346000,5.528345947265625,0.10792962884306907,0.1438221954792738,0.004774667055904865
1772526344920329200,5.5383291015625,0.11831015308201312,0.14722148252874612,0.03387443174682558
1772526344930311200,5.548311279296875,0.10930208624005316,0.1339464058920741,0.057281099362671374
1772526344940293000,5.558293212890625,0.0858159967124462,0.11643822173029184,0.045576779174059626
1772526344950276000,5.568276123046875,0.05002279879748821,0.08184387821108102,0.02007540430128574
1772526344960258300,5.57825830078125,0.028593641799688336,0.04263210402429104,-0.005414426264166832
1772526344970240000,5.588239990234375,-0.006598083090782165,0.011095394510030747,-0.018917028046399356
1772526344980223200,5.59822314453125,-0.006705635118484497,-0.026476211254298686,-0.04678352461531758
1772526344990205000,5.608204833984375,0.00991407577097416,-0.050534547711908816,-0.045459436404705046
1772526345000187100,5.618187255859375,0.03398994788527489,-0.05961947918236255,-0.022269407214224338
1772526345010170000,5.628170166015625,0.03883388078510761,-0.045696167770028114,0.002263268756866455
1772526345020152000,5.638152099609375,0.03961947820484638,-0.04080021242201328,0.023793548041582107
1772526345030135000,5.648135009765625,0.026307576689124104,-0.04049743008315563,0.0034521132152527567
1772526345040117200,5.6581171875,0.001710311049222946,-0.06145896956920623,-0.017250994530320165
1772526345050099200,5.66809912109375,-0.009804770177602767,-0.06438976232409477,-0.03231500041037798
1772526345060082200,5.678082275390625,-0.039161213043332095,-0.062464054958522315,-0.02820749202631414
1772526345070064000,5.688064208984375,-0.07324877608418465,-0.0716322807982564,-0.039042993491142985
1772526345080046000,5.698046142578125,-0.09026303924918175,-0.05814911436885595,-0.03325871100127697
1772526345090029300,5.708029296875,-0.07046586736738682,-0.008368307633697987,-0.0005327186372131109
1772526345100010800,5.7180107421875,-0.049967269217967986,0.02409749942421913,0.037484731198474765
1772526345109992700,5.72799267578125,-0.02255026998221874,0.03291559665203094,0.07085515894591808
1772526345119975700,5.7379755859375,0.028258126235008237,0.05537234313189983,0.05535283471383154
1772526345129957600,5.74795751953125,0.09019114305675029,0.05992547639161348,0.026050240927189588
1772526345139940900,5.75794091796875,0.11377426321804522,0.027228198665380475,0.016337459881976248
1772526345149922600,5.767922607421875,0.10955752230584621,0.01719546495079994,0.0030753888573497533
1772526345159904800,5.77790478515625,0.07430617618262768,0.012241349674761294,0.0002972293809056282
1772526345169887700,5.7878876953125,0.07994096719920635,0.030815117241442203,-0.031911826436966655
1772526345179869700,5.79786962890625,0.06837444804608822,0.028820728553831575,0.03578596445657313
1772526345189851600,5.8078515625,0.06525836185216903,0.020544483117759228,0.060297159248217935
1772526345199834600,5.817834716796875,0.1335211662173271,0.03345686392188072,0.03971175959818065
1772526345209816600,5.827816650390625,0.2159966203302145,0.03738602006435394,0.03863178234174847
1772526345219798800,5.837798828125,0.26943478052914144,0.011743921546638012,0.046327524476125835
1772526345229781500,5.847781494140625,0.2458463996708393,-0.01686608686596155,0.03771203714832663
1772526345239763700,5.857763671875,0.17517361155450342,0.016659750638902186,0.011670271788537502
1772526345249745700,5.86774560546875,0.08141980758011341,0.054472471682727334,0.009600918168574571
1772526345259728600,5.877728759765625,-0.0188093298882246,0.0830061999887228,0.04418583627231419
1772526345269710800,5.8877109375,-0.10714461594521998,0.1065755838856101,0.07680624937005341
1772526345279693600,5.897693603515625,-0.15280278979241846,0.10873159287571907,0.0584181405685842
1772526345289675800,5.90767578125,-0.10438684166967868,0.11844663894325494,0.06545673396848142
1772526345299657500,5.917657470703125,-0.05631225433051586,0.0893999926790595,0.09958141414932906
1772526345309640700,5.927640625,0.009222586375474929,0.05351151769608259,0.0795112705450505
1772526345319622700,5.93762255859375,0.06560089167952537,0.0353618207603693,0.0766319887816906
1772526345329604600,5.9476044921875,0.12822656694054602,0.04403641786426306,0.04158164512328803
1772526345339587600,5.957587646484375,0.18773147983253002,0.025791736121475697,0.0259814865399152
1772526345349569800,5.96756982421875,0.16424539030492305,-0.032116847489774225,-0.00853643074221909
1772526345359551700,5.9775517578125,0.09148527452051639,-0.05207534741312265,-0.06540646508596837
1772526345369534700,5.98753466796875,0.015356559085845947,-0.06239771172404289,-0.09428615728542208
1772526345379516700,5.9975166015625,-0.019203297641873358,-0.03631283787488937,-0.0985224796809256
1772526345389499600,6.007499755859375,0.037573651590943336,0.011418342854082584,-0.08213014780655503
1772526345399481900,6.01748193359375,0.10452654240131377,0.015506196689605713,-0.0581203997310251
1772526345409463600,6.027463623046875,0.15942776089012622,-0.013328560389578342,-0.0032607553616166114
1772526345419446800,6.03744677734375,0.17047288651764392,-0.02539163088798523,0.033079774237796664
1772526345429428500,6.047428466796875,0.17997955053150652,0.013583411933481693,0.06636033174470067
1772526345439410700,6.05741064453125,0.11823241167068481,0.051822833956778044,0.14463475397117434
1772526345449393700,6.0673935546875,0.02257248181402683,0.05051642753332853,0.1241892742484808
1772526345459375600,6.077375732421875,-0.04488368234336376,0.043289106628298754,0.059013804906792935
1772526345469357800,6.08735791015625,-0.02480067925751209,0.03984861078560352,-0.0076798139128834006
1772526345479340800,6.0973408203125,0.059060676255822175,0.019900924517214296,-0.013646869091130793
1772526345489322800,6.10732275390625,0.11768120752871036,-0.03507803538292646,0.0029810616374015804
1772526345499305700,6.1173056640625,0.16435352685451507,-0.047347442108392715,-0.010841164020635187
1772526345509287700,6.12728759765625,0.1288952599823475,-0.05681260506808757,-0.014132351053133606
1772526345519269600,6.13726953125,0.04835106619298458,-0.07700783635675906,-0.02414082710929215
1772526345529252900,6.1472529296875,-0.039382162317633626,-0.07761924625337123,-0.0162055040653795
1772526345539234600,6.157234619140625,-0.08675240077972411,-0.05967267067432403,-0.0036256431512534616
1772526345549216800,6.167216796875,-0.07858955259025097,-0.05638794991523027,0.02175462609250098
1772526345559199700,6.17719970703125,-0.05299509260654449,-0.08244768932312727,0.04012169210594147
1772526345569181700,6.187181640625,0.004114449581503868,-0.07711977229863405,0.06963778251279146
1772526345579164000,6.197163818359375,0.06323299350440502,-0.03517389697283506,0.09190879716221242
1772526345589146600,6.207146728515625,0.10110182864964008,-0.014373101006448268,0.09403744322136044
1772526345599128800,6.21712890625,0.09691782096326351,-0.031215806996822356,0.08353234275467693
1772526345609111800,6.22711181640625,0.07421557528972625,-0.03678396251797676,0.05441884179934859
1772526345619093800,6.23709375,0.03906009075641632,-0.052878772750496864,0.014938516336865722
1772526345629075700,6.24707568359375,-0.00538227756023407,-0.09210662128925323,0.026470804426819084
1772526345639058700,6.25705859375,-0.07058160270154476,-0.10820113926082849,0.03355791314356029
1772526345649040600,6.26704052734375,-0.0904518398195505,-0.08748977514356374,0.032838951219245786
1772526345659022800,6.27702294921875,-0.1352899294555187,-0.02198737540245056,-0.026171127360500392
1772526345669005600,6.287005615234375,-0.184630006685853,0.01896452044993639,-0.07342617847770452
1772526345678987800,6.29698779296875,-0.1495113470315933,0.005698503902554512,-0.04528342225067317
1772526345688969700,6.3069697265625,-0.07191840426325798,0.002181435692310333,0.019295761698298153
1772526345698952700,6.31695263671875,0.018875380861759185,0.0031280688926577566,0.07807864392604678
1772526345708934700,6.3269345703125,0.09089549193382263,0.015563479834794997,0.06642050096672028
1772526345718917600,6.336917724609375,0.12836977480351924,0.0385185312256217,0.003595942132733762
1772526345728899800,6.34689990234375,0.17264087820649146,0.04327069418877363,-0.019923319012112913
1772526345738881500,6.356881591796875,0.2107376768887043,0.023254034337401388,-0.01872534139920026
1772526345748864800,6.36686474609375,0.21365970181524752,-0.008117547743022441,-0.03236968973968178
1772526345758846700,6.3768466796875,0.16884616209864614,-0.0440191744685173,-0.04272686963565647
1772526345768828700,6.38682861328125,0.14023556916415691,-0.03101473146677017,-0.044653526849299664
1772526345778811600,6.396811767578125,0.165485745754838,-0.0013923311412334441,-0.051861668129824096
1772526345788793900,6.4067939453125,0.25069267065823075,0.012707505881786346,-0.0558527835926041
1772526345798775600,6.416775634765625,0.3422200307548046,-0.008185644543170929,-0.026791195487603545
1772526345808758800,6.4267587890625,0.37067747895419595,-0.0241533212646842,-0.015474303713999688
1772526345818740500,6.436740478515625,0.3386164533048868,-0.002642331202328205,-0.01119560348149389
1772526345828722700,6.44672265625,0.22815759824514387,0.025706688186526296,-0.04022106082718819
1772526345838705700,6.45670556640625,0.11343173339068889,0.05538111096024513,-0.06001078005488961
1772526345848687600,6.4666875,0.028406010273098945,0.052664253216981885,-0.05866353016439825
1772526345858670600,6.476670654296875,-0.026013562178611754,0.038330899699032306,-0.062304078623838716
1772526345868652500,6.486652587890625,-0.02941138792335987,0.028872166480123994,-0.03883841082975268
1772526345878634800,6.496634765625,0.003358662778139114,0.025687106703221798,-0.006282696998678147
1772526345888617700,6.50661767578125,0.01998188079893589,0.020742636038362978,0.005135974648967385
1772526345898599700,6.516599609375,0.007887538379430771,-0.04517068259119987,0.009777443779259919
1772526345908581600,6.52658154296875,0.03156593560874462,-0.06152852767407894,-0.04074994353950023
1772526345918564900,6.53656494140625,0.011008300748467445,-0.07696341269314289,-0.04191274024117738
1772526345928546600,6.546546630859375,-0.014108604851365088,-0.07595861956477165,-0.03171049517858773
1772526345938528800,6.55652880859375,-0.03221650847196579,-0.05621230108737945,-0.021934658834524452
1772526345948511500,6.566511474609375,-0.07385960145890712,-0.03706453302502632,-0.00639214872252196
1772526345958493700,6.57649365234375,-0.07058452531099318,-0.015053776746988295,0.0032766470504924654
1772526345968476700,6.5864765625,-0.06903086612820625,-0.006068798519670963,0.019533479444310067
1772526345978458600,6.596458740234375,-0.062218263503909105,-0.006292378142476082,0.044800935963355
1772526345988440800,6.60644091796875,-0.023871873974800107,-0.021512451367080212,0.02769895798228681
1772526345998423600,6.616423583984375,0.030752281138300894,-0.028114918372035023,0.004875277886167168
1772526346008405800,6.62640576171875,0.0630249037116766,-0.02776654332578182,0.024059249773062764
1772526346018387700,6.6363876953125,0.04269990856349468,-0.03648176470100879,0.03896996478755027
1772526346028370700,6.64637060546875,-0.0015565817922353743,-0.023510639446973798,0.024902532196789978
1772526346038352600,6.6563525390625,-0.04078969102799892,0.011821370697021483,0.0358006140364334
1772526346048334600,6.66633447265625,-0.03150748341977596,0.045587446698546405,0.030794732040539383
1772526346058317600,6.676317626953125,0.037279637080430986,0.06324468394219875,0.044637160236388446
1772526346068299800,6.6862998046875,0.12217968799173831,0.05445259793847799,0.06447784246634691
1772526346078282500,6.696282470703125,0.1842021366626024,0.03385375428497791,0.04529354178588837
1772526346088264700,6.7062646484375,0.24037235217392444,0.036247371423244475,0.024238624927960334
1772526346098247200,6.7162470703125,0.30500469108223915,0.02751519891321659,-0.0116088239248842
1772526346108230400,6.72623046875,0.3316489523798227,-0.013750585193932055,-0.01623662985600531
1772526346118212000,6.736212158203125,0.3454547748923302,-0.02153378641605377,-0.04671966559886932
1772526346128194300,6.7461943359375,0.3669990827023983,-0.042755730403959746,-0.18502645865753292
1772526346138177300,6.75617724609375,0.4593137937843799,-0.16190584144145248,-0.4151254732940346
1772526346148159200,6.7661591796875,0.6014584114402532,-0.3017301994562149,-0.6817990454815328
1772526346158141400,6.776141357421875,0.8326958555221557,-0.3927729909062385,-0.8716596462972461
1772526346168124200,6.786124267578125,1.0592051020383835,-0.5017334241017699,-0.7748985502656549
1772526346178106400,6.7961064453125,0.9842746564775705,-0.5710699951782823,-0.5898373125556856
1772526346188088300,6.80608837890625,0.7525666722744703,-0.5189212902680039,-0.45312611812539394
1772526346198071300,6.8160712890625,0.4323234955281019,-0.3978440105602145,-0.4279361472893506
1772526346208053200,6.82605322265625,0.18569208295941353,-0.23066373584717512,-0.4265041417248547
1772526346218036500,6.836036376953125,0.03561608778238296,-0.09096928782239556,-0.38344804013483225
1772526346228018200,6.84601806640625,-0.02777355758845806,-0.01623480322510004,-0.32541772984005507
1772526346238000400,6.85600048828125,-0.11944587911367416,0.002509352472424507,-0.21566125089600682
1772526346247983000,6.865983154296875,-0.21406360644102096,0.04294745358377695,-0.1397481509733945
1772526346257965300,6.87596533203125,-0.30371932744681834,0.06749620390683413,-0.049930955795571205
1772526346267947500,6.885947509765625,-0.3844125743180513,0.08781301574856043,0.09005538784787058
1772526346277930200,6.89593017578125,-0.4669757067143917,0.13468407251685857,0.2042596399810165
1772526346287912400,6.905912353515625,-0.5768225673556328,0.21271496831104159,0.2927556695576757
1772526346297894100,6.91589404296875,-0.6551449934422969,0.28664558917954563,0.35846228663399815
1772526346307877400,6.92587744140625,-0.6345248147398233,0.3480839543521404,0.41471674636267125
1772526346317859300,6.935859375,-0.5438648851275444,0.3924395211681723,0.469823935752362
1772526346327842300,6.94584228515625,-0.42654491212666035,0.3902129311598837,0.5112975904565304
1772526346337824300,6.95582421875,-0.3338058381527662,0.35418826257660985,0.5469663582742214
1772526346347806200,6.96580615234375,-0.253722832134366,0.31217677466869354,0.5449051148954779
1772526346357789200,6.9757890625,-0.166464819920063,0.2661652573391795,0.5239557773038744
1772526346367771400,6.985771484375,-0.057842532637715334,0.234213975674659,0.47150757799036797
1772526346377753300,6.99575341796875,0.03187047151327133,0.1842581046335399,0.4340062609832734
1772526346387736300,7.005736328125,0.07755728693306446,0.13417451555952428,0.42347208055257796
1772526346397718500,7.015718505859375,0.0702443335711956,0.1348975691370666,0.3660941697519272
1772526346407700200,7.0257001953125,0.02502513566315174,0.11589008632823825,0.2949929270904511
1772526346417683500,7.035683349609375,0.07791384528577328,0.07934270904511213,0.11635843449234962
1772526346427665200,7.0456650390625,0.13688625873625276,-0.029913346096128224,0.03798946585021913
1772526346437647400,7.0556474609375,0.16825930212140083,-0.1748135460704565,0.11501571464650333
1772526346447630300,7.06563037109375,0.14158990638256072,-0.12003332361280918,-0.00411817590855062
1772526346457612300,7.0756123046875,0.06402385162115097,-0.08118906756415963,-0.07243621759228408
1772526346467595300,7.08559521484375,-0.032680618852376934,-0.13330679281428456,-0.015308409095183015
1772526346477577200,7.0955771484375,-0.09856851077973842,-0.10561506829038261,-0.024260654096677898
1772526346487559400,7.105559326171875,-0.1154658695667982,-0.08647782162204384,-0.07386033211126923
1772526346497542400,7.11554248046875,-0.104934538680315,-0.09607304070219397,-0.14615049229636787
1772526346507524400,7.1255244140625,-0.07940905227959155,-0.12665376466587186,-0.19980828659534453
1772526346517506300,7.13550634765625,-0.08322539569735526,-0.17395342210978268,-0.2234437214657664
1772526346527489500,7.145489501953125,-0.09954875398874283,-0.1776321106225252,-0.20985826370567082
1772526346537471200,7.15547119140625,-0.12922902198135852,-0.12979980760663748,-0.193315782770887
1772526346547453400,7.165453369140625,-0.12920564110577107,-0.07568462492898106,-0.18349888376407325
1772526346557436200,7.175436279296875,-0.12229016262888907,-0.011888444583863018,-0.19553579690791664
1772526346567418400,7.18541845703125,-0.13364216224849224,0.00986176106184721,-0.17094006563797592
1772526346577401300,7.1954013671875,-0.16824118194282053,-0.0015728022746741772,-0.1261572133205831
1772526346587383300,7.20538330078125,-0.16980828512907029,0.008053396465629338,-0.15584310733638704
1772526346597365500,7.215365478515625,-0.1394990715831518,0.03606456220224499,-0.18045564361065625
1772526346607348200,7.22534814453125,-0.1109656355381012,0.015154899033904075,-0.15651706107519567
1772526346617330400,7.235330322265625,-0.09952245050370692,0.02300911966562271,-0.11682101050280033
1772526346627312400,7.2453125,-0.06390168654620647,0.08059227071478962,-0.09541223870590329
1772526346637295400,7.25529541015625,-0.028690087911486625,0.1013186862707138,-0.04625548215322196
1772526346647277300,7.26527734375,0.0004056581914424896,0.12103855513259767,-0.0032535949684679506
1772526346657259300,7.27525927734375,0.056391164785623546,0.13805778673365712,0.01491042275354266
1772526346667242200,7.2852421875,0.13157061667144299,0.13120426757708192,0.018792159557715057
1772526346677224400,7.295224365234375,0.1770744767397642,0.08514671914875507,0.025917627523466942
1772526346687207200,7.305207275390625,0.19209902739226817,0.07529708691611886,0.018856822291761634
1772526346697189400,7.315189453125,0.16928689160346985,0.05086114931777119,0.013441884570941328
1772526346707171300,7.32517138671875,0.15973288131654262,0.058305766235291955,0.008245631102100014
1772526346717154300,7.335154296875,0.16463000570833683,0.0781974845327437,-0.018342662224546075
1772526346727136300,7.34513623046875,0.18615736238360403,0.08199059320539236,-0.04495828194953501
1772526346737118200,7.3551181640625,0.20146014545559882,0.08406360008716583,-0.04173223257511854
1772526346747101200,7.36510107421875,0.21361410910785197,0.07165653845667838,-0.06143062025755643
1772526346757083400,7.37508349609375,0.21478256836533546,0.06261018543094396,-0.053924628541618586
1772526346767065300,7.3850654296875,0.15024141487181186,0.06342398603186011,-0.046469636360555885
1772526346777048300,7.39504833984375,0.07321078216135501,0.0910316855341196,-0.019717896100506185
1772526346787030300,7.4050302734375,0.03081950115561485,0.1330916887588799,-0.043122956281155346
1772526346797012200,7.41501220703125,0.0523801755785942,0.1278692779354751,-0.05046360136754811
1772526346806995500,7.424995361328125,0.09506839370429515,0.10902399995103478,-0.06125175655931234
1772526346816977200,7.43497705078125,0.1305319212734699,0.07547828870192169,-0.06422383117265999
1772526346826960400,7.44496044921875,0.15352759693562984,0.05236424735710025,-0.060679728825017806
1772526346836942300,7.4549423828125,0.13675766392052172,0.007278612700849771,-0.04769698619842529
1772526346846924300,7.46492431640625,0.11183540410995482,0.017972879064083097,-0.04898439566045999
1772526346856907300,7.4749072265625,0.09783552033007144,0.044423663616180414,-0.064745078567788
1772526346866889200,7.48488916015625,0.10899988842308521,0.06437500314638019,-0.06463679588772356
1772526346876871400,7.494871337890625,0.13280454238057135,0.03090308778584003,-0.036138650351762766
1772526346886854400,7.5048544921875,0.1626706883341074,0.006264613352715969,0.002612520585954189
1772526346896836400,7.51483642578125,0.16593407404422758,-0.005604395878314972,-0.00638546325340867
1772526346906818300,7.524818359375,0.1895002430707216,0.004787818798422813,-0.04346066380292177
1772526346916801300,7.53480126953125,0.226997322294116,-0.04168254821449518,-0.08376615151055157
1772526346926783200,7.544783203125,0.27049218062758446,-0.11332301231920719,-0.1293679189953953
1772526346936766500,7.554766357421875,0.2953846298217773,-0.1888674981251359,-0.11312040241919458
1772526346946748200,7.564748046875,0.25044074172377584,-0.17709581178873776,-0.08054382846318185
1772526346956730400,7.57473046875,0.14865677602887153,-0.14036840176358817,-0.08230755020007491
1772526346966713300,7.58471337890625,0.06142682086527347,-0.07952975604981184,-0.0465345182903111
1772526346976695300,7.5946953125,0.0211795661509037,-0.0599964958012104,-0.029282866172865032
1772526346986677500,7.604677490234375,-0.010247253248095512,-0.04340659552812576,-0.06027355917692184
1772526346996660200,7.61466015625,0.015647650986909865,0.04266308368444442,-0.028086495995149015
1772526347006642400,7.624642333984375,-0.012663666740059852,0.0056026423126459115,-0.02640358440950513
1772526347016624000,7.6346240234375,-0.11253449229001998,-0.06934504664391279,-0.0883731338493526
1772526347026607400,7.644607421875,-0.21208909149765967,-0.09812091314271092,0.020097689198330045
1772526347036589300,7.65458935546875,-0.2866238157391548,-0.10627353219911455,0.0422943234372884
1772526347046572300,7.664572265625,-0.29106501305699345,-0.12938859645724296,-0.03685023268721997
1772526347056554200,7.67455419921875,-0.21406769809424875,-0.18180179752260445,-0.14418715633414686
1772526347066536400,7.684536376953125,-0.10774784253537655,-0.03759381759613752,-0.21335392380170523
