time,seconds_elapsed,z,y,x
1772526339459974700,0.077974609375,0.1203252524137497,-0.009221659041941166,0.2380622774362564
1772526339469956600,0.08795654296875,0.11135485768318176,-0.03021496906876564,0.22647762298583984
1772526339479938800,0.097938720703125,0.09681559354066849,-0.07760459184646606,0.2080775797367096
1772526339489921500,0.107921630859375,0.08861444890499115,-0.1330813318490982,0.18011561036109924
1772526339499903700,0.11790380859375,0.08501012623310089,-0.17694012820720673,0.1460742950439453
1772526339509885400,0.127885498046875,0.07886873185634613,-0.1877187341451645,0.10937345772981644
1772526339519868700,0.13786865234375,0.07428357005119324,-0.17251288890838623,0.06355563551187515
1772526339529850600,0.1478505859375,0.07296054810285568,-0.13175159692764282,0.009948229417204857
1772526339539833600,0.15783349609375,0.0651143416762352,-0.09462208300828934,-0.037191055715084076
1772526339549815600,0.167815673828125,0.03929431736469269,-0.060058485716581345,-0.06876077502965927
1772526339559797800,0.1777978515625,0.00647431705147028,-0.022534282878041267,-0.07699074596166611
1772526339569780500,0.187780517578125,-0.03765761852264404,0.00009827525354921818,-0.057687968015670776
1772526339579762700,0.1977626953125,-0.07784073054790497,-0.010373273864388466,-0.02027828060090542
1772526339589744600,0.20774462890625,-0.10935180634260178,-0.033589206635951996,0.016198227182030678
1772526339599727600,0.2177275390625,-0.11657802760601044,-0.067847840487957,0.04410070180892944
1772526339609709800,0.227709716796875,-0.1118302121758461,-0.1028653234243393,0.06803542375564575
1772526339619692500,0.237692626953125,-0.10724771022796631,-0.1337185800075531,0.06444947421550751
1772526339629674800,0.2476748046875,-0.104873426258564,-0.15408682823181152,0.052827611565589905
1772526339639656400,0.257656494140625,-0.09355099499225616,-0.15019461512565613,0.029985416680574417
1772526339649639700,0.2676396484375,-0.0850311741232872,-0.12167059630155563,0.01589987426996231
1772526339659621600,0.27762158203125,-0.08952898532152176,-0.09036433696746826,0.0020732739940285683
1772526339669603600,0.287603515625,-0.09665657579898834,-0.06603217869997025,-0.003828377928584814
1772526339679586600,0.297586669921875,-0.1044045090675354,-0.047202836722135544,-0.002006243448704481
1772526339689568800,0.30756884765625,-0.10295262187719345,-0.0418236143887043,0.00823131948709488
1772526339699550700,0.31755078125,-0.09901060909032822,-0.03503734618425369,0.025714706629514694
1772526339709533700,0.32753369140625,-0.08988942950963974,-0.02055835910141468,0.05153651162981987
1772526339719515600,0.337515625,-0.08151352405548096,0.0007149721495807171,0.06854718178510666
1772526339729498600,0.34749853515625,-0.0721813291311264,0.023294249549508095,0.07631839066743851
1772526339739480800,0.357480712890625,-0.05866897851228714,0.04550634324550629,0.07509413361549377
1772526339749462500,0.367462646484375,-0.041205331683158875,0.05553092435002327,0.06762422621250153
1772526339759445800,0.37744580078125,-0.03269892930984497,0.07295891642570496,0.0619887076318264
1772526339769427500,0.387427490234375,-0.02094062604010105,0.07380616664886475,0.07111811637878418
1772526339779409700,0.39740966796875,-0.019323021173477173,0.05765729025006294,0.07442416250705719
1772526339789392600,0.407392578125,-0.02058953419327736,0.03550741821527481,0.07894052565097809
1772526339799374600,0.41737451171875,-0.017726901918649673,0.02906735986471176,0.08681842684745789
1772526339809357600,0.427357666015625,-0.016476446762681007,0.020009104162454605,0.09650878608226776
1772526339819339800,0.43733984375,-0.02040647342801094,0.012557312846183777,0.10156506299972534
1772526339829321700,0.44732177734375,-0.023218058049678802,0.004002267960458994,0.09784764796495438
1772526339839304700,0.4573046875,-0.023480113595724106,0.011424764059484005,0.091777503490448
1772526339849286700,0.46728662109375,-0.0270144771784544,0.010092226788401604,0.07642899453639984
1772526339859268600,0.4772685546875,-0.027288516983389854,0.004835146479308605,0.05682253837585449
1772526339869251800,0.487251953125,-0.02165907435119152,0.005559856072068214,0.03322603553533554
1772526339879233500,0.497233642578125,-0.013922324404120445,0.008087728172540665,0.011683990247547626
1772526339889216800,0.507216796875,-0.005054491572082043,0.01119629293680191,-0.010111840441823006
1772526339899198500,0.517198486328125,0.005957412999123335,0.02931138128042221,-0.016056548804044724
1772526339909180700,0.5271806640625,0.014272067695856094,0.03600124269723892,-0.02007339522242546
1772526339919163600,0.53716357421875,0.01760927401483059,0.024052437394857407,-0.018035011366009712
1772526339929145600,0.5471455078125,0.02201874367892742,0.022682370617985725,-0.01497699785977602
1772526339939127800,0.5571279296875,0.016285490244627,0.021128149703145027,-0.007889260537922382
1772526339949110800,0.56711083984375,0.014837263152003288,0.018462324514985085,0.0006102174520492554
1772526339959092700,0.5770927734375,0.014394380152225494,0.019975000992417336,0.011043949984014034
1772526339969074700,0.58707470703125,0.018701598048210144,0.01585153490304947,0.021015267819166183
1772526339979057700,0.5970576171875,0.020138904452323914,0.006657503079622984,0.026084061712026596
1772526339989039600,0.60703955078125,0.02363893762230873,0.0029687234200537205,0.030198298394680023
1772526339999022800,0.61702294921875,0.026992391794919968,0.014089818112552166,0.030014272779226303
1772526340009004500,0.627004638671875,0.03343978151679039,0.01663552224636078,0.029191168025135994
1772526340018986800,0.63698681640625,0.02707589417695999,0.017106102779507637,0.019736414775252342
1772526340028969700,0.6469697265625,0.020589496940374374,0.007692093960940838,0.005300216842442751
1772526340038951700,0.65695166015625,0.0117145124822855,-0.016801530495285988,-0.013542447239160538
1772526340048933600,0.66693359375,0.0010828250087797642,-0.03363845869898796,-0.03151123970746994
1772526340058916600,0.67691650390625,-0.010550128296017647,-0.03609282895922661,-0.044781770557165146
1772526340068898600,0.686898681640625,-0.01614994741976261,-0.024441732093691826,-0.05117601528763771
1772526340078881800,0.6968818359375,-0.015188014134764671,-0.0052957357838749886,-0.05172888934612274
1772526340088863500,0.706863525390625,-0.010160406120121479,0.01614316552877426,-0.04718349128961563
1772526340098845700,0.716845703125,-0.0018223151564598083,0.03105180710554123,-0.038901593536138535
1772526340108828700,0.72682861328125,0.007766381837427616,0.032470159232616425,-0.028562938794493675
1772526340118811000,0.736810791015625,0.008857478387653828,0.025570176541805267,-0.017490047961473465
1772526340128792800,0.746792724609375,0.014749431982636452,0.02320493757724762,-0.0031627798452973366
1772526340138775800,0.75677587890625,0.008818305097520351,0.019846690818667412,0.006147365085780621
1772526340148757800,0.7667578125,0.009417464025318623,0.019190965220332146,0.01970827952027321
1772526340158739700,0.77673974609375,0.010258756577968597,0.02855597250163555,0.028054893016815186
1772526340168723000,0.786722900390625,0.014145583845674992,0.029330063611268997,0.032524578273296356
1772526340178704600,0.79670458984375,0.016012724488973618,0.0165407657623291,0.035707585513591766
1772526340188688000,0.80668798828125,0.02302924357354641,0.012165749445557594,0.04249845817685127
1772526340198669600,0.816669677734375,0.023669732734560966,0.022512394934892654,0.04911961033940315
1772526340208651800,0.82665185546875,0.02854313887655735,0.030578218400478363,0.04931579530239105
1772526340218634800,0.836634765625,0.03251603990793228,0.024680115282535553,0.04913922771811485
1772526340228616700,0.84661669921875,0.02963199093937874,0.018089057877659798,0.042741063982248306
1772526340238599000,0.856598876953125,0.023526959121227264,0.0008333721198141575,0.037445634603500366
1772526340248582000,0.866581787109375,0.019753191620111465,-0.013612787239253521,0.030468780547380447
1772526340258563800,0.876563720703125,0.01893932931125164,-0.015360354445874691,0.027272455394268036
1772526340268546800,0.886546875,0.017413686960935593,-0.012208877131342888,0.028979184105992317
1772526340278528800,0.89652880859375,0.022493932396173477,-0.007704673334956169,0.027325361967086792
1772526340288510700,0.9065107421875,0.030276402831077576,-0.002731392625719309,0.023291293531656265
1772526340298494000,0.916493896484375,0.04239990934729576,-0.004698403179645538,0.015760140493512154
1772526340308475600,0.9264755859375,0.04435181990265846,-0.011373210698366165,0.010452634654939175
1772526340318457900,0.936457763671875,0.045754771679639816,-0.009175303392112255,-0.0001273052766919136
1772526340328440600,0.946440673828125,0.04537554830312729,-0.016290970146656036,-0.01227877289056778
1772526340338422800,0.9564228515625,0.03685343265533447,-0.03395545110106468,-0.028787976130843163
1772526340348405000,0.966405029296875,0.028083665296435356,-0.04052246734499931,-0.04210563749074936
1772526340358387700,0.9763876953125,0.011977134272456169,-0.025561094284057617,-0.05276067927479744
1772526340368370000,0.986369873046875,0.00031025195494294167,-0.01324846688657999,-0.060526639223098755
1772526340378353000,0.996352783203125,-0.003814185271039605,0.006938826758414507,-0.059080012142658234
1772526340388334800,1.0063349609375,-0.005110612139105797,0.031831659376621246,-0.05250679701566696
1772526340398316800,1.01631689453125,0.00023142248392105103,0.04238230735063553,-0.05169985815882683
1772526340408299800,1.0262998046875,0.005611530505120754,0.042510904371738434,-0.04486113041639328
1772526340418281700,1.03628173828125,0.006805159151554108,0.04364674165844917,-0.03672677278518677
1772526340428263700,1.046263671875,0.0010544061660766602,0.03748060017824173,-0.02571096271276474
1772526340438246700,1.05624658203125,-0.0033238306641578674,0.023979438468813896,-0.013624738901853561
1772526340448228900,1.066228759765625,-0.006200823932886124,0.020159196108579636,0.0006546024233102798
1772526340458210800,1.0762109375,-0.004498531110584736,0.023578962311148643,0.015507850795984268
1772526340468193800,1.08619384765625,-0.006563182920217514,0.026064425706863403,0.02967924438416958
1772526340478176000,1.096176025390625,-0.007715798914432526,0.02508118748664856,0.040662653744220734
1772526340488158700,1.10615869140625,-0.013066703453660011,0.015890726819634438,0.0485243946313858
1772526340498141000,1.116140869140625,-0.02214834839105606,0.005956870038062334,0.05526112765073776
1772526340508122600,1.12612255859375,-0.02343839406967163,0.000808417797088623,0.05699191242456436
1772526340518105900,1.13610595703125,-0.02813700959086418,-0.0005508596077561378,0.05824119970202446
1772526340528087800,1.146087890625,-0.02040737308561802,0.004761489108204842,0.057806212455034256
1772526340538069800,1.15606982421875,-0.017861124128103256,0.007010795176029205,0.054671671241521835
1772526340548052700,1.166052734375,-0.015324536710977554,0.001134935999289155,0.04552966728806496
1772526340558034700,1.17603466796875,-0.010790238156914711,-0.00235513667576015,0.03729623928666115
1772526340568017700,1.186017578125,-0.014673834666609764,-0.010517005808651447,0.02626853436231613
1772526340578000000,1.195999755859375,-0.024950172752141953,-0.020469238981604576,0.0073401182889938354
1772526340587981800,1.20598193359375,-0.03458497300744057,-0.03186788037419319,-0.009365630336105824
1772526340597964800,1.21596484375,-0.03864283114671707,-0.04005204141139984,-0.020879805088043213
1772526340607946800,1.22594677734375,-0.03886695206165314,-0.039483461529016495,-0.023190975189208984
1772526340617928700,1.2359287109375,-0.030305955559015274,-0.035326000303030014,-0.01804494857788086
1772526340627911700,1.24591162109375,-0.01790342479944229,-0.020733090117573738,-0.00317962234839797
1772526340637893600,1.2558935546875,-0.00025439029559493065,-0.01346266083419323,0.005827188026160002
1772526340647875800,1.265875732421875,0.012301484122872353,-0.010314838029444218,0.017277786508202553
1772526340657858800,1.27585888671875,0.015558529645204544,-0.008115598931908607,0.02093350701034069
1772526340667840800,1.2858408203125,0.012642551213502884,-0.009734958410263062,0.020815886557102203
1772526340677823700,1.29582373046875,0.006950311362743378,-0.02463720738887787,0.013344388455152512
1772526340687806000,1.305805908203125,0.005349853541702032,-0.030438687652349472,0.007692543789744377
1772526340697787600,1.31578759765625,0.009390933439135551,-0.03290317952632904,0.002658636774867773
1772526340707771000,1.32577099609375,0.01851321943104267,-0.029811210930347443,-0.0019394946284592152
1772526340717752600,1.335752685546875,0.026466481387615204,-0.026162683963775635,-0.007287920918315649
1772526340727734800,1.34573486328125,0.028970016166567802,-0.026129629462957382,-0.010725710541009903
1772526340737717800,1.3557177734375,0.026456257328391075,-0.02305447869002819,-0.012027997523546219
1772526340747699700,1.36569970703125,0.02678924985229969,-0.021743997931480408,-0.014577794820070267
1772526340757682700,1.3756826171875,0.022902632132172585,-0.014010710641741753,-0.0164012610912323
1772526340767664600,1.38566455078125,0.023881975561380386,-0.01935545541346073,-0.01823200285434723
1772526340777646800,1.395646728515625,0.023086223751306534,-0.02229931391775608,-0.01768951676785946
1772526340787629800,1.4056298828125,0.02202216535806656,-0.018460674211382866,-0.009837105870246887
1772526340797611800,1.41561181640625,0.02781720459461212,-0.011127925477921963,-0.003117950167506933
1772526340807593700,1.42559375,0.02859845571219921,-0.005480328109115362,-0.0027539697475731373
1772526340817577000,1.435576904296875,0.0294895488768816,-0.004654747899621725,-0.0026940484531223774
1772526340827558700,1.44555859375,0.03020044043660164,-0.003739765612408519,-0.01190547738224268
1772526340837540900,1.455540771484375,0.021633049473166466,-0.006664981134235859,-0.01807788386940956
1772526340847523600,1.465523681640625,0.014514686539769173,-0.002808191580697894,-0.02390221878886223
1772526340857505800,1.475505859375,0.0016074106097221375,0.0012621835339814425,-0.02360900491476059
1772526340867488800,1.48548876953125,-0.0029979366809129715,-0.0009401661809533834,-0.01947188377380371
1772526340877470700,1.495470703125,-0.012459615245461464,-0.003197994315996766,-0.00392940966412425
1772526340887453000,1.505452880859375,-0.018457863479852676,-0.00892169214785099,0.011539027094841003
1772526340897435600,1.515435546875,-0.01991674304008484,-0.018536504358053207,0.021062223240733147
1772526340907417900,1.52541796875,-0.011669352650642395,-0.02609936147928238,0.030831148847937584
1772526340917399800,1.53539990234375,-0.003882003715261817,-0.03376660495996475,0.040647558867931366
1772526340927382800,1.5453828125,-0.0028810962103307247,-0.03664795309305191,0.050292376428842545
1772526340937364700,1.55536474609375,-0.01129348948597908,-0.029216138646006584,0.0621972382068634
1772526340947346700,1.5653466796875,-0.023861300200223923,-0.026463402435183525,0.0631004050374031
1772526340957329700,1.57532958984375,-0.031095776706933975,-0.023653768002986908,0.05794745683670044
1772526340967312000,1.585311767578125,-0.03021710366010666,-0.020841535180807114,0.0473269522190094
1772526340977294600,1.595294677734375,-0.030477294698357582,-0.015723738819360733,0.03139618784189224
1772526340987276800,1.60527685546875,-0.02788408100605011,-0.008337539620697498,0.01665710285305977
1772526340997258800,1.6152587890625,-0.024302661418914795,0.0009526312351226807,0.0056641059927642345
1772526341007241700,1.62524169921875,-0.021029740571975708,0.007736552506685257,0.001773044466972351
1772526341017224000,1.635223876953125,-0.01881212554872036,0.015528428368270397,0.0049232980236411095
1772526341027205600,1.64520556640625,-0.011553418822586536,0.02319112792611122,0.015137051232159138
1772526341037188900,1.65518896484375,0.001349329948425293,0.036092013120651245,0.024898601695895195
1772526341047170800,1.6651708984375,0.001135022845119238,0.01757732592523098,0.032063212245702744
1772526341057153800,1.67515380859375,0.0064142076298594475,0.005493764765560627,0.03356070816516876
1772526341067135700,1.6851357421875,0.015803709626197815,-0.008746174164116383,0.03320597484707832
1772526341077117700,1.69511767578125,0.026153551414608955,-0.020223066210746765,0.03434101119637489
1772526341087100700,1.7051005859375,0.03505660966038704,-0.013792348094284534,0.03628184273838997
1772526341097083000,1.715082763671875,0.03970169648528099,-0.00008372659794986248,0.04027365520596504
1772526341107064800,1.72506494140625,0.03373778611421585,0.008255069144070148,0.04011891782283783
1772526341117047800,1.7350478515625,0.03702865168452263,-0.0018537573050707579,0.03416701778769493
1772526341127029800,1.74502978515625,0.03651213273406029,-0.0027807613369077444,0.023470889776945114
1772526341137011700,1.75501171875,0.02840040996670723,-0.035673461854457855,0.0004747598432004452
1772526341146995000,1.764994873046875,0.023654723539948463,-0.04789486154913902,-0.01873018965125084
1772526341156976600,1.7749765625,0.030233528465032578,-0.03856687247753143,-0.03572142496705055
1772526341166959900,1.7849599609375,0.030955133959650993,-0.026077698916196823,-0.05005021393299103
1772526341176941800,1.79494189453125,0.032942648977041245,-0.004585988819599152,-0.057179760187864304
1772526341186923800,1.804923828125,0.039933737367391586,0.009745877236127853,-0.060260772705078125
1772526341196906800,1.81490673828125,0.042694371193647385,0.021850744262337685,-0.056178413331508636
1772526341206888700,1.824888671875,0.04256104305386543,0.024716241285204887,-0.045900292694568634
1772526341216871000,1.834870849609375,0.03623656556010246,0.020126549527049065,-0.03414855897426605
1772526341226854000,1.84485400390625,0.023700514808297157,0.004368296358734369,-0.018843114376068115
1772526341236835800,1.8548359375,0.011659298092126846,-0.008590378798544407,-0.009857608005404472
1772526341246817800,1.86481787109375,0.007616634480655193,-0.016391262412071228,-0.008136135526001453
1772526341256800800,1.87480078125,0.0064744045957922935,-0.019312750548124313,-0.006666603498160839
1772526341266782700,1.88478271484375,0.004758791532367468,-0.009747490286827087,-0.011128731071949005
1772526341276765700,1.894765625,0.0007411465048789978,-0.005946893244981766,-0.014538642019033432
1772526341286747600,1.90474755859375,-0.005716911982744932,-0.004454492125660181,-0.019999004900455475
1772526341296729900,1.914729736328125,-0.009285281412303448,0.006185635458678007,-0.01883387193083763
1772526341306712800,1.924712890625,-0.0227835513651371,0.02015751786530018,-0.014876692555844784
1772526341316694800,1.93469482421875,-0.03638910874724388,0.016048792749643326,-0.011974112130701542
1772526341326676700,1.9446767578125,-0.04210707172751427,0.009771443903446198,-0.01115127932280302
1772526341336659700,1.95465966796875,-0.043052759021520615,0.0011505249422043562,-0.014739622361958027
1772526341346641700,1.9646416015625,-0.03822072595357895,-0.0039885928854346275,-0.017537806183099747
1772526341356624000,1.974623779296875,-0.029245605692267418,-0.0012117146980017424,-0.021912582218647003
1772526341366606600,1.984606689453125,-0.02032257802784443,0.002414145739749074,-0.021545682102441788
1772526341376588800,1.9945888671875,-0.017400026321411133,0.0031457161530852318,-0.018336571753025055
1772526341386571800,2.00457177734375,-0.004446798004209995,0.01595204323530197,-0.011448759585618973
1772526341396553700,2.0145537109375,0.003710730466991663,0.030154680833220482,-0.000029124785214662552
1772526341406536000,2.024535888671875,0.007657898589968681,0.03961975872516632,0.007913399487733841
1772526341416518700,2.0345185546875,0.01324867270886898,0.04167572036385536,0.007860668934881687
1772526341426500900,2.0445009765625,0.01801275834441185,0.03001449629664421,0.0046617863699793816
1772526341436482600,2.054482666015625,0.024476252496242523,0.020395690575242043,0.004275095649063587
1772526341446465800,2.0644658203125,0.0223524272441864,0.013009738177061081,-0.007041846867650747
1772526341456447700,2.07444775390625,0.022857628762722015,0.011094125919044018,-0.008574228733778
1772526341466430700,2.0844306640625,0.021381091326475143,0.01096374075859785,-0.0081384452059865
1772526341476412700,2.09441259765625,0.015926137566566467,0.009905667044222355,-0.004870746284723282
1772526341486395000,2.104394775390625,0.009289233945310116,0.011348963715136051,-0.005137602332979441
1772526341496377600,2.114377685546875,0.011177681386470795,0.005659919232130051,-0.004994591232389212
1772526341506359800,2.12435986328125,0.008326811715960503,0.003035525558516383,-0.0075141992419958115
1772526341516341800,2.134341796875,0.00487961620092392,-0.007787561044096947,-0.009445257484912872
1772526341526324700,2.14432470703125,-0.0038593048229813576,-0.0177457332611084,-0.011267930269241333
1772526341536307000,2.154306884765625,-0.01013317983597517,-0.019886914640665054,-0.009676158428192139
1772526341546288600,2.16428857421875,-0.00869184173643589,-0.028607061132788658,-0.004481919575482607
1772526341556271900,2.17427197265625,-0.005775946658104658,-0.02006843313574791,0.01206243596971035
1772526341566253600,2.184253662109375,-0.002386997453868389,-0.0005606350023299456,0.027923598885536194
1772526341576236800,2.19423681640625,0.0059569524601101875,0.011353814974427223,0.04390362650156021
1772526341586218800,2.20421875,0.009990289807319641,0.016804710030555725,0.05556533858180046
1772526341596200700,2.21420068359375,0.008887741714715958,0.011197956278920174,0.058915864676237106
1772526341606183700,2.22418359375,0.003433853853493929,0.003989578690379858,0.05791158601641655
1772526341616166000,2.234165771484375,-0.004767708946019411,-0.00018591410480439663,0.052871108055114746
1772526341626147800,2.24414794921875,-0.006897729821503162,-0.004762113559991121,0.05016080662608147
1772526341636130800,2.254130859375,-0.010767835192382336,-0.0015394226647913456,0.05180557444691658
1772526341646112800,2.26411279296875,-0.0058977361768484116,0.01352878287434578,0.048373930156230927
1772526341656094700,2.2740947265625,-0.0005229446105659008,0.021044224500656128,0.04695339873433113
1772526341666078000,2.284077880859375,0.0035750214010477066,0.03059089370071888,0.04162183031439781
1772526341676059600,2.2940595703125,0.00873649399727583,0.031642310321331024,0.03675597161054611
1772526341686043000,2.30404296875,0.0030386154539883137,0.021875545382499695,0.027919327840209007
1772526341696024600,2.314024658203125,-0.0009398804977536201,0.012153410352766514,0.02221537008881569
1772526341706006800,2.3240068359375,-0.0037787898909300566,0.02076641097664833,0.00946815125644207
1772526341715989800,2.33398974609375,0.00021302234381437302,0.03320949897170067,-0.005951818078756332
1772526341725971700,2.3439716796875,0.0052370172925293446,0.04524238407611847,-0.004481655079871416
1772526341735954000,2.353953857421875,0.006124383304268122,0.05704844370484352,0.0038385922089219093
1772526341745937000,2.36393701171875,0.011133784428238869,0.04892818257212639,0.009655199944972992
1772526341755918800,2.3739189453125,0.01294553279876709,0.0386076346039772,0.025058923289179802
1772526341765901800,2.38390185546875,0.017421148717403412,0.03991479054093361,0.0464916005730629
1772526341775883800,2.3938837890625,0.014953729696571827,0.042593665421009064,0.055148735642433167
1772526341785865700,2.40386572265625,0.016402142122387886,0.0441189669072628,0.059277258813381195
1772526341795849000,2.413848876953125,0.018318552523851395,0.04286541789770126,0.051344502717256546
1772526341805830700,2.42383056640625,0.01452365517616272,0.036271125078201294,0.040307216346263885
1772526341815812900,2.433812744140625,0.018166858702898026,0.032312601804733276,0.026698995381593704
1772526341825795800,2.4437958984375,0.016676539555191994,0.021567240357398987,0.005009408108890057
1772526341835777800,2.45377783203125,0.015381444245576859,0.012391851283609867,-0.014262824319303036
1772526341845759700,2.463759765625,0.009839575737714767,0.014813793823122978,-0.030997510999441147
1772526341855742700,2.47374267578125,0.0004338226281106472,0.0210245531052351,-0.04213724657893181
1772526341865725000,2.483724853515625,-0.008061951957643032,0.03702634200453758,-0.047076884657144547
1772526341875708000,2.4937080078125,-0.011360010132193565,0.04683076962828636,-0.04915947467088699
1772526341885689900,2.50368994140625,-0.011300167068839073,0.049883678555488586,-0.04408925771713257
1772526341895671800,2.513671875,-0.010908681899309158,0.04423351585865021,-0.037279821932315826
1772526341905654800,2.52365478515625,-0.0017901728861033916,0.03559553623199463,-0.03442313149571419
1772526341915636700,2.53363671875,0.007272563874721527,0.02194550260901451,-0.03852652758359909
1772526341925619000,2.543618896484375,0.008236735127866268,0.005510298535227776,-0.04691077023744583
1772526341935601700,2.5536015625,0.011914027854800224,-0.002528453478589654,-0.05179847031831741
1772526341945583900,2.563583984375,0.015329275280237198,-0.007912807166576385,-0.04761117696762085
1772526341955565600,2.573565673828125,0.009469522163271904,-0.005256569944322109,-0.03972316160798073
1772526341965548800,2.583548828125,0.0032945084385573864,0.006730942986905575,-0.032993726432323456
1772526341975530800,2.59353076171875,0.002787442412227392,0.011235945858061314,-0.027466334402561188
1772526341985513700,2.603513671875,0.008107645437121391,0.013997658155858517,-0.025501184165477753
1772526341995495700,2.61349560546875,0.016809523105621338,0.009466555900871754,-0.022701138630509377
1772526342005477600,2.6234775390625,0.021375685930252075,0.005293728318065405,-0.023106649518013
1772526342015460600,2.633460693359375,0.024598378688097,0.0019962023943662643,-0.020107131451368332
1772526342025442800,2.64344287109375,0.026025919243693352,0.0008650640957057476,-0.013988342136144638
1772526342035424800,2.6534248046875,0.018521664664149284,-0.007188867777585983,-0.010843148455023766
1772526342045407700,2.66340771484375,0.02198137156665325,-0.01628677360713482,-0.004330922849476337
1772526342055390000,2.673389892578125,0.016523489728569984,-0.019573913887143135,0.0009272224269807339
1772526342065372700,2.68337255859375,0.013283134438097477,-0.018133848905563354,0.0014772550202906132
1772526342075355000,2.69335498046875,0.007652679458260536,-0.012306584976613522,0.009400691837072372
1772526342085336600,2.703336669921875,0.00017790775746107101,-0.007232341915369034,0.011983252130448818
1772526342095319800,2.71331982421875,-0.001133166253566742,0.00714286882430315,0.010246338322758675
1772526342105301800,2.7233017578125,-0.00445271423086524,0.014492020942270756,0.004678643308579922
1772526342115283700,2.73328369140625,-0.005766451358795166,0.010496213100850582,-0.0038964692503213882
1772526342125266700,2.7432666015625,-0.012033242732286453,-0.0012477615382522345,-0.010878928005695343
1772526342135249000,2.753248779296875,-0.007728775963187218,-0.007364243268966675,-0.013302937150001526
1772526342145230800,2.76323095703125,-0.003964914940297604,-0.008161015808582306,-0.0049227639101445675
1772526342155213800,2.7732138671875,0.000349672045558691,-0.004048561677336693,0.008848974481225014
1772526342165195800,2.78319580078125,0.003102382179349661,-0.007169676944613457,0.02273540012538433
1772526342175178800,2.7931787109375,0.0020781303755939007,-0.01140543445944786,0.026802845299243927
1772526342185161000,2.803160888671875,0.0064637623727321625,-0.013259888626635075,0.027523593977093697
1772526342195142700,2.813142578125,0.005038438364863396,-0.00908485148102045,0.023802625015378
1772526342205126000,2.8231259765625,0.004359879530966282,-0.009894942864775658,0.013033607043325901
1772526342215107800,2.83310791015625,0.00543047022074461,-0.01370273157954216,-0.0033466974273324013
1772526342225089800,2.84308984375,0.007379699498414993,-0.003793539945036173,-0.017594976350665092
1772526342235072800,2.85307275390625,0.01118455734103918,0.005104081239551306,-0.023027025163173676
1772526342245054700,2.8630546875,0.0161142535507679,0.007504230830818415,-0.027564693242311478
1772526342255037000,2.873036865234375,0.026512034237384796,0.01384521834552288,-0.0283639095723629
1772526342265020000,2.88302001953125,0.025019146502017975,-0.005662279669195414,-0.028204478323459625
1772526342275001900,2.893001953125,0.01892343908548355,-0.0315261036157608,-0.02876187488436699
1772526342284984800,2.90298486328125,0.01523255743086338,-0.047029443085193634,-0.030970701947808266
1772526342294966800,2.912966796875,0.013589654117822647,-0.04826834425330162,-0.030977094545960426
1772526342304948700,2.92294873046875,0.015083421021699905,-0.044752441346645355,-0.02666676603257656
1772526342314932000,2.932931884765625,0.018327949568629265,-0.02594306506216526,-0.019941220059990883
1772526342324913700,2.94291357421875,0.024308810010552406,-0.013219927437603474,-0.011341245844960213
1772526342334895900,2.952895751953125,0.033017612993717194,0.001802432001568377,-0.004468159284442663
1772526342344878800,2.96287890625,0.03601585328578949,0.01211452204734087,0.000902804546058178
1772526342354860800,2.97286083984375,0.031361714005470276,0.010896392166614532,0.00873835664242506
1772526342364843000,2.982843017578125,0.03007659502327442,0.007385828532278538,0.01206403411924839
1772526342374825700,2.99282568359375,0.030395107343792915,-0.005605869926512241,0.013365520164370537
1772526342384808000,3.002807861328125,0.032554373145103455,-0.017536109313368797,0.009517510421574116
1772526342394791000,3.012791015625,0.0313815176486969,-0.029258809983730316,0.00854838639497757
1772526342404772900,3.02277294921875,0.02718926966190338,-0.03006819263100624,0.009869496338069439
1772526342414754800,3.0327548828125,0.020249338820576668,-0.024178344756364822,0.010110246017575264
1772526342424738000,3.042738037109375,0.015030506998300552,-0.00925314612686634,0.013529030606150627
1772526342434719700,3.0527197265625,0.013501586392521858,0.005976673681288958,0.01853204518556595
1772526342444702000,3.062701904296875,0.01521978061646223,0.01839032582938671,0.020672785118222237
1772526342454684700,3.0726845703125,0.014004846103489399,0.022201042622327805,0.02339213900268078
1772526342464667000,3.0826669921875,0.01977921463549137,0.007918193936347961,0.0210865568369627
1772526342474649900,3.09264990234375,0.023522021248936653,-0.007870089262723923,0.017327237874269485
1772526342484631800,3.1026318359375,0.019791368395090103,-0.01913199946284294,0.01366441324353218
1772526342494613800,3.11261376953125,0.019124511629343033,-0.02118023857474327,0.015066566877067089
1772526342504596700,3.1225966796875,0.015243913978338242,-0.02295413799583912,0.015293551608920097
1772526342514579000,3.132578857421875,0.012414837256073952,-0.01904754713177681,0.017640063539147377
1772526342524561000,3.142560791015625,0.009487412869930267,-0.018991760909557343,0.013089079409837723
1772526342534544000,3.1525439453125,0.007793376222252846,-0.013967707753181458,0.008942803367972374
1772526342544525800,3.16252587890625,0.008107183501124382,-0.00783880241215229,0.0022496581077575684
1772526342554507800,3.1725078125,0.012630563229322433,-0.0020301821641623974,-0.005174968857318163
1772526342564490800,3.18249072265625,0.013633140362799168,-0.005657628178596497,-0.01125221699476242
1772526342574473000,3.192472900390625,0.011375046335160732,-0.013822080567479134,-0.018142879009246826
1772526342584455700,3.20245556640625,0.011970448307693005,-0.012097041122615337,-0.020803553983569145
1772526342594438000,3.21243798828125,0.010700386948883533,-0.017036672681570053,-0.01739311031997204
1772526342604419600,3.222419677734375,0.011269580572843552,-0.016525205224752426,-0.012470347806811333
1772526342614402800,3.23240283203125,0.01385071687400341,-0.013517964631319046,-0.0027277059853076935
1772526342624384800,3.242384765625,0.014527618885040283,-0.012558551505208015,0.00599423935636878
1772526342634366700,3.25236669921875,0.01120106503367424,-0.011393950320780277,0.010568484663963318
1772526342644349700,3.262349609375,0.016469432041049004,-0.01566304638981819,0.005436222534626722
1772526342654332000,3.272331787109375,0.018391702324151993,-0.018253503367304802,0.0016159182414412498
1772526342664314600,3.282314697265625,0.025222642347216606,-0.01480615884065628,-0.003259965218603611
1772526342674296800,3.292296875,0.02453741244971752,-0.003855773014947772,-0.00445971917361021
1772526342684278800,3.30227880859375,0.022876814007759094,0.002112912479788065,-0.006641303189098835
1772526342694261800,3.31226171875,0.028823919594287872,0.0043965731747448444,-0.007828008383512497
1772526342704244000,3.322243896484375,0.025470897555351257,0.007288014516234398,-0.010609861463308334
1772526342714225700,3.3322255859375,0.023534512147307396,-0.009555147960782051,-0.011956889182329178
1772526342724209000,3.342208984375,0.023427816107869148,-0.0019303136505186558,-0.00790444202721119
1772526342734190600,3.352190673828125,0.025701887905597687,0.00979265570640564,0.002610250376164913
1772526342744172800,3.3621728515625,0.02550160139799118,0.006892940029501915,0.009846585802733898
1772526342754155800,3.37215576171875,0.027580197900533676,0.0006025533657521009,0.018181215971708298
1772526342764137700,3.3821376953125,0.02474094368517399,-0.00641708355396986,0.021152867004275322
1772526342774120700,3.39212060546875,0.030494170263409615,-0.006361956708133221,0.01891075260937214
1772526342784103000,3.40210302734375,0.028533805161714554,-0.004476750269532204,0.018107539042830467
1772526342794084900,3.4120849609375,0.018301406875252724,-0.00018506613560020924,0.012324750423431396
1772526342804067800,3.42206787109375,0.007807234767824411,0.008553876541554928,0.007981405593454838
1772526342814049800,3.4320498046875,0.013511460274457932,0.021443042904138565,0.00011815642938017845
1772526342824031700,3.44203173828125,0.01481194794178009,0.03546203300356865,-0.010943911969661713
1772526342834015000,3.452014892578125,0.021393418312072754,0.03454377502202988,-0.01771792769432068
1772526342843996700,3.46199658203125,0.01890035718679428,0.02134687267243862,-0.026146739721298218
1772526342853979000,3.471978759765625,0.013356986455619335,-0.0029989464674144983,-0.03819408267736435
1772526342863961900,3.4819619140625,0.008114423602819443,-0.02133822999894619,-0.03722183033823967
1772526342873943800,3.49194384765625,0.0037087569944560528,-0.03390142321586609,-0.03920508548617363
1772526342883926800,3.5019267578125,0.0001520407386124134,-0.03143685311079025,-0.027925558388233185
1772526342893908700,3.51190869140625,-0.00284055364318192,-0.019226795062422752,-0.016777565702795982
1772526342903891000,3.521890869140625,0.003936029504984617,0.00564213003963232,-0.006789027713239193
1772526342913874000,3.5318740234375,0.008201081305742264,0.01709824986755848,0.0013866107910871506
1772526342923856000,3.54185595703125,0.01312263309955597,0.033553753048181534,0.002506476826965809
1772526342933837800,3.551837890625,0.015750639140605927,0.041212208569049835,0.0017424160614609718
1772526342943820800,3.56182080078125,0.016702909022569656,0.03877660259604454,-0.0033321441151201725
1772526342953802800,3.571802734375,0.013066628947854042,0.030266735702753067,-0.012656137347221375
1772526342963786000,3.581785888671875,0.005795647855848074,0.015790797770023346,-0.020204074680805206
1772526342973767700,3.591767578125,0.0005803792737424374,0.00929295178502798,-0.029684128239750862
1772526342983750000,3.60175,-0.0010415581054985523,0.024097871035337448,-0.03147660940885544
1772526342993732900,3.61173291015625,0.0034594498574733734,0.042249444872140884,-0.03129737824201584
1772526343003714800,3.62171484375,-0.0003908858634531498,0.053671833127737045,-0.021665887907147408
1772526343013697000,3.631697021484375,-0.0010534804314374924,0.05871506407856941,-0.010854784399271011
1772526343023679700,3.6416796875,-0.004961997736245394,0.06116640940308571,-0.005392544902861118
1772526343033662000,3.651661865234375,0.002026936039328575,0.06312675774097443,0.003811606438830495
1772526343043643600,3.6616435546875,0.008225055411458015,0.059167422354221344,0.004592791199684143
1772526343053627000,3.671626953125,0.011044010519981384,0.037807807326316833,0.007119066081941128
1772526343063608800,3.68160888671875,0.008041828870773315,0.011977807618677616,0.013727700337767601
1772526343073591800,3.691591796875,0.00598134147003293,-0.008769015781581402,0.019093170762062073
1772526343083573800,3.70157373046875,0.003235933370888233,-0.011656544171273708,0.026783064007759094
1772526343093555200,3.71155517578125,0.0026319287717342377,-0.013153506442904472,0.02487810328602791
1772526343103538200,3.7215380859375,0.000007620081305503845,-0.00484613049775362,0.016268093138933182
1772526343113520400,3.731520263671875,-0.0034933711867779493,0.000821608817204833,0.005297999829053879
1772526343123502300,3.74150244140625,-0.003997672349214554,0.01010560616850853,-0.008133471012115479
1772526343133485300,3.7514853515625,-0.0020202749874442816,0.012927226722240448,-0.011942058801651001
1772526343143467500,3.761467529296875,-0.0017385943792760372,0.018704529851675034,-0.009915834292769432
1772526343153449200,3.77144921875,0.0030191424302756786,0.02168700285255909,-0.003939966205507517
1772526343163432400,3.781432373046875,0.0001619141548871994,0.023033907637000084,0.0075253816321492195
1772526343173414100,3.7914140625,-0.002529476536437869,0.020699912682175636,0.011178173124790192
1772526343183397400,3.8013974609375,-0.004474213346838951,0.013194655068218708,0.017117908224463463
1772526343193379300,3.81137939453125,-0.004557304084300995,-0.0007182310800999403,0.015277130529284477
1772526343203361300,3.821361328125,-0.007900012657046318,-0.013055401854217052,0.00810009054839611
1772526343213344300,3.83134423828125,-0.007063246797770262,-0.01932874321937561,0.003144480288028717
1772526343223326200,3.841326171875,-0.01070006936788559,-0.015510071069002151,-0.0015695844776928425
1772526343233308400,3.851308349609375,-0.010706194676458836,-0.008775735273957253,-0.001588225830346346
1772526343243291400,3.86129150390625,-0.017010575160384178,0.00524315657094121,0.00044155726209282875
1772526343253273300,3.8712734375,-0.021217836067080498,0.02196727693080902,-0.0029611638747155666
1772526343263255300,3.88125537109375,-0.022906556725502014,0.024908974766731262,-0.004997153766453266
1772526343273238500,3.891238525390625,-0.024578489363193512,0.02748238667845726,-0.00899402517825365
1772526343283220200,3.90122021484375,-0.02405627816915512,0.011387461796402931,-0.012948029674589634
1772526343293203500,3.911203369140625,-0.023653872311115265,-0.001419146778061986,-0.01896917074918747
1772526343303185200,3.92118505859375,-0.020736724138259888,-0.010450863279402256,-0.018105950206518173
1772526343313167400,3.93116748046875,-0.01600508764386177,-0.012147828936576843,-0.01248987577855587
1772526343323150300,3.941150390625,-0.014663386158645153,-0.006416440941393375,-0.005851947236806154
1772526343333132300,3.95113232421875,-0.014817848801612854,-0.010550731793045998,-0.0015275063924491405
1772526343343114500,3.961114501953125,-0.011658299714326859,-0.01296950038522482,-0.0006017950363457203
1772526343353097200,3.97109716796875,-0.0033002349082380533,-0.014961545355618,-0.008241338655352592
1772526343363079400,3.981079345703125,-0.0003752307966351509,-0.019166233018040657,-0.019848180934786797
1772526343373061400,3.991061279296875,0.008583909831941128,-0.01858140341937542,-0.028756722807884216
1772526343383044400,4.00104443359375,0.012504144571721554,-0.01132685411721468,-0.03438860550522804
1772526343393026300,4.0110263671875,0.011182685382664204,-0.003980791196227074,-0.04038338363170624
1772526343403009500,4.021009521484375,0.010241267271339893,0.006124870851635933,-0.04208194091916084
1772526343412991200,4.0309912109375,0.008728857152163982,0.010615493170917034,-0.04686178267002106
1772526343422973400,4.040973388671875,0.005719935987144709,0.0025478219613432884,-0.05380641669034958
1772526343432956200,4.0509560546875,-0.0011486224830150604,-0.02280733548104763,-0.0605335608124733
1772526343442938400,4.0609384765625,-0.001137442421168089,-0.03751492500305176,-0.06265690177679062
1772526343452920300,4.07092041015625,-0.0020732770208269358,-0.03560490533709526,-0.059691742062568665
1772526343462903300,4.0809033203125,0.0013073249720036983,-0.028047166764736176,-0.052294813096523285
1772526343472885200,4.09088525390625,0.0005219588056206703,-0.01755378022789955,-0.04483636096119881
1772526343482867200,4.1008671875,0.006344462279230356,-0.004362771287560463,-0.03599146381020546
1772526343492850200,4.11085009765625,0.013732338324189186,0.0077221207320690155,-0.030642502009868622
1772526343502832400,4.120832275390625,0.01623612456023693,0.010228426195681095,-0.025280946865677834
1772526343512815400,4.1308154296875,0.019385846331715584,0.011898228898644447,-0.013718301430344582
1772526343522797300,4.14079736328125,0.02096187323331833,0.012956200167536736,0.0008696899749338627
1772526343532779300,4.150779296875,0.013495701365172863,0.004686552565544844,0.01293434202671051
1772526343542762200,4.16076220703125,0.002061522100120783,0.0029634456150233746,0.022727763280272484
1772526343552744400,4.170744384765625,-0.00665207440033555,0.0013170794118195772,0.029971029609441757
1772526343562726100,4.18072607421875,-0.00804602075368166,-0.005692142993211746,0.02078908309340477
1772526343572709400,4.19070947265625,-0.010943006724119186,-0.017177823930978775,0.011691458523273468
1772526343582691300,4.20069140625,-0.012307108379900455,-0.015478815883398056,0.01179797574877739
1772526343592673300,4.21067333984375,-0.017740223556756973,-0.01627962850034237,0.012094918638467789
1772526343602656300,4.22065625,-0.024621207267045975,-0.010167752392590046,0.012910289689898491
1772526343612638200,4.23063818359375,-0.02807852253317833,-0.0063138920813798904,0.016842979937791824
1772526343622621200,4.24062109375,-0.035766083747148514,-0.0038261243607848883,0.018936848267912865
1772526343632603400,4.250603271484375,-0.04216859117150307,-0.0183816310018301,0.019606100395321846
1772526343642585300,4.26058544921875,-0.04583655297756195,-0.026260297745466232,0.012617436237633228
1772526343652568300,4.270568359375,-0.046288494020700455,-0.03753425553441048,0.011823281645774841
1772526343662550300,4.28055029296875,-0.04842658340930939,-0.04675435274839401,0.01138926949352026
1772526343672532200,4.2905322265625,-0.04680631682276726,-0.051037516444921494,0.014828741550445557
1772526343682515500,4.300515380859375,-0.04823606461286545,-0.04191463813185692,0.01825694367289543
1772526343692497200,4.3104970703125,-0.04782167822122574,-0.029643589630723,0.02534601278603077
1772526343702479400,4.320479248046875,-0.04451947659254074,-0.013010288588702679,0.03025003895163536
1772526343712462300,4.33046240234375,-0.047542694956064224,-0.005039447918534279,0.024364452809095383
1772526343722444300,4.3404443359375,-0.04309847950935364,-0.004990551620721817,0.011537699028849602
1772526343732427300,4.35042724609375,-0.039526380598545074,-0.004351926036179066,0.00884684082120657
1772526343742409200,4.3604091796875,-0.03188951313495636,-0.004995377734303474,0.005422811955213547
1772526343752391400,4.370391357421875,-0.02942528761923313,-0.001230200519785285,0.0072859590873122215
1772526343762374400,4.38037451171875,-0.0283360555768013,-0.00034469948150217533,0.008207147009670734
1772526343772356400,4.3903564453125,-0.026064112782478333,-0.006229487247765064,0.010359779931604862
1772526343782338300,4.40033837890625,-0.02536742016673088,-0.014203225262463093,0.01339791715145111
1772526343792321300,4.4103212890625,-0.020277319476008415,-0.01704375445842743,0.020389247685670853
1772526343802303200,4.42030322265625,-0.016526436433196068,-0.015620652586221695,0.023486148566007614
1772526343812285400,4.430285400390625,-0.014713089913129807,-0.011885037645697594,0.02725052647292614
1772526343822268200,4.44026806640625,-0.008983850479125977,-0.0048375800251960754,0.03217603638768196
1772526343832250400,4.45025048828125,-0.005616283975541592,0.0008357518818229437,0.03427780419588089
1772526343842233300,4.4602333984375,-0.004747638013213873,-0.0005934389773756266,0.030582226812839508
1772526343852215300,4.47021533203125,-0.003796356962993741,-0.0014043713454157114,0.025086794048547745
1772526343862197500,4.480197509765625,-0.004392449744045734,-0.009876825846731663,0.02113901637494564
1772526343872180200,4.49018017578125,-0.005377020686864853,-0.015017526224255562,0.021524641662836075
1772526343882162400,4.500162353515625,-0.008317072875797749,-0.018109316006302834,0.023523252457380295
1772526343892144000,4.51014404296875,-0.015607209876179695,-0.020393509417772293,0.027803217992186546
1772526343902127400,4.52012744140625,-0.02085934206843376,-0.01692686416208744,0.030948497354984283
1772526343912109300,4.530109375,-0.024295087903738022,-0.009504633955657482,0.03376398980617523
1772526343922091300,4.54009130859375,-0.026097653433680534,0.0010018418543040752,0.04064072296023369
1772526343932074200,4.55007421875,-0.03306315094232559,0.011199617758393288,0.0418495312333107
1772526343942056400,4.560056396484375,-0.037738971412181854,0.010945849120616913,0.03236823156476021
1772526343952038400,4.570038330078125,-0.03504065424203873,0.0038501231465488672,0.022116126492619514
1772526343962021400,4.580021484375,-0.028736786916851997,0.0023641223087906837,0.013446290977299213
1772526343972003300,4.59000341796875,-0.023359598591923714,-0.005923101678490639,0.01105290837585926
1772526343981986300,4.599986328125,-0.02193593978881836,-0.011683624237775803,0.012247961945831776
1772526343991968500,4.609968505859375,-0.027016721665859222,-0.012053802609443665,0.018292272463440895
1772526344001950200,4.6199501953125,-0.029527101665735245,-0.007763356901705265,0.016933882609009743
1772526344011933400,4.629933349609375,-0.03361772000789642,-0.012287535704672337,0.012455778196454048
1772526344021915100,4.6399150390625,-0.043010205030441284,-0.022599633783102036,-0.0003746962174773216
1772526344031897300,4.6498974609375,-0.04948834329843521,-0.04180208966135979,-0.015281474217772484
1772526344041880300,4.65988037109375,-0.048440273851156235,-0.05276668071746826,-0.02597106620669365
1772526344051862300,4.6698623046875,-0.04347560927271843,-0.05322128161787987,-0.02911945804953575
1772526344061844200,4.67984423828125,-0.03665902838110924,-0.038162216544151306,-0.02410648763179779
1772526344071827500,4.689827392578125,-0.02981044165790081,-0.020780028775334358,-0.0166363213211298
1772526344081809400,4.699809326171875,-0.021813102066516876,-0.009130612947046757,-0.007131156045943499
1772526344091792400,4.70979248046875,-0.017216486856341362,0.008472881279885769,-0.005855234805494547
1772526344101775000,4.719775146484375,-0.015304486267268658,0.010239627212285995,-0.006532292813062668
1772526344111757000,4.729757080078125,-0.01823156699538231,0.0014069874305278063,-0.010679366998374462
1772526344121740000,4.739739990234375,-0.017559142783284187,-0.004338598810136318,-0.012098305858671665
1772526344131722200,4.74972216796875,-0.016294140368700027,-0.004081336781382561,-0.014562527649104595
1772526344141704200,4.7597041015625,-0.007961729541420937,-0.003504668129608035,-0.012933383695781231
1772526344151687200,4.769687255859375,0.00031564105302095413,-0.008107142522931099,-0.007222766987979412
1772526344161669400,4.77966943359375,0.008684358559548855,-0.005907904356718063,-0.006001707166433334
1772526344171651000,4.789651123046875,0.009905340149998665,-0.005588996224105358,0.00003949785605072975
1772526344181634300,4.79963427734375,0.007571627385914326,-0.001222164137288928,0.0006762640550732613
1772526344191616000,4.809615966796875,0.0025291983038187027,0.002078291494399309,-0.0010015275329351425
1772526344201599200,4.81959912109375,-0.0034725985024124384,0.006180421449244022,-0.007374119479209185
1772526344211581200,4.829581298828125,-0.006250009406358004,0.010437218472361565,-0.0131614338606596
1772526344221563100,4.839563232421875,-0.003916722256690264,0.01714431121945381,-0.01578526757657528
1772526344231546000,4.849546142578125,-0.0027041849680244923,0.02207142487168312,-0.013122906908392906
1772526344241528000,4.859528076171875,-0.0012108678929507732,0.025918517261743546,-0.0069330125115811825
1772526344251510000,4.869510009765625,-0.00046172086149454117,0.025742482393980026,0.001515333540737629
1772526344261493200,4.8794931640625,-0.0007392368279397488,0.02293945476412773,-0.0003874977119266987
1772526344271475200,4.88947509765625,-0.001766418106853962,0.01733643189072609,-0.0009747250005602837
1772526344281457200,4.89945703125,-0.0035626287572085857,0.009158052504062653,-0.009256711229681969
1772526344291440000,4.909440185546875,-0.0014685853384435177,0.0065401652827858925,-0.014890627935528755
1772526344301422000,4.919422119140625,0.0007713893428444862,0.014120019041001797,-0.017170563340187073
1772526344311404300,4.929404296875,0.0029314798302948475,0.024190496653318405,-0.013995807617902756
1772526344321387000,4.939386962890625,0.010428616777062416,0.022912561893463135,-0.017220987007021904
1772526344331369200,4.949369140625,0.017233526334166527,0.015145186334848404,-0.01720074564218521
1772526344341352200,4.959352294921875,0.02493080124258995,0.006917552091181278,-0.012738259509205818
1772526344351334100,4.969334228515625,0.02750740945339203,0.005799290724098682,-0.010204529389739037
1772526344361316000,4.979316162109375,0.030906803905963898,-0.003544213715940714,-0.011423371732234955
1772526344371299300,4.98929931640625,0.030882835388183594,-0.004780985880643129,-0.009846247732639313
1772526344381281000,4.999281005859375,0.03440365940332413,0.004173130728304386,-0.007109139114618301
1772526344391263200,5.00926318359375,0.03289417922496796,0.01596054807305336,-0.0020201047882437706
1772526344401246000,5.019245849609375,0.0358610562980175,0.019075917080044746,-0.004880688153207302
1772526344411228200,5.029228271484375,0.03905684873461723,0.02138807438313961,-0.01016812864691019
1772526344421210000,5.039210205078125,0.04180291295051575,0.02336321398615837,-0.016647690907120705
1772526344431193000,5.049193115234375,0.04189266264438629,0.02876809984445572,-0.01716514304280281
1772526344441175300,5.05917529296875,0.042412951588630676,0.03446522727608681,-0.020816247910261154
1772526344451158000,5.069157958984375,0.04243399202823639,0.03797314316034317,-0.023271681740880013
1772526344461140200,5.07914013671875,0.046497613191604614,0.03566717356443405,-0.025258313864469528
1772526344471122200,5.0891220703125,0.05027450993657112,0.035500992089509964,-0.024468686431646347
1772526344481105200,5.099105224609375,0.05252309888601303,0.03285583108663559,-0.024805665016174316
1772526344491087000,5.109087158203125,0.054415542632341385,0.02659687027335167,-0.022441845387220383
1772526344501069000,5.119069091796875,0.05281037092208862,0.030928611755371094,-0.014286089688539505
1772526344511052000,5.129052001953125,0.05081619322299957,0.039359647780656815,-0.00031754374504089355
1772526344521034200,5.1390341796875,0.04621222987771034,0.042964205145835876,0.008803166449069977
1772526344531016200,5.14901611328125,0.0402294397354126,0.03969703987240791,0.013176077045500278
1772526344540999200,5.158999267578125,0.037491511553525925,0.02808257006108761,0.009258206002414227
1772526344550981000,5.168981201171875,0.03488587215542793,0.018005967140197754,-0.0005036108195781708
1772526344560964000,5.178964111328125,0.033997196704149246,0.012032561004161835,-0.011182082816958427
1772526344570946300,5.1889462890625,0.029664766043424606,0.006185324862599373,-0.023868316784501076
1772526344580928000,5.198927978515625,0.02220533788204193,0.003131384029984474,-0.03273274004459381
1772526344590911200,5.2089111328125,0.019157350063323975,0.007812422700226307,-0.03936081379652023
1772526344600893200,5.21889306640625,0.014663707464933395,0.012066634371876717,-0.04357198253273964
1772526344610875100,5.228875244140625,0.008150679990649223,0.005896355956792831,-0.04681997373700142
1772526344620858000,5.238858154296875,0.0052300263196229935,-0.011954179964959621,-0.050202175974845886
1772526344630840000,5.248840087890625,0.0020773764699697495,-0.03297317773103714,-0.05282299220561981
1772526344640822300,5.258822265625,0.0031046774238348007,-0.042504988610744476,-0.0517941415309906
1772526344650805200,5.26880517578125,0.007076515816152096,-0.04361739009618759,-0.049902498722076416
1772526344660787200,5.278787109375,0.009644868783652782,-0.030476020649075508,-0.03867754340171814
1772526344670769200,5.28876904296875,0.012636663392186165,-0.008094282820820808,-0.029751159250736237
1772526344680752000,5.298752197265625,0.01993637904524803,0.005667566321790218,-0.01857254095375538
1772526344690734000,5.308734130859375,0.026754602789878845,0.016254963353276253,-0.010317806154489517
1772526344700717300,5.31871728515625,0.025760121643543243,0.031069524586200714,-0.00016520870849490166
1772526344710699000,5.328698974609375,0.030326910316944122,0.03949017450213432,0.006807213183492422
1772526344720681200,5.33868115234375,0.03744438290596008,0.042398691177368164,0.01544979028403759
1772526344730664200,5.348664306640625,0.04791247099637985,0.024467360228300095,0.019352387636899948
1772526344740646100,5.358646240234375,0.04573078453540802,0.016372065991163254,0.031961653381586075
1772526344750628400,5.36862841796875,0.040595412254333496,0.009869690984487534,0.04191521555185318
1772526344760611000,5.378611083984375,0.028331825509667397,-0.005727360025048256,0.04612087830901146
1772526344770593300,5.38859326171875,0.017567060887813568,-0.012660367414355278,0.05035983398556709
1772526344780576300,5.398576171875,0.012830721214413643,-0.00816689245402813,0.045932505279779434
1772526344790558200,5.40855810546875,0.006850060541182756,-0.001265576807782054,0.034859880805015564
1772526344800540200,5.4185400390625,0.004809832200407982,0.007949559018015862,0.02528209425508976
1772526344810523100,5.428523193359375,0.0028590671718120575,0.012168539687991142,0.01835547760128975
1772526344820505000,5.438505126953125,0.0021796943619847298,0.01943097822368145,0.018802624195814133
1772526344830487300,5.4484873046875,0.0017116600647568703,0.023311197757720947,0.024621181190013885
1772526344840470000,5.458469970703125,-0.0006519481539726257,0.01904742233455181,0.0239296555519104
1772526344850452200,5.4684521484375,-0.002272481331601739,0.007289298810064793,0.024682797491550446
1772526344860434200,5.47843408203125,-0.0017736959271132946,-0.0003212972078472376,0.015862133353948593
1772526344870417200,5.488417236328125,-0.005669634323567152,-0.011349180713295937,0.012981925159692764
1772526344880399000,5.498399169921875,-0.008832158520817757,-0.01576637290418148,0.00483025424182415
1772526344890381000,5.508381103515625,-0.010301956906914711,-0.0037001215387135744,0.004781251773238182
1772526344900364300,5.5183642578125,-0.009670297615230083,0.008987956680357456,0.002200213260948658
1772526344910346000,5.528345947265625,-0.006492081563919783,0.011343789286911488,-0.005936542525887489
1772526344920329200,5.5383291015625,0.0038161915726959705,0.007496506907045841,-0.01329379715025425
1772526344930311200,5.548311279296875,0.011868258938193321,0.003924408461898565,-0.01978631690144539
1772526344940293000,5.558293212890625,0.017527032643556595,0.005949648097157478,-0.018381856381893158
1772526344950276000,5.568276123046875,0.01889030449092388,0.0034872894175350666,-0.01400042325258255
1772526344960258300,5.57825830078125,0.013027993962168694,-0.001054228050634265,-0.007249127607792616
1772526344970240000,5.588239990234375,0.0089805219322443,0.002972471760585904,0.0008197175338864326
1772526344980223200,5.59822314453125,0.002778270747512579,0.003347928635776043,0.00009560026228427887
1772526344990205000,5.608204833984375,-0.000011124648153781891,0.0023886580020189285,-0.001994714606553316
1772526345000187100,5.618187255859375,-0.004074416123330593,0.0007465770468115807,-0.005557671654969454
1772526345010170000,5.628170166015625,-0.0006565148942172527,0.0025338244158774614,-0.007710570935159922
1772526345020152000,5.638152099609375,0.001278025098145008,0.005888412706553936,-0.009109793230891228
1772526345030135000,5.648135009765625,0.005293272901326418,-0.0006520450115203857,-0.00435525132343173
1772526345040117200,5.6581171875,-0.0013953284360468388,-0.003994968719780445,-0.0014262143522500992
1772526345050099200,5.66809912109375,-0.009226087480783463,-0.0053678276017308235,0.00419625174254179
1772526345060082200,5.678082275390625,-0.013590920716524124,-0.009271050803363323,0.014481823891401291
1772526345070064000,5.688064208984375,-0.016016528010368347,-0.005025438964366913,0.020818814635276794
1772526345080046000,5.698046142578125,-0.019734730944037437,-0.0057099200785160065,0.03230414539575577
1772526345090029300,5.708029296875,-0.01547180861234665,-0.001774301053956151,0.036928460001945496
1772526345100010800,5.7180107421875,-0.005337189882993698,0.011870808899402618,0.038094911724328995
1772526345109992700,5.72799267578125,0.002478389535099268,0.014310796745121479,0.04132159799337387
1772526345119975700,5.7379755859375,0.002366376109421253,0.011527234688401222,0.036977894604206085
1772526345129957600,5.74795751953125,0.0010361275635659695,0.010741867125034332,0.026493564248085022
1772526345139940900,5.75794091796875,0.0006864499300718307,0.006001158617436886,0.019969617947936058
1772526345149922600,5.767922607421875,-0.0032097548246383667,0.004351862706243992,0.01769820787012577
1772526345159904800,5.77790478515625,-0.004717282950878143,0.017149588093161583,0.016056280583143234
1772526345169887700,5.7878876953125,-0.002967319916933775,0.0033259186893701553,0.018722370266914368
1772526345179869700,5.79786962890625,-0.0024868459440767765,0.00565683888271451,0.028555307537317276
1772526345189851600,5.8078515625,-0.005538828670978546,0.013541926629841328,0.033240873366594315
1772526345199834600,5.817834716796875,0.0006305337883532047,0.011410869657993317,0.022677522152662277
1772526345209816600,5.827816650390625,0.0035624075680971146,-0.0017139867413789034,0.006155537441372871
1772526345219798800,5.837798828125,-0.0009572431445121765,-0.018427720293402672,-0.011708946898579597
1772526345229781500,5.847781494140625,-0.004133328795433044,-0.03791167214512825,-0.023529386147856712
1772526345239763700,5.857763671875,-0.007708284072577953,-0.04023435711860657,-0.02861212193965912
1772526345249745700,5.86774560546875,-0.005395328626036644,-0.03559726104140282,-0.02362961508333683
1772526345259728600,5.877728759765625,0.0015645087696611881,-0.020338522270321846,-0.01695617288351059
1772526345269710800,5.8877109375,0.010638698004186153,0.0028642690740525723,0.001240408979356289
1772526345279693600,5.897693603515625,0.019182883203029633,0.028103195130825043,0.01323554664850235
1772526345289675800,5.90767578125,0.032610274851322174,0.018490515649318695,0.023086313158273697
1772526345299657500,5.917657470703125,0.03459904342889786,0.0035090327728539705,0.03129000589251518
1772526345309640700,5.927640625,0.026470810174942017,-0.005097771063446999,0.033346764743328094
1772526345319622700,5.93762255859375,0.03123455122113228,-0.003688086988404393,0.0233268141746521
1772526345329604600,5.9476044921875,0.03484419733285904,0.005472654476761818,0.004602661821991205
1772526345339587600,5.957587646484375,0.03513684123754501,0.004624054301530123,-0.013345194980502129
1772526345349569800,5.96756982421875,0.02319948747754097,-0.0006921477615833282,-0.0198528952896595
1772526345359551700,5.9775517578125,0.013023974373936653,-0.0009600354824215174,-0.016602421179413795
1772526345369534700,5.98753466796875,0.008353056386113167,0.005768174771219492,-0.003490081522613764
1772526345379516700,5.9975166015625,0.010134493932127953,0.017068125307559967,0.0008277157321572304
1772526345389499600,6.007499755859375,0.012755043804645538,0.009821129962801933,-0.0013230531476438046
1772526345399481900,6.01748193359375,0.018072189763188362,-0.007177039980888367,-0.006209343206137419
1772526345409463600,6.027463623046875,0.01931695081293583,-0.03606035187840462,-0.0048774960450828075
1772526345419446800,6.03744677734375,0.006046618800610304,-0.08375900983810425,-0.00023604417219758034
1772526345429428500,6.047428466796875,0.01223314180970192,-0.08967655152082443,0.00995294377207756
1772526345439410700,6.05741064453125,0.026476485654711723,-0.09165594726800919,0.018454276025295258
1772526345449393700,6.0673935546875,0.038831956684589386,-0.06916715204715729,0.03127073869109154
1772526345459375600,6.077375732421875,0.03664844483137131,-0.03770158439874649,0.03606416657567024
1772526345469357800,6.08735791015625,0.028159085661172867,-0.013343511149287224,0.029282426461577415
1772526345479340800,6.0973408203125,0.02775384858250618,-0.000021908432245254517,0.012043964117765427
1772526345489322800,6.10732275390625,0.029717929661273956,0.0011189898941665888,-0.014346364885568619
1772526345499305700,6.1173056640625,0.02581976354122162,-0.0011744627263396978,-0.0306171253323555
1772526345509287700,6.12728759765625,0.01939515769481659,-0.005492778494954109,-0.03404993936419487
1772526345519269600,6.13726953125,0.016791122034192085,-0.009557278826832771,-0.02821735106408596
1772526345529252900,6.1472529296875,0.01729445904493332,-0.012285953387618065,-0.01130015216767788
1772526345539234600,6.157234619140625,0.01775296777486801,-0.01678287424147129,0.011222022585570812
1772526345549216800,6.167216796875,0.015575035475194454,-0.021100923418998718,0.026623083278536797
1772526345559199700,6.17719970703125,0.008072784170508385,-0.017402105033397675,0.037893928587436676
1772526345569181700,6.187181640625,0.005662890151143074,-0.02627362683415413,0.03956612944602966
1772526345579164000,6.197163818359375,0.009988343343138695,-0.02182326465845108,0.02799185924232006
1772526345589146600,6.207146728515625,0.01675223931670189,-0.008755400776863098,0.012030735611915588
1772526345599128800,6.21712890625,0.020692424848675728,0.004001928493380547,-0.0030066301114857197
1772526345609111800,6.22711181640625,0.01969054341316223,0.005585976876318455,-0.014797510579228401
1772526345619093800,6.23709375,0.0156476479023695,0.0008097805548459291,-0.02018907479941845
1772526345629075700,6.24707568359375,0.010273389518260956,0.0004257527180016041,-0.016491275280714035
1772526345639058700,6.25705859375,0.018983732908964157,0.00021980865858495235,-0.012505490332841873
1772526345649040600,6.26704052734375,0.020660191774368286,-0.001203651074320078,-0.001241383608430624
1772526345659022800,6.27702294921875,0.01605420559644699,0.010925292037427425,0.018213525414466858
1772526345669005600,6.287005615234375,0.016554879024624825,0.029529601335525513,0.03567694127559662
1772526345678987800,6.29698779296875,0.015463188290596008,0.02514035813510418,0.05515991896390915
1772526345688969700,6.3069697265625,0.020847033709287643,0.006912884768098593,0.06123698875308037
1772526345698952700,6.31695263671875,0.021452628076076508,-0.006955292075872421,0.06092699617147446
1772526345708934700,6.3269345703125,0.02669985592365265,0.006205250974744558,0.0457746721804142
1772526345718917600,6.336917724609375,0.03353407233953476,0.024188026785850525,0.030338462442159653
1772526345728899800,6.34689990234375,0.03787422552704811,0.02847997657954693,0.015972573310136795
1772526345738881500,6.356881591796875,0.03201853483915329,0.02460971288383007,0.005081214942038059
1772526345748864800,6.36686474609375,0.029657909646630287,0.02129780687391758,0.006936106830835342
1772526345758846700,6.3768466796875,0.021925410255789757,0.021103892475366592,0.014340225607156754
1772526345768828700,6.38682861328125,0.015053655952215195,0.014518694952130318,0.02472895011305809
1772526345778811600,6.396811767578125,0.0076816207729279995,0.008339397609233856,0.02770921401679516
1772526345788793900,6.4067939453125,0.0001131831668317318,-0.01341862790286541,0.019621726125478745
1772526345798775600,6.416775634765625,-0.002332243137061596,-0.04745940491557121,-0.001725290436297655
1772526345808758800,6.4267587890625,-0.005438287742435932,-0.05965561792254448,-0.028048772364854813
1772526345818740500,6.436740478515625,-0.005066699348390102,-0.05467643216252327,-0.05342479795217514
1772526345828722700,6.44672265625,-0.004067215137183666,-0.03830758109688759,-0.07065997272729874
1772526345838705700,6.45670556640625,0.0006829826161265373,-0.01097970549017191,-0.07690019905567169
1772526345848687600,6.4666875,0.0013240054249763489,0.010335702449083328,-0.07739502191543579
1772526345858670600,6.476670654296875,0.005717713385820389,0.02751929685473442,-0.06835971027612686
1772526345868652500,6.486652587890625,0.00698857381939888,0.029393363744020462,-0.06156012415885925
1772526345878634800,6.496634765625,0.012112447060644627,0.013861637562513351,-0.048412371426820755
1772526345888617700,6.50661767578125,0.013985182158648968,-0.0021522161550819874,-0.030777983367443085
1772526345898599700,6.516599609375,0.009978151880204678,-0.0030776667408645153,-0.025717880576848984
1772526345908581600,6.52658154296875,0.0015537743456661701,-0.002908556256443262,-0.020571855828166008
1772526345918564900,6.53656494140625,0.005000964738428593,-0.0012869727797806263,-0.018083132803440094
1772526345928546600,6.546546630859375,-0.0006641116924583912,-0.010364623740315437,-0.013103554025292397
1772526345938528800,6.55652880859375,-0.006266951560974121,-0.019149750471115112,0.0011319322511553764
1772526345948511500,6.566511474609375,-0.012679576873779297,-0.01293313317000866,0.010718246921896935
1772526345958493700,6.57649365234375,-0.009553777985274792,0.0027952701784670353,0.01808764785528183
1772526345968476700,6.5864765625,0.0007374756969511509,0.022695740684866905,0.018897248432040215
1772526345978458600,6.596458740234375,-0.0004604766145348549,0.03840537369251251,0.018897607922554016
1772526345988440800,6.60644091796875,-0.004292232915759087,0.0402434878051281,0.013898056000471115
1772526345998423600,6.616423583984375,-0.007833022624254227,0.03349662944674492,0.008940133266150951
1772526346008405800,6.62640576171875,-0.011328155174851418,0.02146979235112667,0.0023844963870942593
1772526346018387700,6.6363876953125,-0.008201327174901962,0.02300700731575489,-0.0026190495118498802
1772526346028370700,6.64637060546875,-0.0003308872692286968,0.03263247013092041,0.0027536111883819103
1772526346038352600,6.6563525390625,0.0034314566291868687,0.04236386716365814,0.017374811694025993
1772526346048334600,6.66633447265625,0.0034016300924122334,0.03855661302804947,0.0312671922147274
1772526346058317600,6.676317626953125,0.0007264893501996994,0.031057430431246758,0.035076044499874115
1772526346068299800,6.6862998046875,0.010183639824390411,0.029900820925831795,0.025559505447745323
1772526346078282500,6.696282470703125,0.015865296125411987,0.04100897163152695,0.008020898327231407
1772526346088264700,6.7062646484375,0.015608567744493484,0.033104706555604935,-0.010667034424841404
1772526346098247200,6.7162470703125,0.008749713189899921,0.021105840802192688,-0.024880940094590187
1772526346108230400,6.72623046875,0.0060053253546357155,0.0022322852164506912,-0.04957137629389763
1772526346118212000,6.736212158203125,-0.00253484770655632,-0.0011903585400432348,-0.06634432822465897
1772526346128194300,6.7461943359375,-0.03309302404522896,0.010850325226783752,-0.0969320610165596
1772526346138177300,6.75617724609375,-0.08779904246330261,0.024472620338201523,-0.14237339794635773
1772526346148159200,6.7661591796875,-0.15418392419815063,0.04600640758872032,-0.216749906539917
1772526346158141400,6.776141357421875,-0.22412090003490448,0.0733126774430275,-0.31258106231689453
1772526346168124200,6.786124267578125,-0.2666204273700714,0.035098716616630554,-0.40816405415534973
1772526346178106400,6.7961064453125,-0.2974420189857483,-0.001492170849815011,-0.4723699390888214
1772526346188088300,6.80608837890625,-0.32103070616722107,-0.016413863748311996,-0.5009664297103882
1772526346198071300,6.8160712890625,-0.33182424306869507,0.011194649152457714,-0.5109951496124268
1772526346208053200,6.82605322265625,-0.3217649459838867,0.05260440707206726,-0.506127119064331
1772526346218036500,6.836036376953125,-0.3114803731441498,0.06934306025505066,-0.4906195402145386
1772526346228018200,6.84601806640625,-0.30308768153190613,0.05912744253873825,-0.4659634530544281
1772526346238000400,6.85600048828125,-0.2959725260734558,0.02806146629154682,-0.4311736524105072
1772526346247983000,6.865983154296875,-0.28304556012153625,0.003421633969992399,-0.387365460395813
1772526346257965300,6.87596533203125,-0.2588697671890259,-0.02228023298084736,-0.3354420065879822
1772526346267947500,6.885947509765625,-0.23407091200351715,-0.06626233458518982,-0.27822983264923096
1772526346277930200,6.89593017578125,-0.2014187127351761,-0.09653668105602264,-0.20894159376621246
1772526346287912400,6.905912353515625,-0.1776561290025711,-0.09984885901212692,-0.13387800753116608
1772526346297894100,6.91589404296875,-0.1405683159828186,-0.08359509706497192,-0.05784137547016144
1772526346307877400,6.92587744140625,-0.09770606458187103,-0.06459876894950867,-0.0021866378374397755
1772526346317859300,6.935859375,-0.060060594230890274,-0.057649049907922745,0.03158455714583397
1772526346327842300,6.94584228515625,-0.022385120391845703,-0.06190824136137962,0.05126265063881874
1772526346337824300,6.95582421875,0.006455123424530029,-0.06031102314591408,0.06628305464982986
1772526346347806200,6.96580615234375,0.02913033962249756,-0.051086895167827606,0.06990495324134827
1772526346357789200,6.9757890625,0.03811429813504219,-0.03906536102294922,0.056491050869226456
1772526346367771400,6.985771484375,0.04558925703167915,-0.036339350044727325,0.025853779166936874
1772526346377753300,6.99575341796875,0.05740164592862129,-0.03251219540834427,-0.010740093886852264
1772526346387736300,7.005736328125,0.060963090509176254,-0.02121560089290142,-0.04713591933250427
1772526346397718500,7.015718505859375,0.06582861393690109,0.006755726411938667,-0.07367369532585144
1772526346407700200,7.0257001953125,0.06482859700918198,0.055969610810279846,-0.10090505331754684
1772526346417683500,7.035683349609375,0.058498769998550415,0.09403113275766373,-0.12538029253482819
1772526346427665200,7.0456650390625,0.06326715648174286,0.10696238279342651,-0.1460466980934143
1772526346437647400,7.0556474609375,0.05428512021899223,0.07136925309896469,-0.15708868205547333
1772526346447630300,7.06563037109375,0.040758125483989716,0.06370148062705994,-0.1508832573890686
1772526346457612300,7.0756123046875,0.03917507082223892,0.06919253617525101,-0.12927748262882233
1772526346467595300,7.08559521484375,0.05177022144198418,0.05152592062950134,-0.10201896727085114
1772526346477577200,7.0955771484375,0.06262277811765671,0.05312178283929825,-0.0652904212474823
1772526346487559400,7.105559326171875,0.062139950692653656,0.05113000422716141,-0.03271942585706711
1772526346497542400,7.11554248046875,0.0555189847946167,0.03567179664969444,-0.007568710017949343
1772526346507524400,7.1255244140625,0.045628003776073456,0.02126968838274479,0.007722894661128521
1772526346517506300,7.13550634765625,0.03456426411867142,0.012204492464661598,0.015862759202718735
1772526346527489500,7.145489501953125,0.02695028856396675,0.006654197815805674,0.023320144042372704
1772526346537471200,7.15547119140625,0.02507622167468071,0.015898829326033592,0.033070508390665054
1772526346547453400,7.165453369140625,0.021986955776810646,0.022108787670731544,0.038595233112573624
1772526346557436200,7.175436279296875,0.021963227540254593,0.01988682895898819,0.047257162630558014
1772526346567418400,7.18541845703125,0.021848177537322044,0.02313721738755703,0.05443091690540314
1772526346577401300,7.1954013671875,0.02585625648498535,0.03227752074599266,0.06206247955560684
1772526346587383300,7.20538330078125,0.014793751761317253,0.03875752538442612,0.06505800038576126
1772526346597365500,7.215365478515625,0.012369937263429165,0.049435608088970184,0.058521099388599396
1772526346607348200,7.22534814453125,0.007470252923667431,0.06312239170074463,0.05398067459464073
1772526346617330400,7.235330322265625,0.005755414254963398,0.07570359855890274,0.05264562740921974
1772526346627312400,7.2453125,0.011590666137635708,0.09370124340057373,0.0481286384165287
1772526346637295400,7.25529541015625,0.018632499501109123,0.10122259706258774,0.05225023627281189
1772526346647277300,7.26527734375,0.030010320246219635,0.10149983316659927,0.05550408735871315
1772526346657259300,7.27525927734375,0.03895171731710434,0.08720605820417404,0.05806063115596771
1772526346667242200,7.2852421875,0.04700005427002907,0.07143375277519226,0.06206442788243294
1772526346677224400,7.295224365234375,0.04950789362192154,0.038991302251815796,0.06727659702301025
1772526346687207200,7.305207275390625,0.0494394488632679,0.016952844336628914,0.07495768368244171
1772526346697189400,7.315189453125,0.048128630965948105,-0.0022674857173115015,0.08369044959545135
1772526346707171300,7.32517138671875,0.049145955592393875,-0.0004895592574030161,0.08810544013977051
1772526346717154300,7.335154296875,0.04864608123898506,0.003886280581355095,0.0831729993224144
1772526346727136300,7.34513623046875,0.04874398559331894,0.009112246334552765,0.07086288928985596
1772526346737118200,7.3551181640625,0.04793604463338852,0.014967020601034164,0.056547511368989944
1772526346747101200,7.36510107421875,0.04516742378473282,0.013203475624322891,0.04099331796169281
1772526346757083400,7.37508349609375,0.039851173758506775,-0.0023275793064385653,0.02877030335366726
1772526346767065300,7.3850654296875,0.04449652507901192,0.0020804849918931723,0.020612774416804314
1772526346777048300,7.39504833984375,0.05120627209544182,0.02448175847530365,0.02256282977759838
1772526346787030300,7.4050302734375,0.05361749976873398,0.03622230514883995,0.028540560975670815
1772526346797012200,7.41501220703125,0.0560762844979763,0.04047271981835365,0.026031944900751114
1772526346806995500,7.424995361328125,0.05952747166156769,0.037885457277297974,0.012113201431930065
1772526346816977200,7.43497705078125,0.059132643043994904,0.03817681223154068,0.004016310907900333
1772526346826960400,7.44496044921875,0.057279616594314575,0.03272106125950813,-0.00946114957332611
1772526346836942300,7.4549423828125,0.052571382373571396,0.03204238787293434,-0.013672677800059319
1772526346846924300,7.46492431640625,0.05273330211639404,0.037907734513282776,-0.018453584983944893
1772526346856907300,7.4749072265625,0.05516193434596062,0.06428655236959457,-0.024520087987184525
1772526346866889200,7.48488916015625,0.0587281733751297,0.05961589887738228,-0.028899654746055603
1772526346876871400,7.494871337890625,0.050947193056344986,0.049264904111623764,-0.02781015634536743
1772526346886854400,7.5048544921875,0.05289662629365921,0.043254680931568146,-0.02864399179816246
1772526346896836400,7.51483642578125,0.05586997792124748,0.049680788069963455,-0.030497997999191284
1772526346906818300,7.524818359375,0.05726547911763191,0.06445068120956421,-0.03859640285372734
1772526346916801300,7.53480126953125,0.04404769837856293,0.07157150655984879,-0.05458175763487816
1772526346926783200,7.544783203125,0.03226347640156746,0.05462128669023514,-0.07849055528640747
1772526346936766500,7.554766357421875,0.017014261335134506,0.04146157577633858,-0.104781374335289
1772526346946748200,7.564748046875,0.00473069678992033,0.03954516351222992,-0.10883577167987823
1772526346956730400,7.57473046875,-0.006363475229591131,0.02749018929898739,-0.11666572093963623
1772526346966713300,7.58471337890625,-0.013805678114295006,0.034743838012218475,-0.12568318843841553
1772526346976695300,7.5946953125,-0.023780910298228264,0.049932170659303665,-0.1294831782579422
1772526346986677500,7.604677490234375,0.0037985178641974926,0.06199895590543747,-0.1528843641281128
1772526346996660200,7.61466015625,0.007375715766102076,0.08849434554576874,-0.16443447768688202
1772526347006642400,7.624642333984375,-0.006153675261884928,0.06664017587900162,-0.16495060920715332
1772526347016624000,7.6346240234375,-0.009918712079524994,0.0453934408724308,-0.16344450414180756
1772526347026607400,7.644607421875,0.001931554637849331,0.0437188446521759,-0.15699326992034912
1772526347036589300,7.65458935546875,0.000462985597550869,0.05903446301817894,-0.1566469669342041
1772526347046572300,7.664572265625,-0.002181533258408308,0.09757386147975922,-0.18106575310230255
1772526347056554200,7.67455419921875,0.035121746361255646,0.19191955029964447,-0.22881072759628296
1772526347066536400,7.684536376953125,0.008342863991856575,0.2636406123638153,-0.21344907581806183
