time,seconds_elapsed,z,y,x
1772526372489814300,0.108814208984375,-0.34435645826160904,0.061194473414123055,-0.08682327405884861
1772526372499797200,0.11879736328125,-0.33506840543448924,0.04778992517888546,-0.1266386401619762
1772526372509779200,0.128779296875,-0.33258769453465936,0.016140987461805343,-0.1262699895126745
1772526372519761400,0.138761474609375,-0.33843992769420145,-0.009826397487521172,-0.1355361593015492
1772526372529743400,0.148743408203125,-0.29514439132511616,-0.006313420930504798,-0.12312986485604197
1772526372539726300,0.158726318359375,-0.2500420977950096,0.023384090457856655,-0.1863014470294118
1772526372549708300,0.168708251953125,-0.21367080773115157,-0.010960223823040724,-0.16020966851543633
1772526372559690200,0.178690185546875,-0.20234686516225336,-0.09185717657282948,-0.12178455119431018
1772526372569672400,0.18867236328125,-0.23207681751549242,-0.14836261538788675,-0.13597531790379433
1772526372579655400,0.198655517578125,-0.2785609207928181,-0.14338511923626066,-0.20119871804043649
1772526372589637400,0.208637451171875,-0.29093875632882116,-0.15691957746148108,-0.20895660215821116
1772526372599619300,0.218619384765625,-0.2696194894462824,-0.18336174031570554,-0.2176782167416066
1772526372609601300,0.228601318359375,-0.19291501995027063,-0.19510858447179197,-0.19322868900932372
1772526372619584300,0.238584228515625,-0.10404431184232234,-0.1663764109842479,-0.19509484820738435
1772526372629566500,0.24856640625,0.029292729979753494,-0.12080883802995085,-0.18746230750232934
1772526372639548400,0.25854833984375,0.12809446499347685,-0.10396583977863191,-0.1559015595253557
1772526372649531400,0.268531494140625,0.18409341559112072,-0.09909034269675612,-0.1427468213327229
1772526372659513300,0.278513427734375,0.21509119592308998,-0.12789046685397623,-0.11415800183862447
1772526372669495300,0.288495361328125,0.20781156030893325,-0.15514175413399933,-0.09180522718988358
1772526372679477200,0.298477294921875,0.18873978009223938,-0.15928163041770457,-0.09986308063492179
1772526372689460200,0.308460205078125,0.1763338875055313,-0.14128580886945127,-0.0954042015299201
1772526372699442400,0.3184423828125,0.20547522631585596,-0.09734569098651409,-0.08520465988107025
1772526372709424400,0.32842431640625,0.2673433612078428,-0.06412921169176697,-0.0476592845365405
1772526372719406300,0.33840625,0.28818974988162516,-0.04049757621362805,-0.020421587390452623
1772526372729389300,0.348389404296875,0.28961773685812947,-0.049225072548538445,-0.0031822102326899766
1772526372739371300,0.358371337890625,0.244321382060647,-0.05391819880083203,0.008298091941699386
1772526372749353500,0.368353515625,0.24877660790383815,-0.0464177600428462,0.03275346489287913
1772526372759335200,0.378335205078125,0.30916473337113853,-0.024620938776433468,0.06109970780275762
1772526372769318400,0.388318359375,0.3571855446964502,-0.010196838235110044,0.08601524561159313
1772526372779300000,0.398300048828125,0.37105157296359537,-0.015352175171673296,0.1414007404860109
1772526372789282300,0.4082822265625,0.34844343531429767,-0.014557809923589229,0.19465426483303308
1772526372799265300,0.418265380859375,0.25563071158230305,-0.04219751199930906,0.24890038041397927
1772526372809247200,0.428247314453125,0.09160743959546089,-0.0809451758056879,0.3029569647721946
1772526372819229400,0.4382294921875,-0.05089315189123153,-0.03985810926631093,0.3029981005001813
1772526372829211100,0.448211181640625,-0.12540215716958045,0.023442250385880468,0.3028329730663448
1772526372839194400,0.4581943359375,-0.1390770467787981,0.05350844895616173,0.3221590203050524
1772526372849176300,0.46817626953125,-0.12081599842309951,0.055375411871820684,0.36511677608713505
1772526372859158300,0.478158203125,-0.1123638118982315,0.027246611104905602,0.3872933904513716
1772526372869140500,0.488140380859375,-0.129966688606143,0.03863660464733839,0.41497810071259733
1772526372879123200,0.498123291015625,-0.16104747104644773,0.07732303978577255,0.4540054582431912
1772526372889105400,0.50810546875,-0.20555764390230177,0.07553688702136278,0.5142084364019334
1772526372899087400,0.51808740234375,-0.29767537110745906,0.09487418630644678,0.5369324555158614
1772526372909070300,0.5280703125,-0.37451252707242966,0.13184534195959569,0.4881326957073062
1772526372919052300,0.53805224609375,-0.4091308359891176,0.1471890415638685,0.42974853047356004
1772526372929034200,0.5480341796875,-0.4039367744773626,0.12681363140270113,0.38378019469864666
1772526372939016400,0.558016357421875,-0.37694180004596706,0.07528890360966324,0.3386817736260593
1772526372948999400,0.56799951171875,-0.33429157584309577,0.00930076617822051,0.27420367543138563
1772526372958981400,0.5779814453125,-0.3040162645667791,-0.020634937880188227,0.17256671699173748
1772526372968963300,0.58796337890625,-0.29156244118511676,-0.03717266957461834,0.06565152588821947
1772526372978945300,0.5979453125,-0.2860574140280485,-0.039039486359804865,0.013655308125913142
1772526372988928300,0.60792822265625,-0.2563257081091404,0.0000789104551076889,-0.02447152036838233
1772526372998910500,0.617910400390625,-0.2349532497346401,0.023981471829116342,-0.03592909925431013
1772526373008892400,0.627892333984375,-0.21504501869380474,0.03382379753813147,-0.05224836589246988
1772526373018874400,0.637874267578125,-0.16636252858936787,0.06646189242303371,-0.09347827496863902
1772526373028857300,0.647857421875,-0.09603694647550583,0.10086275919675826,-0.15063355599455536
1772526373038839300,0.65783935546875,-0.012728548669815062,0.10023907434046268,-0.20584990484714508
1772526373048821200,0.6678212890625,0.04744856439530849,0.08089242270514369,-0.23579094266779718
1772526373058803200,0.67780322265625,0.12978081064522265,0.0737939888767898,-0.2876519166778773
1772526373068786400,0.687786376953125,0.21554595395326612,0.06692980219572782,-0.3511615351665765
1772526373078768000,0.69776806640625,0.2840951740443706,0.09202800309509038,-0.3736901047736406
1772526373088750300,0.707750244140625,0.36047348032593723,0.12161913149952888,-0.39431291382461786
1772526373098733300,0.7177333984375,0.3903922332495451,0.10402034644484519,-0.39260435634106394
1772526373108715300,0.72771533203125,0.35765725386142727,0.11050737037658691,-0.3996810897942632
1772526373118697500,0.737697509765625,0.3792717042982578,0.10868044721037148,-0.40276838828511535
1772526373128679400,0.747679443359375,0.41117666260302066,0.07924187901914119,-0.37907223620340225
1772526373138662700,0.75766259765625,0.4278501495063305,0.09141367058902979,-0.3743702690575272
1772526373148644400,0.767644287109375,0.4518208076804876,0.10610855089575051,-0.3589629296325147
1772526373158626600,0.77762646484375,0.46805414960086345,0.1082072767406702,-0.3409623588439077
1772526373168608800,0.78760888671875,0.43003275424242016,0.10613017820566892,-0.31787666681073606
1772526373178591500,0.797591552734375,0.3961673095196485,0.10576631332933902,-0.3232487883031368
1772526373188573700,0.80757373046875,0.3428670964866876,0.08884118975251913,-0.30768355490267274
1772526373198555400,0.817555419921875,0.3170364896595478,0.0737251614242792,-0.28134887101091444
1772526373208538600,0.82753857421875,0.3183347127765417,0.06356880133002996,-0.22567053066976367
1772526373218520600,0.8375205078125,0.30468729569613934,0.0659068888887763,-0.16862594347670673
1772526373228502500,0.84750244140625,0.24328034857511519,0.08581482766866684,-0.11539945326708256
1772526373238484700,0.857484619140625,0.1790185965448618,0.09587269582450389,-0.07677950749360024
1772526373248466400,0.867466552734375,0.13002397175133226,0.11035714825093745,-0.05635404764562845
1772526373258449700,0.87744970703125,0.10380991856455803,0.13738105651587246,-0.04659830424152314
1772526373268431600,0.887431640625,0.11104805312454699,0.13104396244883537,-0.011501710288599132
1772526373278413600,0.89741357421875,0.10641045645177363,0.0909559899494052,0.052832084064558145
1772526373288396500,0.907396484375,0.07649988683462143,0.0709478056654334,0.10873612292036414
1772526373298378500,0.91737841796875,0.04281798198521137,0.0566939471244812,0.17754669736139475
1772526373308360700,0.927360595703125,-0.01417524034678936,0.04933189392387867,0.21339264837689698
1772526373318342400,0.93734228515625,-0.012360299879312515,0.07555076941624284,0.2231620915127918
1772526373328325600,0.94732568359375,0.0018044190734624861,0.07178381809815763,0.22343484403956682
1772526373338307600,0.9573076171875,-0.04026128323972225,0.0028666414774954317,0.2179134137369692
1772526373348289500,0.96728955078125,-0.16341244661211968,-0.08098083164095878,0.16089111144095658
1772526373358271500,0.977271484375,-0.31428923677802084,-0.13125979715660213,0.06807583042569458
1772526373368254700,0.987254638671875,-0.4699252041697502,-0.15702581431493162,-0.007945040720328688
1772526373378236400,0.997236328125,-0.5545265643954277,-0.16061930876225233,-0.04374689686577767
1772526373388218600,1.007218505859375,-0.5673474675238133,-0.14225699198916553,-0.0400179394705221
1772526373398200600,1.01720068359375,-0.4805290157705545,-0.1112215099953115,-0.009083433633111418
1772526373408183600,1.02718359375,-0.3062345251381397,-0.0683278324253857,0.021877339156717062
1772526373418165500,1.03716552734375,-0.12050035660266875,-0.055831046684831374,0.08529036540314555
1772526373428147500,1.0471474609375,0.009116203391551971,-0.06072481007575988,0.13830244567710906
1772526373438130700,1.057130615234375,0.0782353323251009,-0.08764511183574795,0.13905969378519803
1772526373448112400,1.0671123046875,0.0930009397804737,-0.1273966919876635,0.13495331791229545
1772526373458094600,1.077094482421875,0.08732114057838916,-0.16245894527956842,0.08820413395799696
1772526373468076500,1.08707666015625,0.052501756131649015,-0.16295388918966053,0.044624410352669654
1772526373478059500,1.0970595703125,0.008475567400455474,-0.16279796797558665,0.02500548111461103
1772526373488041700,1.107041748046875,-0.07385141815245151,-0.16185235768854617,0.03308185659702867
1772526373498023400,1.1170234375,-0.11912030042111874,-0.15929522055163978,0.03376129022855311
1772526373508005600,1.127005615234375,-0.1101502275019884,-0.1294935181364417,0.021457506309449672
1772526373517988600,1.136988525390625,-0.08640577929913996,-0.11346811987832188,0.005437478346191346
1772526373527970600,1.146970458984375,-0.042537996000051495,-0.09104702923372388,-0.003941723363101482
1772526373537952800,1.156952880859375,0.01280278294980526,-0.05097542334720492,-0.033334187390282745
1772526373547934500,1.1669345703125,0.07427519652247429,-0.016748159574717283,-0.05527246295399964
1772526373557917700,1.176917724609375,0.12093757897615431,-0.018423691571503878,-0.05285546494014561
1772526373567899400,1.1868994140625,0.14158756829500196,-0.0423145625077188,-0.05163180489670485
1772526373577881600,1.196881591796875,0.15173136116862296,-0.03604454232752323,-0.07876289986316114
1772526373587864600,1.206864501953125,0.16286358055770397,-0.026271920853853225,-0.09386153866518289
1772526373597846500,1.216846435546875,0.17944354395866394,-0.019717092382907867,-0.10089110850840806
1772526373607828700,1.226828857421875,0.1838490854412317,-0.03313654592633247,-0.10482388138007372
1772526373617810400,1.236810546875,0.16701953119337556,-0.034089316606521605,-0.09535601500663905
1772526373627793700,1.246793701171875,0.12329729384481906,-0.030253683966398236,-0.09754775289725512
1772526373637775600,1.256775634765625,0.07246727031767368,-0.043486675027012825,-0.09828545605465769
1772526373647757600,1.266757568359375,0.06928747123777866,-0.028883564656972883,-0.09786069130394608
1772526373657739500,1.276739501953125,0.011952888122200965,-0.04352876060307025,-0.11004439250733702
1772526373667722500,1.286722412109375,-0.06348141530752181,-0.05108253698348999,-0.11514964322447777
1772526373677704400,1.296704345703125,-0.1495300517320633,-0.027236966493725773,-0.11295618830081075
1772526373687686700,1.306686767578125,-0.2199222693413496,-0.01320318044424057,-0.12384257970266044
1772526373697668600,1.316668701171875,-0.24228140066564083,0.037946576556563374,-0.133702039209567
1772526373707651600,1.326651611328125,-0.2254769808590412,0.04905833767950535,-0.13965477360151707
1772526373717633500,1.336633544921875,-0.23219781354665756,0.026783085246384144,-0.13981453074049205
1772526373727615500,1.346615478515625,-0.20815584370195864,0.03690495854914188,-0.13697938037980348
1772526373737597400,1.356597412109375,-0.19943010093271732,0.029904724398255346,-0.14061510653365403
1772526373747580400,1.366580322265625,-0.19581950922012328,0.027071839059889316,-0.16896321260705588
1772526373757562600,1.376562744140625,-0.16119360151886938,0.03428834630995989,-0.19930234636720268
1772526373767544600,1.386544677734375,-0.10115794275104999,0.006671440587937831,-0.21751473327558488
1772526373777526500,1.396526611328125,0.005833528459072113,-0.009579729250073433,-0.21898637673072516
1772526373787509800,1.406509765625,0.1444400351166725,-0.003239420312643051,-0.20006445331349967
1772526373797491500,1.416491455078125,0.2800304088234901,-0.00601969868093729,-0.16302669869754463
1772526373807473700,1.4264736328125,0.3963765683561563,0.015154314512014388,-0.1368216325348243
1772526373817456400,1.436456298828125,0.49574938125610346,0.02437894671410322,-0.09384097080118954
1772526373827438600,1.4464384765625,0.578676086267829,0.03340893312692642,-0.039812662689387796
1772526373837420500,1.456420654296875,0.6553560058444738,0.053980011990666384,-0.012364391532540321
1772526373847402500,1.466402587890625,0.7091524779617786,0.055234980487823486,0.0127247492775321
1772526373857385700,1.4763857421875,0.7151245381087065,0.02727905206978321,0.05535846073701978
1772526373867367400,1.486367431640625,0.7093354333132506,0.0005073650002479553,0.08628631763793528
1772526373877349600,1.496349609375,0.6826040782541036,0.017167992421984673,0.11101999607384204
1772526373887331600,1.50633154296875,0.6492687948852777,0.004896832130849361,0.12420388729572296
1772526373897314600,1.516314453125,0.6051385612577199,0.0043301381587982175,0.12085808399915694
1772526373907296800,1.526296875,0.5237941570013761,-0.0033405425995588303,0.11259250608757138
1772526373917278500,1.536278564453125,0.3936491892188787,-0.02481587682664394,0.1158034309580922
1772526373927260700,1.5462607421875,0.23648995778262613,-0.03169686851203441,0.10173504851926117
1772526373937243400,1.556243408203125,0.07470540463328361,-0.0011705050840973854,0.0883960763335228
1772526373947225600,1.5662255859375,-0.0818126062899828,0.023812837263941764,0.10319050802458077
1772526373957207600,1.57620751953125,-0.16960779412090776,0.02393061842471361,0.12586842297445983
1772526373967190500,1.5861904296875,-0.21824293795228003,0.02904021652340889,0.15512012682408094
1772526373977172700,1.5961728515625,-0.24208032513558864,0.021905542337894438,0.18145608935747295
1772526373987154400,1.606154541015625,-0.24739538267850875,0.018182137900590895,0.2231039681173861
1772526373997136600,1.61613671875,-0.2851303623110056,0.002970247982442379,0.24801979818716643
1772526374007119600,1.62611962890625,-0.3285907338529825,0.01073971294015646,0.25291447489354757
1772526374017101600,1.6361015625,-0.3894143281280994,-0.0055532502129673955,0.23632125015221533
1772526374027083500,1.64608349609375,-0.4213210399985313,-0.009851824189722537,0.1892772845024243
1772526374037065500,1.6560654296875,-0.41722295702993867,-0.014740473014116287,0.13319218999128787
1772526374047048400,1.66604833984375,-0.38112639225423334,-0.05683510916084051,0.13036957031860946
1772526374057030700,1.67603076171875,-0.3355319312930107,-0.05367196895480156,0.11297456420771777
1772526374067012600,1.6860126953125,-0.2770873411089182,-0.03109364192187786,0.10380743434652685
1772526374076994600,1.69599462890625,-0.2106751330465078,-0.009262918385863303,0.12447448439802973
1772526374086977500,1.7059775390625,-0.17161095063686369,0.010244915160536765,0.13730886806249618
1772526374096959500,1.71595947265625,-0.13731997397840023,0.029409926618635653,0.11456380616053938
1772526374106941400,1.72594140625,-0.1378133104532957,0.03614391104876995,0.06720018010232597
1772526374116923600,1.735923583984375,-0.11335633006691932,0.04471504777818918,0.02971289162058383
1772526374126906600,1.74590673828125,-0.09043430416285991,0.023290274694561956,0.011165792865119874
1772526374136888300,1.755888427734375,-0.07733809122443198,0.020986089405417442,0.004472359641082585
1772526374146870000,1.7658701171875,-0.0669546443760395,0.055118076109886165,0.00614317893013358
1772526374156852200,1.775852294921875,-0.07289280225336552,0.0861103034839034,0.009238697260059416
1772526374166835200,1.785835205078125,-0.04922551093995571,0.13138035479635,-0.023291151477396486
1772526374176817200,1.795817138671875,0.0035761049211025238,0.15991612892895937,-0.04327332453727722
1772526374186799400,1.80579931640625,0.06906126126646996,0.14441694650202988,-0.028750585927069184
1772526374196782000,1.815781982421875,0.09470774369835853,0.12622311816364526,-0.04042396298814565
1772526374206764300,1.825764404296875,0.08816109853386879,0.09288695801198482,-0.07549545903243124
1772526374216746000,1.83574609375,0.08699380832016468,0.07248480597436428,-0.11959818359855562
1772526374226728200,1.845728271484375,0.1320236211359501,0.03217734550535679,-0.1677163178185001
1772526374236711200,1.855711181640625,0.1847819823771715,0.010550912369787693,-0.18247739522922782
1772526374246693000,1.865693115234375,0.2340653609842062,-0.01821633243113756,-0.19239369948990642
1772526374256675300,1.87567529296875,0.2788216175556183,-0.03622895898371935,-0.20109872826468198
1772526374266657000,1.885656982421875,0.32420214350521565,-0.047097266739606854,-0.2129397535102442
1772526374276640300,1.89564013671875,0.36094869662225243,-0.06417378148585558,-0.21528774140849707
1772526374286622200,1.905622314453125,0.4057867862582206,-0.07664367921948433,-0.21971936718039214
1772526374296604200,1.915604248046875,0.44907472384274005,-0.11431523822695017,-0.2074467090519145
1772526374306586400,1.92558642578125,0.48227790526449676,-0.14850041642338035,-0.19500125163979828
1772526374316569000,1.935569091796875,0.4983814833253622,-0.16300795746445654,-0.1765283506317064
1772526374326551300,1.94555126953125,0.46534196803271766,-0.18485095596015452,-0.15976455509644
1772526374336533200,1.955533203125,0.40305589998960495,-0.17389935383498667,-0.11824081417284905
1772526374346515200,1.96551513671875,0.3249620219618082,-0.1649512004867196,-0.07489468012768775
1772526374356498200,1.975498291015625,0.27921090913414953,-0.14087854324281215,-0.07145520719829947
1772526374366480100,1.985480224609375,0.24358839161098003,-0.10554477953314781,-0.08012859872579574
1772526374376462300,1.99546240234375,0.19609598807394504,-0.11289426551312208,-0.03122307698782533
1772526374386444000,2.005444091796875,0.13336276078522205,-0.11159633465707301,0.030043183020874855
1772526374396427300,2.01542724609375,0.10657879875600337,-0.058581952828168866,0.030419395922124386
1772526374406409200,2.0254091796875,0.10092062686383724,-0.018057926999032498,0.04539543125778436
1772526374416391200,2.03539111328125,0.0908703574925661,-0.0059910571083426475,0.08963570113107562
1772526374426374100,2.0453740234375,0.05711304931938648,-0.001118190374970436,0.12920443552937358
1772526374436356400,2.0553564453125,0.027597616499662397,-0.010498597660660743,0.14338194089848547
1772526374446338300,2.06533837890625,-0.005755787047743797,0.005300444495677948,0.143085113376379
1772526374456320300,2.0753203125,-0.03984685721993446,0.029004852949082848,0.14985738399028778
1772526374466303200,2.08530322265625,-0.10291267746388912,0.06090864221006632,0.13657335686217992
1772526374476285200,2.09528515625,-0.1930605659008026,0.08233692242503166,0.12066647041719405
1772526374486267100,2.10526708984375,-0.306526786082983,0.1154658695667982,0.10152082124669104
1772526374496249000,2.1152490234375,-0.3804173672020435,0.1394543556585908,0.08332702944092452
1772526374506232300,2.125232421875,-0.4067120844095945,0.130059919847548,0.07708386073503642
1772526374516214000,2.135214111328125,-0.40735447396636004,0.11011077227443455,0.0733470122942701
1772526374526196200,2.1451962890625,-0.3898164791882038,0.09832798002213239,0.07629713080413639
1772526374536178200,2.15517822265625,-0.36242929056882855,0.07887596831619739,0.043627398671954865
1772526374546161200,2.1651611328125,-0.29646716436147685,0.05814911436885595,0.008904095010831952
1772526374556143400,2.175143310546875,-0.20301906533539293,0.040858372350037094,-0.023040610782429576
1772526374566125000,2.185125,-0.12222469617724419,0.0034308512315154075,-0.05192972839735448
1772526374576107300,2.195107177734375,-0.06504734944999217,-0.030248715530335903,-0.10185381606072187
1772526374586090000,2.205090087890625,-0.01228431203365326,-0.05766776059269905,-0.1708730282837525
1772526374596072200,2.215072265625,0.045015784290432924,-0.06300386092364788,-0.23121037341188638
1772526374606054400,2.225054443359375,0.09906476986408233,-0.0734530664846301,-0.25931619516201315
1772526374616037000,2.235037109375,0.1417868902593851,-0.0849666864067316,-0.2525494044408202
1772526374626019300,2.245019287109375,0.17740648517310617,-0.08163403485268354,-0.25252792326137424
1772526374636001000,2.2550009765625,0.20147183589339254,-0.030060791742801664,-0.24048439771365374
1772526374645983200,2.264983154296875,0.20001637638807296,-0.011672902137041091,-0.20671521643958984
1772526374655966200,2.27496630859375,0.18149755387902258,0.017577450005710125,-0.19209146514032036
1772526374665948200,2.2849482421875,0.16867139005362985,0.04366846133470535,-0.18440310259480028
1772526374675930400,2.294930419921875,0.18176935655772686,0.06360036551207304,-0.16714834520481525
1772526374685912000,2.304912109375,0.23744331298470495,0.07118044537752867,-0.1458063185011968
1772526374695895300,2.314895263671875,0.31448329804539676,0.0841673527225852,-0.12564436842761934
1772526374705877200,2.324877197265625,0.38494624280333517,0.10217851797044276,-0.09906747327782213
1772526374715859200,2.334859130859375,0.42742344852685926,0.10088614007234573,-0.05854655272122472
1772526374725841400,2.34484130859375,0.4250976359277963,0.09245353503078221,-0.03184102622307837
1772526374735824100,2.35482421875,0.39375791029036045,0.0924351225912571,-0.013854922351241111
1772526374745806300,2.364806396484375,0.344119726896286,0.1120411558151245,-0.01106295354515314
1772526374755788000,2.3747880859375,0.2949035683065653,0.11106120486706494,-0.0012403189172968268
1772526374765770200,2.384770263671875,0.2442904024004936,0.1012687096491456,0.008850318996980786
1772526374775753200,2.394753173828125,0.18108546594679353,0.10026391652077436,0.023334807956032454
1772526374785735200,2.404735107421875,0.115078331553936,0.10063450339883566,0.027259251390770078
1772526374795717000,2.414717041015625,0.06329144569337368,0.10836977382600307,0.050659562331065534
1772526374805699000,2.424698974609375,-0.0026578210324048994,0.11503741502165794,0.08902290299497544
1772526374815682000,2.43468212890625,-0.04738835864067077,0.1404042037293315,0.12133275230620055
1772526374825664300,2.444664306640625,-0.06449088461101055,0.16473551190942526,0.14781111898496746
1772526374835646200,2.454646240234375,-0.1043903488010168,0.1588067063823342,0.17028518192581832
1772526374845629200,2.464629150390625,-0.1500128668129444,0.1375324476853013,0.16643442478179932
1772526374855611100,2.474611083984375,-0.19958324566781518,0.10719722291529178,0.13638656558580695
1772526374865593000,2.484593017578125,-0.2464513798266649,0.08092910145372152,0.11729158715661614
1772526374875575300,2.4945751953125,-0.24512451513707637,0.06977262440621852,0.09538447391614317
1772526374885558000,2.50455810546875,-0.2438888358622789,0.06855009687393904,0.08769782840367406
1772526374895540200,2.514540283203125,-0.2274865671157837,0.060363575547933576,0.07731496607717127
1772526374905522200,2.524522216796875,-0.20508067404031752,0.026057401320338246,0.06584313947018236
1772526374915504000,2.534504150390625,-0.18170915080308914,-0.00027530981004238127,0.04009074897840619
1772526374925487400,2.5444873046875,-0.13803776685893535,0.0017030045256018638,-0.01231152883414179
1772526374935469000,2.554468994140625,-0.10565350060462951,-0.025265958681702613,-0.03654818100072443
1772526374945451300,2.564451171875,-0.06655716949105263,-0.07130611758381128,-0.054662441296875475
1772526374955433200,2.57443310546875,-0.013735679885745047,-0.07737520836442709,-0.07167538928762078
1772526374965416200,2.584416259765625,0.04082359329760074,-0.08046265298575163,-0.08696052710507064
1772526374975398400,2.5943984375,0.07152735911905765,-0.09328881681114434,-0.07402469236012547
1772526374985380000,2.604380126953125,0.07483926014602184,-0.12248247033059596,-0.0698379812600091
1772526374995362300,2.6143623046875,0.10988660812973976,-0.10111673395782708,-0.0673198609592393
1772526375005345000,2.624344970703125,0.14432313073873518,-0.06418371835798024,-0.0668533028934151
1772526375015327200,2.6343271484375,0.15064765758514403,-0.050320612700283526,-0.03352843132074922
1772526375025309200,2.64430908203125,0.14289105210900305,-0.04651245258897543,-0.043658086071163414
1772526375035291100,2.654291015625,0.12409224361479282,-0.019207389295101164,-0.06060023384802043
1772526375045274400,2.6642744140625,0.10697919625043868,-0.0028328853383660316,-0.09090732850208878
1772526375055256000,2.674256103515625,0.09047931234836577,-0.02091214738637209,-0.1071555391980335
1772526375065238300,2.68423828125,0.08939911589622497,-0.04425502905100584,-0.1186981660189107
1772526375075220200,2.69422021484375,0.09318272608816623,-0.05577887810617685,-0.137021502488479
1772526375085203200,2.704203125,0.118472650167346,-0.06859598184227943,-0.12151015469972043
1772526375095185200,2.71418505859375,0.12787585380673408,-0.07113689849674701,-0.10759988543204962
1772526375105167000,2.7241669921875,0.11544658034443854,-0.0603974778175354,-0.07012987687867134
1772526375115150300,2.734150390625,0.08657645969092845,-0.0461976875513792,-0.03091550887599587
1772526375125132000,2.744132080078125,0.03526888177990913,-0.012784078249335288,0.0017396467415615915
1772526375135114800,2.75411474609375,-0.014882511833310127,0.00912234087139368,0.023113456822931765
1772526375145096400,2.764096435546875,-0.037113048341870306,0.03785276079326868,0.019461217925697563
1772526375155079700,2.77407958984375,-0.06239420459270477,0.06152648184746504,0.014126725029945372
1772526375165061400,2.784061279296875,-0.05144318698942661,0.0639046091556549,0.023169388261251152
1772526375175043600,2.794043701171875,-0.019818214669823645,0.05977613104879856,0.03254475404564291
1772526375185025500,2.804025634765625,0.03861410055458545,0.05158697937428951,0.04607526674810797
1772526375195008500,2.814008544921875,0.07843231620192527,0.056446109843254086,0.06089936292506754
1772526375204990700,2.82399072265625,0.11369126110970973,0.07628565956205129,0.05488795714844018
1772526375214972400,2.833972412109375,0.10503390740156172,0.07786796031743287,0.06139719291198999
1772526375224954600,2.84395458984375,0.07536182271540165,0.07141776126474142,0.07074640134181827
1772526375234937600,2.8539375,0.05009060333669185,0.06600947248041629,0.07207103754170238
1772526375244919600,2.86391943359375,0.019326047238707542,0.08657850551754236,0.07212057577185332
1772526375254901800,2.87390185546875,-0.013678981262445449,0.10438596488684415,0.08204488067589699
1772526375264883500,2.883883544921875,-0.010191723668575287,0.12740297559797764,0.09682579529825597
1772526375274866700,2.89386669921875,-0.0028349311649799344,0.1373468619853258,0.11100746538583188
1772526375284848400,2.903848388671875,0.0178203188508749,0.12839140211343764,0.10882128045316784
1772526375294830600,2.91383056640625,0.04440612795948982,0.11837503501176834,0.08531787446457892
1772526375304812500,2.9238125,0.07710486699044704,0.09338000222593545,0.09249003111626952
1772526375314795500,2.93379541015625,0.11398702918589114,0.055447454194724556,0.07426219091042875
1772526375324777700,2.94377783203125,0.13625029892027377,0.032872049771249294,0.08431951107699423
1772526375334759400,2.953759521484375,0.14232406587600707,0.04315612789839506,0.07621098689064383
1772526375344741600,2.96374169921875,0.1436824947476387,0.051828679175674915,0.07156363600883632
1772526375354724600,2.973724609375,0.1427320621550083,0.07181815875917673,0.06938621890451759
1772526375364706600,2.98370654296875,0.13739245469272135,0.062494157835841176,0.07460252878069877
1772526375374688500,2.9936884765625,0.11364742196798323,0.03426204282492399,0.08772562972605227
1772526375384670500,3.00367041015625,0.08438391808271407,0.019340368025004863,0.05636646873578429
1772526375394653400,3.0136533203125,0.036296471261978144,0.009317571182548999,0.01907294926047325
1772526375404635600,3.0236357421875,0.00944996539056301,-0.01745996110588312,-0.017562252436578274
1772526375414617600,3.03361767578125,-0.0036702129453420637,-0.04532821124047041,-0.043107502983696755
1772526375424600600,3.0436005859375,-0.017006079858541488,-0.07669044097065925,-0.056302719317190345
1772526375434582500,3.05358251953125,-0.04158288723230362,-0.10830576867908238,-0.051024925044737754
1772526375444564500,3.063564453125,-0.04873392803072929,-0.12431523871570825,-0.021085202398337423
1772526375454546400,3.07354638671875,-0.005884966385364532,-0.13064064234495162,-0.01414283591452986
1772526375464529400,3.083529296875,0.021404607078433037,-0.10820639995783567,-0.016500358826108275
1772526375474511600,3.09351171875,0.025712533405423163,-0.08917056783735751,-0.0298861658282578
1772526375484493600,3.10349365234375,0.010430793121457099,-0.08054010213613509,-0.0304465031247586
1772526375494475500,3.1134755859375,-0.043616438886523244,-0.10314765526354312,0.0035122824372723696
1772526375504458800,3.123458740234375,-0.09876607917845248,-0.09112287094891071,0.006813369809277355
1772526375514440400,3.1334404296875,-0.13475333836078643,-0.0661357292085886,-0.007991217949613928
1772526375524422700,3.143422607421875,-0.13161036415994168,-0.043215456870198246,-0.01214903174880892
1772526375534404600,3.153404541015625,-0.09847381823360919,-0.02195288861095905,-0.010578567561693489
1772526375544387600,3.1633876953125,-0.05216974769830703,-0.02122048268318176,-0.009092384124547243
1772526375554369500,3.17336962890625,0.00535305146574974,-0.03231704623699188,0.014189049676433205
1772526375564351500,3.1833515625,0.057228200131654736,-0.024007483053207396,0.021571889936737716
1772526375574333700,3.193333740234375,0.038251696982979776,0.012329320219159126,0.022667064762301743
1772526375584316400,3.20331640625,0.007056932774186134,0.04079056781083345,0.015517046877183019
1772526375594298600,3.213298583984375,-0.04144318650066852,0.09130407273471355,0.020574512929841873
1772526375604280600,3.223280517578125,-0.05332359390854835,0.12664631201177834,0.031866599055752155
1772526375614262500,3.233262451171875,-0.038680736050009726,0.1406865278020501,0.05086421805769205
1772526375624245800,3.243245849609375,0.0021650690793991088,0.1481070331916213,0.06243011615630239
1772526375634227500,3.2532275390625,0.06299333952963351,0.15331015479266644,0.05353044159226119
1772526375644209700,3.263209716796875,0.11686229236125946,0.12080606155097484,0.053606027579121286
1772526375654191600,3.273191650390625,0.16390110691189766,0.08798398840129375,0.04090875083040446
1772526375664174600,3.283174560546875,0.18346271647214887,0.06251549288481474,0.015125380678474902
1772526375674156500,3.293156494140625,0.19818857643902302,0.04507189839184284,0.011712430429831146
1772526375684138500,3.303138427734375,0.19902385821938515,0.05435264469534158,-0.01369984138738364
1772526375694121500,3.31312158203125,0.20317922433316707,0.06664221742600202,-0.036561880732513964
1772526375704103400,3.323103515625,0.19684885226786136,0.061868134891986844,-0.017799568323791027
1772526375714085600,3.333085693359375,0.145481653124094,0.05250730908960104,-0.020818441220931707
1772526375724067300,3.3430673828125,0.11251812567710875,0.05950929680615663,-0.03807791131865233
1772526375734050600,3.353050537109375,0.06886661547720432,0.049776130560040474,-0.059854712710343295
1772526375744032500,3.363032470703125,0.04317454033792019,0.02123451120853424,-0.07904244745690375
1772526375754014500,3.373014404296875,0.020721885511279105,0.016678163078427313,-0.10853994276113807
1772526375763996700,3.38299658203125,-0.004948562318086624,-0.02247925057262182,-0.12477942216135561
1772526375773979600,3.392979736328125,-0.06387304497361183,-0.05422726475000381,-0.11000804255232215
1772526375783961600,3.402961669921875,-0.12792436912357807,-0.03825754220187664,-0.13718926027081907
1772526375793943600,3.412943603515625,-0.1899889033704996,-0.02969634234458208,-0.15983188471160828
1772526375803925500,3.422925537109375,-0.22818916242718695,-0.0572387215256691,-0.16054350357968358
1772526375813908500,3.432908447265625,-0.2330979772567749,-0.08400485563725232,-0.16225527593363076
1772526375823890400,3.442890380859375,-0.1843161184310913,-0.10263327600061893,-0.18495777733549473
1772526375833872600,3.45287255859375,-0.11342705721557139,-0.14404577510207892,-0.18337891064621506
1772526375843854600,3.4628544921875,-0.025150807869434355,-0.16426438726633785,-0.15371175786349922
1772526375853837600,3.472837646484375,0.0712853670567274,-0.1631149249702692,-0.12930614233817905
1772526375863819500,3.482819580078125,0.16420505829453466,-0.13790566491186618,-0.1117798379978165
1772526375873801500,3.492801513671875,0.2189075393408537,-0.11725362976640462,-0.07903956138007343
1772526375883783700,3.50278369140625,0.2344523144751787,-0.11325140838772058,-0.046512050730176266
1772526375893766700,3.5127666015625,0.23782032960355282,-0.10495265885889529,-0.029457492087408898
1772526375903748600,3.52274853515625,0.24971359649300573,-0.09710895962119102,-0.011798245549760758
1772526375913730600,3.53273046875,0.2426473113685846,-0.09405980118364095,0.0010954305538907647
1772526375923712500,3.54271240234375,0.20880758560895918,-0.06324205359369516,0.004258241966366767
1772526375933695500,3.552695556640625,0.1916618050187826,-0.004813537761569023,0.03348298474382609
1772526375943677700,3.562677734375,0.1719634173363447,0.053718146184086796,0.06775671800654381
1772526375953659600,3.57265966796875,0.1543617096722126,0.1280056176662445,0.0973741133634001
1772526375963641600,3.5826416015625,0.14213351173996924,0.18137100488990543,0.1313863096131012
1772526375973624600,3.59262451171875,0.12658172234296797,0.21327011797577142,0.15101886551771312
1772526375983606500,3.6026064453125,0.10555880805850028,0.233780406562984,0.13873963151797652
1772526375993588500,3.61258837890625,0.06465162813067436,0.2344496841266751,0.14746471670009195
1772526376003570400,3.6225703125,0.022798107263445853,0.22324936793744563,0.15431838198713957
1772526376013553700,3.6325537109375,-0.010592705684900283,0.2300824288278818,0.14219042955897748
1772526376023535600,3.64253564453125,-0.04014788599312305,0.22629911089688537,0.10506225671321152
1772526376033517600,3.652517578125,-0.03524199377298355,0.22516689199656248,0.0870317657103762
1772526376043499500,3.66249951171875,0.005199906730651855,0.22900310915857552,0.10276303986012936
1772526376053482500,3.672482421875,0.058605918225646016,0.22016776853501796,0.12497052428666501
1772526376063464700,3.682464599609375,0.11007307061254977,0.1891971684709191,0.13058953321222216
1772526376073446400,3.6924462890625,0.16359131031036375,0.17310586536973713,0.0940513256162405
1772526376083429600,3.7024296875,0.21744857270419596,0.10577566567957401,0.03698891050554812
1772526376093411300,3.712411376953125,0.26212065812349317,0.023363924452662468,-0.022392485604621468
1772526376103393500,3.7223935546875,0.31200258714556695,-0.04745879352837801,-0.08076470467224717
1772526376113375700,3.732375732421875,0.35373569650352,-0.10246318013072013,-0.10116565113347023
1772526376123358500,3.7423583984375,0.3539356029897928,-0.13043576742261648,-0.11195095678102224
1772526376133340400,3.75234033203125,0.32226153083145614,-0.09845189866274595,-0.13705292054004967
1772526376143322000,3.762322021484375,0.24320260716378686,-0.09211012842059135,-0.1319932625303045
1772526376153304300,3.77230419921875,0.16554653603136538,-0.09218231687396765,-0.12185991798546164
1772526376163287300,3.782287353515625,0.10428922651410102,-0.08250877186059952,-0.10756112432423978
1772526376173269200,3.792269287109375,0.061085460081696505,-0.06086421854645013,-0.12973901733011006
1772526376183251500,3.80225146484375,0.04810907413065433,-0.058686289985477924,-0.1359157332036644
1772526376193233200,3.812233154296875,0.08199030094444751,-0.06683540191054343,-0.12197751648314296
1772526376203216400,3.82221630859375,0.14196926108896732,-0.07390402512252331,-0.042888307275064284
1772526376213198300,3.8321982421875,0.13397884685695172,-0.07462444835156203,-0.010691453351639211
1772526376223180300,3.84218017578125,0.10516367126107215,-0.053090369674563404,0.032959033934958276
1772526376233162500,3.85216259765625,0.0013677812218666075,-0.03441811016947031,0.0302406052891165
1772526376243145200,3.862145263671875,-0.17188626044690608,-0.0717646750062704,0.0020131664533168075
1772526376253127400,3.87212744140625,-0.30069793379902837,-0.06512012242525815,-0.056665488214977085
1772526376263109000,3.882109130859375,-0.3602139526069164,-0.06362900708466768,-0.08626564017608761
1772526376273091300,3.89209130859375,-0.34682664776742456,-0.04592588487267494,-0.04713390895556658
1772526376283074300,3.90207421875,-0.2762052975773811,-0.032118601055443285,0.01642674560062587
1772526376293056300,3.91205615234375,-0.18203648306131362,0.015747604230046272,0.06837324246969073
1772526376303038500,3.92203857421875,-0.09364917455613612,0.07562193495631217,0.07394158065393566
1772526376313020200,3.932020263671875,-0.0604582680940628,0.07818009500652551,0.0902917904196307
1772526376323003400,3.94200341796875,0.0019844518154859543,0.1086845388635993,0.09641041943039745
1772526376332985300,3.9519853515625,0.03633972588181496,0.10444617064148187,0.13011223455667495
1772526376342967300,3.96196728515625,0.0592991611868143,0.07085895833820104,0.15973317357748745
1772526376352949500,3.971949462890625,0.07836275809705257,0.055716042003035544,0.1616196083785966
1772526376362932200,3.98193212890625,0.10799743338227272,0.06903700360804796,0.1679108905425295
1772526376372914400,3.99191455078125,0.13787526977360248,0.07434329332262277,0.18890395767800508
1772526376382896400,4.001896484375,0.16999124048054218,0.08078764715641737,0.1744037596931681
1772526376392878300,4.01187841796875,0.18777824158370493,0.08375380348563194,0.14984510903060436
1772526376402861300,4.021861328125,0.20660919878184794,0.04314385293871164,0.11153985522948205
1772526376412843300,4.03184326171875,0.22806465926468372,-0.022686755843460558,0.06625548313073813
1772526376422825200,4.0418251953125,0.23373042994141577,-0.07577391064763069,0.01765972146168351
1772526376432807200,4.05180712890625,0.22522972809970376,-0.10340952107012272,-0.0009152882140129804
1772526376442790100,4.0617900390625,0.1779465833991766,-0.10282938309460878,0.005597089354693889
1772526376452772400,4.0717724609375,0.11718144131302832,-0.0969441244482994,0.006144055712968111
1772526376462754300,4.08175439453125,0.0696995591700077,-0.0681488225966692,0.004268398034200072
1772526376472736300,4.091736328125,0.05895429327189922,-0.041021746218204494,-0.004414601571857929
1772526376482719500,4.101719482421875,0.06166413675248623,-0.019210896426439285,0.004901435240730643
1772526376492701200,4.111701171875,0.0673030194222927,-0.0425771589666605,0.01106814117692411
1772526376502683400,4.121683349609375,0.05405599983632564,-0.039859716701507564,-0.0076028762191534035
1772526376512665300,4.131665283203125,0.037493572092056275,-0.03777151225060224,-0.04562533102352172
1772526376522648300,4.1416484375,-0.011266074901819228,-0.06208966868817806,-0.05891125784777104
1772526376532630300,4.15163037109375,-0.08063011850714683,-0.05046791221648454,-0.0740086910733953
1772526376542612200,4.1616123046875,-0.15981880603432655,-0.034844226627051826,-0.08992193419393152
1772526376552595500,4.171595458984375,-0.2027326496094465,-0.017010463772714136,-0.08104472719002515
1772526376562577200,4.1815771484375,-0.19746026216447352,0.003774257841706276,-0.05961290331110358
1772526376572559400,4.191559326171875,-0.1408931562900543,0.01903670890331268,-0.06495543338283896
1772526376582541300,4.201541259765625,-0.09776771579086779,0.024984803652763364,-0.08716383112482726
1772526376592524300,4.211524169921875,-0.0817728588014841,0.04384264885783195,-0.1188426525235176
1772526376602506500,4.221506591796875,-0.07643909655809401,0.030480478459596633,-0.12471136189382523
1772526376612488200,4.23148828125,-0.08547346688508987,0.03431698788255453,-0.1513278584016487
1772526376622470400,4.241470458984375,-0.07476268777847289,0.04004208753108978,-0.1661157872866839
1772526376632453000,4.251453125,-0.041492870861291886,0.03743658120781183,-0.17774583666268734
1772526376642435300,4.261435302734375,-0.00029050737917423245,0.004824643677473068,-0.16018354769349097
1772526376652417500,4.27141748046875,0.08840367511808872,-0.02947802341878414,-0.1391433169480413
1772526376662399200,4.281399169921875,0.19369769476056098,-0.0688584321707487,-0.13115604452118276
1772526376672382500,4.291382568359375,0.28812545247375965,-0.0944841640755534,-0.14132204922661185
1772526376682364200,4.3013642578125,0.34880525436401366,-0.09165770847797393,-0.1719323646109551
1772526376692346400,4.311346435546875,0.34448329951167106,-0.10527180781066417,-0.17041984115615486
1772526376702328300,4.321328369140625,0.3345738999158144,-0.12064677933603525,-0.169103607458435
1772526376712311300,4.331311279296875,0.2946276739746332,-0.1343283909469843,-0.1666969116428867
1772526376722293500,4.34129345703125,0.22631986142396926,-0.1538715880677104,-0.13291238666921854
1772526376732275200,4.351275146484375,0.17397826429009436,-0.1614481608018279,-0.09935816332008689
1772526376742257400,4.36125732421875,0.15238602568507192,-0.12328501888513564,-0.0816142341736704
1772526376752240400,4.371240478515625,0.11962883446514606,-0.07102876194715499,-0.05315013703778386
1772526376762222300,4.381222412109375,0.08740180459916591,-0.07644085012376307,-0.010911489310488104
1772526376772204300,4.391204345703125,0.051826048827171324,-0.06507423745691776,0.006269362593069672
1772526376782186200,4.401186279296875,0.01578501363098621,-0.05385872369855642,0.016073438650928435
1772526376792169200,4.411169189453125,-0.05497136111557483,-0.07049976963698863,0.035323571109212935
1772526376802151200,4.421151123046875,-0.1253477966338396,-0.06542728867828845,0.03280921366810798
1772526376812133400,4.43113330078125,-0.16257365770041943,-0.022651684530079364,0.042462373480573294
1772526376822115300,4.441115234375,-0.17026479672491548,0.006830430541932582,0.0649928427837789
1772526376832098300,4.451098388671875,-0.14598901812434195,0.05203355409801006,0.0973850000835955
1772526376842080300,4.461080322265625,-0.1356692841619253,0.0868710587233305,0.11937774578090757
1772526376852062200,4.471062255859375,-0.07699965305030346,0.11814414886534214,0.1322101201513782
1772526376862044400,4.48104443359375,0.025980244430899618,0.15418138466924428,0.12139873021449893
1772526376872027400,4.49102734375,0.0832324099600315,0.13874386930167673,0.12395564815569668
1772526376882009300,4.50100927734375,0.12493687774538993,0.06608633710891008,0.08492116676457226
1772526376891991300,4.5109912109375,0.1392728616118431,0.039835751304030415,0.01251932636592537
1772526376901973200,4.52097314453125,0.13905717303454876,0.02245528517514467,-0.001194799275137484
1772526376911956200,4.530956298828125,0.10634557452201843,0.03106529261022806,0.02047572873048484
1772526376921938400,4.5409384765625,0.09855331321060656,0.05731821650266647,0.03857157658711075
1772526376931920400,4.55092041015625,0.11543898155987262,0.08401654607504606,0.040530893961340186
1772526376941902300,4.56090234375,0.10821779813468456,0.08259498883932828,0.040989341785944995
1772526376951885300,4.57088525390625,0.09657587565779685,0.06900806977450848,0.018282456469908354
1772526376961867300,4.5808671875,0.07987374718189238,0.05672521904557943,-0.03897051277682185
1772526376971849200,4.59084912109375,0.05715045872032642,0.013621698117256163,-0.07154511397145688
1772526376981831400,4.60083154296875,0.05510930828154087,-0.01530979733467102,-0.10186883096676319
1772526376991814400,4.610814453125,0.06115910983979702,-0.01854717182070017,-0.12547036356758326
1772526377001796400,4.62079638671875,0.06462707821130752,-0.020389292556047437,-0.12427315313965082
1772526377011778300,4.6307783203125,0.06443009433448314,-0.01934445967823267,-0.1226096038416028
1772526377021760300,4.64076025390625,0.06710135937035083,-0.02691518719345331,-0.11803053242303431
1772526377031743200,4.6507431640625,0.058881812557578087,-0.014915829581022262,-0.11512998867593704
1772526377041725400,4.660725341796875,0.058501873329281806,0.007621873180568218,-0.11531557437591254
1772526377051707400,4.670707275390625,0.05149754752516746,0.01501958221644163,-0.12727478264104575
1772526377061689300,4.680689453125,0.007549684727191925,-0.002574526663124561,-0.12353826299384235
1772526377071672300,4.69067236328125,-0.031097149053215978,-0.02648907073587179,-0.13537117799818515
1772526377081654300,4.700654296875,-0.07296119131445884,-0.040596214282512665,-0.1756189441692084
1772526377091636500,4.710636474609375,-0.10871405721902846,-0.0469078816473484,-0.20616178380791098
1772526377101618200,4.7206181640625,-0.12333353420197964,-0.0661073798969388,-0.21837047332208603
1772526377111601400,4.730601318359375,-0.1406014798671007,-0.07911942168325185,-0.20725677597038447
1772526377121583000,4.7405830078125,-0.13036124088168144,-0.08829641535133123,-0.2137028103046119
1772526377131564800,4.750564697265625,-0.1090741227030754,-0.10257599285542965,-0.23475246646553277
1772526377141546800,4.760546630859375,-0.08290273961424827,-0.08414630993455648,-0.24117508339155463
1772526377151529700,4.77052978515625,-0.0512257448464632,-0.07638911993652582,-0.19510562532972545
1772526377161512000,4.780511962890625,-0.02802665556669235,-0.060900458903610705,-0.13515055751744656
1772526377171494000,4.790493896484375,0.014151859471201896,-0.02509352472424507,-0.11257961007338016
1772526377181475800,4.800475830078125,0.05558452457785606,-0.0184171157002449,-0.0909797361511737
1772526377191458800,4.810458740234375,0.11594576203823088,-0.04101064030230045,-0.06139876381456852
1772526377201440800,4.820440673828125,0.17387597295939922,-0.06027618952542543,-0.05605133837200701
1772526377211423000,4.830423095703125,0.21682897950112817,-0.0766468940898776,-0.07618618124295026
1772526377221404700,4.84040478515625,0.23677988063991068,-0.08812485817670822,-0.08685929522030054
1772526377231388000,4.850387939453125,0.18956454047858715,-0.08736468745917081,-0.09894855960588901
1772526377241369600,4.86036962890625,0.09558861818611622,-0.07791326076388358,-0.09118914111815392
1772526377251351800,4.870351806640625,-0.014843933388590812,-0.04031067533940077,-0.0622857027169317
1772526377261333800,4.880333740234375,-0.07876958533227443,0.012012509354948997,-0.049394328168220814
1772526377271316700,4.890316650390625,-0.10621405709683894,0.06277765095233917,-0.021186251620016992
1772526377281299000,4.900298828125,-0.07808160306811332,0.08845335947871208,0.01918901338819414
1772526377291280600,4.91028076171875,-0.017100187882781028,0.0913259923055768,0.049327290813997386
1772526377301262800,4.920262939453125,0.04215104250907898,0.06577946311682463,0.06551628213599324
1772526377311245800,4.930245849609375,0.10657587614655493,0.046259354610741134,0.06202507901936769
1772526377321227800,4.940227783203125,0.151908471301198,0.04567366367727518,0.054546450234390795
1772526377331210000,4.9502099609375,0.1657680698275566,0.06014467210024595,0.06429379113633185
1772526377341191700,4.960191650390625,0.15732991182804107,0.06477174737900496,0.09960647552534937
1772526377351175000,4.9701748046875,0.1377180333852768,0.09274608823657035,0.12671185152865946
1772526377361156600,4.980156494140625,0.12483224832713603,0.13248597795069217,0.14082739757746457
1772526377371138800,4.990138916015625,0.10774316636025905,0.15768033270090817,0.15470771009828893
1772526377381121000,5.00012109375,0.10235036740601063,0.16933686822503805,0.15575941110830754
1772526377391103700,5.010103759765625,0.07632569931149483,0.1698977169781923,0.1595843762239441
1772526377401086000,5.0200859375,0.04610708665847778,0.154431852298975,0.16171028233673423
1772526377411067600,5.030067626953125,0.02386485971212387,0.13562895215153695,0.16266108025554565
1772526377421049900,5.0400498046875,0.0012409399718046187,0.13532646207362412,0.11954221562761813
1772526377431032800,5.05003271484375,-0.00755728351175785,0.10056845242530107,0.07426452899798751
1772526377441014800,5.060014892578125,0.00800035110414028,0.06121697750687599,0.045634902569465334
1772526377450997000,5.0699970703125,0.03634089492559433,0.01286415774822235,0.0070870721841230985
1772526377460978700,5.079978759765625,0.08445055357813834,-0.014555179575085639,-0.04344751206040382
1772526377470962000,5.0899619140625,0.12345745284259318,-0.029817630636692044,-0.07071041671298443
1772526377480943900,5.09994384765625,0.16034078408181665,-0.05857873795777559,-0.09382113358955829
1772526377490925800,5.10992578125,0.18462591503262518,-0.06326952612251042,-0.10868446579836308
1772526377500907800,5.11990771484375,0.17255962966382501,-0.07833031713217496,-0.09183646257836371
1772526377510890800,5.129890869140625,0.15265549027621744,-0.10445756881833076,-0.08988689941316842
1772526377520872700,5.139872802734375,0.12741115890443325,-0.10152502249777316,-0.09509276096057147
1772526377530854700,5.149854736328125,0.08403320494890212,-0.1020113447099924,-0.12244612037558107
1772526377540836900,5.1598369140625,0.032520459854602814,-0.12655804920643568,-0.11556195035241544
1772526377550819800,5.16981982421875,0.02022270381748676,-0.11070260068774222,-0.09877817147504538
1772526377560801800,5.1798017578125,0.020609657308459282,-0.06845218945741653,-0.08069616948068141
1772526377570783700,5.18978369140625,0.026338556349277495,-0.08030512433648108,-0.07472341521400958
1772526377580765700,5.199765625,0.037839024528861044,-0.0726058020055294,-0.07852857965063303
1772526377590748700,5.209748779296875,0.018293781581521035,-0.06565525221526622,-0.06610343437418341
1772526377600731000,5.21973095703125,-0.0009200374543666839,-0.06472703145444393,-0.03644212681036442
1772526377610712800,5.229712890625,-0.0136550158649683,-0.026448738725483416,-0.04237717941515148
1772526377620694800,5.23969482421875,-0.019869652596116064,-0.01609451797157526,-0.04192563625536859
1772526377630677800,5.249677734375,-0.025758126112818715,-0.008068447904288768,-0.03210387841034681
1772526377640659700,5.25965966796875,-0.033871874463558195,0.008126607832312583,-0.041845885550044475
1772526377650642000,5.269641845703125,-0.02985971621274948,0.017190496514737606,-0.03300568608827889
1772526377660624000,5.279623779296875,-0.004821721068024635,0.022498247534036633,-0.00577025396451354
1772526377670606800,5.28960693359375,0.03663607847988605,0.037027123624086375,0.008452624916285276
1772526377680588800,5.2995888671875,0.07868716774582862,0.04052402582913637,0.012347294267266988
1772526377690570800,5.30957080078125,0.11800211004614829,0.05956336508095264,0.0003876841433346271
1772526377700552700,5.319552734375,0.14853870260715485,0.0753115538328886,0.024077917940914628
1772526377710535700,5.32953564453125,0.16204057373702524,0.07428922504782676,0.058336928558535874
1772526377720518000,5.339517822265625,0.1676198351740837,0.1020025768816471,0.07603044269196689
1772526377730499800,5.349499755859375,0.15293021556437014,0.1349529525861144,0.07232808104269206
1772526377740481800,5.359481689453125,0.14152385540902615,0.13199030338823795,0.07892568920943886
1772526377750465000,5.369465087890625,0.16503975555300712,0.10387655405998229,0.09403481287285685
1772526377760446700,5.37944677734375,0.1878460461229086,0.06984978129565715,0.11232092260457574
1772526377770429000,5.389428955078125,0.20265549272000788,0.04433686211556196,0.10486607655398547
1772526377780411000,5.399410888671875,0.19784721565544605,0.01801145750880241,0.08253920353148132
1772526377790393900,5.409393798828125,0.14533493812978268,0.01651449694931507,0.059892560502700504
1772526377800375800,5.419375732421875,0.05901449902653694,0.026870179007947442,0.05146558148432523
1772526377810357800,5.429357666015625,-0.02620119370520115,0.03404226259440184,0.02889562042094767
1772526377820340000,5.439340087890625,-0.11508008511960506,0.043273616798222066,0.012004508711583912
1772526377830322700,5.44932275390625,-0.1852490153670311,0.04681728075444698,-0.009523395952954887
1772526377840305000,5.459304931640625,-0.2156172656238079,0.019395605343580244,-0.016075447944924236
1772526377850286800,5.469286865234375,-0.2257341704905033,-0.014242460364103317,-0.016027224889025093
1772526377860268800,5.479268798828125,-0.21783318810760974,-0.020445114396512507,-0.030963330073095856
1772526377870251800,5.489251708984375,-0.1945557728946209,-0.02472001523673534,-0.03333959421776235
1772526377880233700,5.499233642578125,-0.13316343882083892,-0.01977408326715231,-0.03223400759603828
1772526377890216000,5.5092158203125,-0.091698625010252,-0.004156242896616458,-0.02465162617564201
1772526377900197600,5.51919775390625,-0.03247662071287632,-0.022601123386621475,-0.013147650864720344
1772526377910179800,5.529179931640625,-0.013698270484805106,-0.0345882060393691,-0.024814525119774042
1772526377920162800,5.539162841796875,-0.005848141506314277,-0.04501549202948808,-0.04874656831659376
1772526377930144800,5.549144775390625,-0.008141805401444435,-0.040407121451199055,-0.09979732192233204
1772526377940127000,5.559126953125,0.027281974679231644,-0.05524111796766519,-0.11681827055644244
1772526377950108700,5.569108642578125,0.07271861473023891,-0.06557867984771729,-0.08637651667203754
1772526377960092000,5.579091796875,0.13101122922301292,-0.04870353289246559,-0.08696271906215697
1772526377970073600,5.589073486328125,0.1962409495025873,-0.011328911004960536,-0.09040003656707704
1772526377980055800,5.599055908203125,0.27179800252914427,-0.005218319170176983,-0.0691175945635885
1772526377990038000,5.6090380859375,0.3572030803531408,-0.004174655336141586,-0.06152779702171683
1772526378000020700,5.619020751953125,0.3862883050620556,0.0017968202888965605,-0.042000235861539836
1772526378010003000,5.6290029296875,0.3659276540786028,-0.012236673499643802,-0.03281315919086337
1772526378019984600,5.638984619140625,0.28914018247425555,-0.012408230674266815,-0.04239223085381091
1772526378029966800,5.648966796875,0.2410398761719465,0.03174889096021652,-0.04112294157035649
1772526378039949800,5.65894970703125,0.21134616417586802,0.05736936216801405,-0.02013100694604218
1772526378049931800,5.668931884765625,0.17668284707367418,0.07574000837802887,0.02938844543918967
1772526378059914000,5.6789140625,0.21335341234505176,0.09008709816038608,0.09728596015591173
1772526378069895700,5.688895751953125,0.169027363884449,0.14202771327793598,0.1643253236733377
1772526378079879000,5.69887890625,0.10403379044830799,0.19505743880644438,0.1496113002747297
1772526378089860900,5.70886083984375,0.03990589393079281,0.1587855174638331,0.11549341516084968
1772526378099842800,5.7188427734375,-0.009960837522149085,0.13494389249682426,0.0887816415850073
1772526378109824800,5.72882470703125,-0.041700960654020305,0.11787731462270021,0.08173190573658794
1772526378119807700,5.738807861328125,-0.06984568964242935,0.10252587010338902,0.08391009002588688
1772526378129790000,5.7487900390625,-0.12891045755147934,0.08242460070848465,0.07637618738971651
1772526378139772400,5.7587724609375,-0.17889467790424823,0.065623980294168,0.08033785756230354
1772526378149754400,5.76875439453125,-0.1961842508792877,0.05396949059665203,0.084781758293882
1772526378159737300,5.7787373046875,-0.19689327593147754,0.07784414105042815,0.09562003623768686
1772526378169719300,5.78871923828125,-0.1722866579413414,0.08589534555897116,0.0880295811086893
1772526378179701200,5.798701171875,-0.1559995400071144,0.06722425509765743,0.048089711843058464
1772526378189683200,5.80868310546875,-0.12354630016982554,0.039738866800814864,0.004976948162354528
1772526378199666200,5.818666259765625,-0.09056406802237034,0.015173311473429202,-0.04306665951665491
1772526378209648400,5.8286484375,-0.061326867622137064,0.011341332095116376,-0.08041972715947776
1772526378219630300,5.83863037109375,-0.042671266990900035,-0.019376900643110276,-0.10675371693149209
1772526378229612300,5.8486123046875,-0.008537526720762252,-0.041915480187535284,-0.12638904931508005
1772526378239595500,5.858595458984375,0.04307458709478378,-0.07058510983288288,-0.11603709358349441
1772526378249577200,5.8685771484375,0.08556757490932941,-0.07038169621527195,-0.12127751498762518
1772526378259559400,5.878559326171875,0.12018705286979675,-0.07140110239088535,-0.11842760544922203
1772526378269541400,5.888541259765625,0.14618483295738696,-0.08629486627057194,-0.1056284026959911
1772526378279524400,5.8985244140625,0.1739589750677347,-0.06989376656785606,-0.11199764546696096
1772526378289506300,5.90850634765625,0.19315058227181434,-0.055962125718593596,-0.13024645539559424
1772526378299488300,5.91848828125,0.21365093398690221,-0.06300766031593084,-0.15275076734423637
1772526378309470500,5.928470458984375,0.20136662195324898,-0.0953738063916564,-0.15005973816197365
1772526378319453200,5.938453125,0.19076281035244463,-0.11820084748864174,-0.13599347461499273
1772526378329435400,5.948435302734375,0.19281974288225173,-0.12350523750707507,-0.1338855060176924
1772526378339417300,5.958417236328125,0.1837672523766756,-0.08816197531670332,-0.1432808916768059
1772526378349399300,5.9683994140625,0.1530763460367918,-0.049702919193357224,-0.12781159293148667
1772526378359381200,5.97838134765625,0.12282383111417293,-0.01158756194114685,-0.08856047311499714
1772526378369364200,5.9883642578125,0.0948831002652645,0.03152516520693898,-0.06491824317760765
1772526378379346400,5.998346435546875,0.05821078142821789,0.05836947912126779,-0.05928823793400079
1772526378389328100,6.008328125,0.026574703192710873,0.055039750176668165,-0.040310529208928345
1772526378399311400,6.018311279296875,0.016273673930764197,0.034529899980872865,-0.019759762480854988
1772526378409293300,6.028293212890625,-0.0159685535043478,0.01760740675255656,0.0003755918467417359
1772526378419275300,6.038275146484375,-0.056519759601354594,-0.024658055916428563,0.012423939700052141
1772526378429257500,6.048257568359375,-0.08644143513441085,-0.03984086587056517,0.02861073906496167
1772526378439239200,6.0582392578125,-0.11014438228309154,-0.030769378403574226,0.035901005670987064
1772526378449222400,6.068222412109375,-0.12299041985273361,-0.02611789933592081,0.05225340739376843
1772526378459204000,6.0782041015625,-0.12351824311912059,-0.005948971532285213,0.07623619439713657
1772526378469186300,6.088186279296875,-0.12617431058585643,0.02584010530784726,0.08561451932359486
1772526378479168500,6.09816845703125,-0.12544015109241008,0.040014176610857245,0.06600329846795648
1772526378489151200,6.108151123046875,-0.12970365375578402,0.027787147722393272,0.041313568771630525
1772526378499133400,6.118133544921875,-0.14194704925715923,0.011968231821805238,0.02113203721474856
1772526378509115100,6.128115234375,-0.12327157488167285,-0.0004962590843439102,0.005516534931771457
1772526378519097300,6.138097412109375,-0.08460603640079498,-0.0023002397663891313,-0.0035122824372723696
1772526378529080300,6.148080322265625,-0.03299333806335926,0.009784750302881002,-0.0031571488566696643
1772526378539062300,6.158062255859375,0.03675415190160274,-0.0018834756590425967,-0.0014519889065995812
1772526378549044500,6.16804443359375,0.097675945854187,0.002445347325503826,0.006312361484579742
1772526378559026200,6.178026123046875,0.15357611225247383,0.014294044420868157,0.013792524639517068
1772526378569009400,6.188009521484375,0.18155951319932936,0.015611264499276875,0.007168868716061115
1772526378578991400,6.197991455078125,0.18824293648600576,0.014478168816119432,-0.009297514775209128
1772526378588973300,6.207973388671875,0.20745032578110695,0.01931523358374834,-0.017416195029392838
1772526378598955500,6.21795556640625,0.22944120831489562,0.030969723281264305,-0.004551489291898906
1772526378608938200,6.227938232421875,0.2627817523807287,0.04707578556016087,0.020413623279705643
1772526378618920400,6.23792041015625,0.31653146274685856,0.05460048197656869,0.035364341511018575
1772526378628902100,6.247902099609375,0.35753158165514465,0.06705445148870348,0.05569967539012432
1772526378638884400,6.25788427734375,0.37332419407069684,0.07159735561534762,0.07236001055091619
1772526378648867300,6.267867431640625,0.3377309026420116,0.06674012484252452,0.09788684865850955
1772526378658849300,6.277849365234375,0.29619828429222106,0.08890577942132949,0.10964947490561752
1772526378668831200,6.287831298828125,0.2596720959275961,0.11539353498294949,0.11627353268787265
1772526378678813200,6.297813232421875,0.22427228124439716,0.1250305473782122,0.12076185708306729
1772526378688796200,6.307796142578125,0.18169044610261917,0.10698197272941469,0.14067523922305553
1772526378698778400,6.3177783203125,0.12463994062542914,0.10742372514754533,0.15488989826478064
1772526378708760300,6.32776025390625,0.04324994366168976,0.10429697142913937,0.16619140980616212
1772526378718742300,6.3377421875,-0.01872749682366848,0.1151769696228206,0.14329612577855586
1772526378728724200,6.34772412109375,-0.05554302352368831,0.10836436699852346,0.12065204003304242
1772526378738707200,6.357707275390625,-0.06392915907502174,0.10739157644361257,0.11007928115762769
1772526378748689400,6.367689453125,-0.05672668035030365,0.07799582448080182,0.11301752656660974
1772526378758671400,6.37767138671875,-0.060551791596412656,0.05459112962633371,0.09249014071412384
1772526378768653300,6.3876533203125,-0.06356967811286449,0.04768807223960757,0.0753074987122789
1772526378778636300,6.39763623046875,-0.09193535637557507,0.024907500632852315,0.0804793849248439
1772526378788618200,6.4076181640625,-0.08714636853337288,0.00805792651027441,0.0755153693092987
1772526378798600200,6.41760009765625,-0.07024784070253372,0.01939005238562822,0.03763933723829686
1772526378808582400,6.42758251953125,-0.035814240702986715,-0.00031929508224129677,0.0063161974094808095
1772526378818565400,6.4375654296875,0.0035667525708675384,-0.05096811682358384,0.005498268622718751
1772526378828547300,6.44754736328125,0.042642040896415705,-0.07449629192724823,0.0017627353562042116
1772526378838529300,6.457529296875,0.04024024045169353,-0.094173490691185,-0.012120353643596172
1772526378848511200,6.46751123046875,0.03245499340295791,-0.09661883801668882,-0.04435275380443782
1772526378858494200,6.477494140625,0.028536358654499053,-0.07826280485391617,-0.05402092852294445
1772526378868476400,6.487476318359375,0.005226210215687752,-0.10583777113035321,-0.0481338432457298
1772526378878458400,6.497458251953125,-0.01983282771706581,-0.13244316172227263,-0.03806136204265058
1772526378888440300,6.5074404296875,-0.04559387643933296,-0.13826602265685797,-0.04886537239067256
1772526378898423300,6.51742333984375,-0.057142859935760494,-0.1290636022865772,-0.08241692885868251
1772526378908405200,6.5274052734375,-0.08081190481483935,-0.10343670133799314,-0.10504033714234828
1772526378918387500,6.537387451171875,-0.08940379207134247,-0.08880261130779982,-0.12079820703808218
1772526378928369400,6.547369384765625,-0.1065560024023056,-0.06429828464835882,-0.11662526873499154
1772526378938352400,6.557352294921875,-0.0984562825769186,-0.0632194033704698,-0.11656751066576689
1772526378948334300,6.567334228515625,-0.07835632835626602,-0.052411885891109705,-0.106200211234577
1772526378958316300,6.57731640625,-0.09010346477329731,-0.049046939502656456,-0.0954406976154074
1772526378968298200,6.58729833984375,-0.10884499012231826,-0.04269508625790477,-0.082784812323004
1772526378978281200,6.59728125,-0.09321253670454024,-0.03838569862619042,-0.08714684345740824
1772526378988263400,6.607263427734375,-0.04217150077521801,-0.024614655166119336,-0.07510536373630165
1772526378998245000,6.6172451171875,0.018109072664380072,-0.024260288770496845,-0.04982957778032869
1772526379008227300,6.627227294921875,0.0869710119664669,-0.04537073520794511,-0.030684403533861038
1772526379018209300,6.637209228515625,0.16545301252901554,-0.014857523522526025,-0.028265907682664692
1772526379028192300,6.647192138671875,0.21326164240837095,0.01345087159499526,-0.0288438537010923
1772526379038174500,6.657174560546875,0.21777941209375856,0.019645926842838526,-0.028127814386226236
1772526379048156200,6.66715625,0.19707213962972164,0.027135551945865154,-0.05166727806888521
1772526379058138400,6.677138427734375,0.16342472157180307,0.032050358124822376,-0.06608936931621283
1772526379068121000,6.68712109375,0.11415361792445182,0.028046383180469273,-0.030082930509373544
1772526379078103300,6.697103271484375,0.08084229995310306,0.035119828698039056,-0.008834500373341143
1772526379088085500,6.70708544921875,0.0682926149815321,0.08339826804623007,-0.0018145386086776852
1772526379098067200,6.717067138671875,0.08642623756527901,0.11272840742692351,0.008180164650455117
1772526379108050400,6.727050537109375,0.13923662125468253,0.10639379757791757,0.033047552468627686
1772526379118032100,6.7370322265625,0.19721593201458454,0.10333952457383275,0.04274634152110666
1772526379128014300,6.747014404296875,0.20814181517660615,0.07855301997214555,0.03578537993468344
1772526379137995500,6.75699560546875,0.201230428352952,0.056097150275111196,0.014279467906244098
1772526379147978500,6.766978515625,0.15621172145307063,0.0446281001470983,-0.0002427227146923542
1772526379157960700,6.776960693359375,0.10052490554451941,0.028100159194320438,0.007882277682423592
1772526379167942400,6.7869423828125,0.055982583984732624,0.025601912637799977,0.024817995718494055
1772526379177924600,6.796924560546875,0.019299159231781958,0.03323269977718592,0.041111652991361915
1772526379187906600,6.806906494140625,-0.019615970095992086,0.0228983527675271,0.03864562820401043
1772526379197889500,6.8168896484375,-0.0007177928805351257,0.048575376468151805,0.03601611995063722
1772526379207871700,6.826871826171875,0.002611643803119659,0.044860885989665984,0.03815221866387874
1772526379217853400,6.836853515625,-0.012647884649038314,0.0025786183163523674,0.05285005811266601
1772526379227835600,6.846835693359375,-0.04252747460603714,-0.0038949616119265556,0.03477766419686377
1772526379237818400,6.856818359375,-0.05816168158948421,-0.012480857519060373,-0.00595982171986252
1772526379247800600,6.866800537109375,-0.09253332226872443,-0.040957010418921705,-0.02316737896725535
1772526379257782500,6.876782470703125,-0.08666296893060207,-0.05157178180515766,-0.04731408782806247
1772526379267764500,6.886764404296875,-0.08369710486233234,-0.05441299658045173,-0.06400321069192141
1772526379277747700,6.896747802734375,-0.06555822158157826,-0.052099605071544645,-0.05980484568662941
1772526379287729400,6.9067294921875,-0.06493044507205487,-0.0626097470395267,-0.05807119029443711
1772526379297711600,6.916711669921875,-0.06004384207427501,-0.07496653978750109,-0.051678091723844403
1772526379307693600,6.926693603515625,-0.036979777351021766,-0.05776406057402491,-0.054913858774676916
1772526379317676500,6.936676513671875,-0.027380758878588676,-0.04061564963534474,-0.04950527772940695
1772526379327658800,6.94665869140625,-0.012039981883764267,-0.01840191813111305,-0.030327589452825484
1772526379337640400,6.956640380859375,0.0003355155646800995,0.003804945240914821,-0.018698672587983307
1772526379347622700,6.96662255859375,0.021807927182316778,0.005698942293971777,-0.0008201207438483834
1772526379357605400,6.97660546875,0.054717678615450856,0.022101503301411866,-0.005407521599344909
1772526379367587600,6.986587646484375,0.09223170897364616,0.040960225289314985,-0.024470387857221065
1772526379377569800,6.99656982421875,0.14262392560541629,0.023268647384643553,-0.035963914839364584
1772526379387551500,7.006551513671875,0.1843289779126644,-0.006452244879305362,-0.017177746631018818
1772526379397533700,7.01653369140625,0.22303251031637192,-0.007979162185639143,-0.0023788214279338716
1772526379407516400,7.026516357421875,0.224884275662899,-0.004901508305966854,-0.007756495878286659
1772526379417498600,7.03649853515625,0.17389643122553824,0.0010603227078914642,-0.02207304439190775
1772526379427480600,7.04648046875,0.11612696382403373,-0.018354864118993282,-0.027759492530487477
1772526379437462500,7.056462646484375,0.09766834706962108,-0.007616466353088617,-0.03753014124277979
1772526379447445500,7.066445556640625,0.11021920108497142,-0.004819236849993467,-0.035669790730997915
1772526379457427500,7.076427490234375,0.119627080899477,0.011105185251682996,-0.02228149951081723
1772526379467409700,7.08640966796875,0.09031856882870197,0.014643880771845579,-0.02662394916191697
1772526379477391400,7.096391357421875,0.04525426922142505,0.03786401283964515,-0.04290891167167574
1772526379487374600,7.10637451171875,0.008901683858036994,0.054322395687550304,-0.061160607677139336
1772526379497356500,7.1163564453125,-0.014126725029945372,0.06641001610532403,-0.09174356013052165
1772526379507338500,7.12633837890625,-0.044592005920410155,0.0359552566088736,-0.09837901608962565
1772526379517320700,7.13632080078125,-0.07907704384624957,0.00023775427863001821,-0.08845606289245188
1772526379527303400,7.146303466796875,-0.09584113164246082,-0.00612535101249814,-0.08057652515638619
1772526379537285600,7.15628564453125,-0.09125029672086238,0.009172755884379147,-0.06977160149291158
1772526379547267600,7.166267578125,-0.0552384876191616,0.007812281186133622,-0.051019810478203
1772526379557249500,7.17624951171875,-0.007053425642848015,0.012156009478867053,-0.034140681467577816
1772526379567232500,7.186232421875,0.04279810824096202,0.007585778953880071,-0.04522632176857441
1772526379577214500,7.19621435546875,0.0521755929172039,-0.035200784979760646,-0.07256952511575072
1772526379587196700,7.20619677734375,0.0542757800668478,-0.0631235417805612,-0.10687179035320878
1772526379597178400,7.216178466796875,0.022846038058400152,-0.07083776941969991,-0.13901669489368795
1772526379607160600,7.22616064453125,-0.0408557420015335,-0.09299451003968714,-0.1290492449676618
1772526379617143600,7.2361435546875,-0.08148819664120674,-0.07363748314082622,-0.11363105535507201
1772526379627125500,7.24612548828125,-0.07135667872726917,-0.0419257093206048,-0.08878927690219134
1772526379637107700,7.256107666015625,-0.03079904288947582,-0.025030980882048606,-0.07135792083628476
1772526379647089400,7.26608935546875,0.03759995507597923,-0.031220921563357113,-0.039219190308265386
1772526379657072600,7.27607275390625,0.10995265910327434,-0.030907033308595417,-0.030025976157747207
1772526379667054600,7.2860546875,0.14832535211741923,-0.036165246097743506,-0.04482285553421825
1772526379677036500,7.29603662109375,0.14901567246913908,-0.05301175148040056,-0.06635689767859876
1772526379687018800,7.306018798828125,0.10049743301570414,-0.07393193604275584,-0.11488470867797732
1772526379697001500,7.31600146484375,0.044860301467776295,-0.09210282189697026,-0.09943042483869939
1772526379706983700,7.325983642578125,-0.032461423143744464,-0.10053644985184072,-0.11634363878201692
1772526379716965600,7.335965576171875,-0.09111059598922729,-0.10865852763950824,-0.123336091485247
1772526379726947600,7.345947509765625,-0.07076105092167854,-0.06016469197496772,-0.01226082156021148
1772526379736929500,7.355929443359375,-0.05460369684696197,0.018716537038236856,0.06956869933195411
1772526379746912500,7.36591259765625,-0.06794073280394076,0.09196297503486275,0.1484900046272203
1772526379756894500,7.37589453125,-0.08970832797586917,0.13133330078423022,0.1497616685308516
1772526379766876400,7.38587646484375,-0.09105857354104518,0.16474018808454274,0.13792992257028816
1772526379776858600,7.395858642578125,-0.08582534906268119,0.1749161296620965,0.16716847467739135
1772526379786841600,7.405841552734375,-0.08850655097067356,0.15627075816392896,0.2178006375448778
1772526379796823600,7.415823486328125,-0.08255261100232601,0.15524842937886715,0.20515563897266983
1772526379806805500,7.425805419921875,-0.03928922333717346,0.15514116961210966,0.1713307454559952
1772526379816787500,7.435787353515625,0.03885550809502601,0.11673223624080419,0.13101893760543315
1772526379826770400,7.4457705078125,0.13859130908846853,0.0738061177060008,0.09276092047952116
1772526379836752600,7.455752685546875,0.2127764892399311,0.023863690668344498,0.05010894271098077
1772526379846734600,7.465734619140625,0.2915560114443302,0.04751724571734667,-0.005743950479477644
1772526379856716500,7.475716552734375,0.350458866789937,0.08453267890363932,-0.0073102499481290575
1772526379866699500,7.485699462890625,0.35632922012805934,0.08227993154078722,0.006390249026380479
1772526379876681500,7.495681396484375,0.3172112617045641,0.07464023044258355,0.01646590856723487
1772526379886663700,7.50566357421875,0.21028116529285906,0.04461480227410793,-0.010179192980565131
1772526379896645600,7.515645751953125,0.10171031593680381,0.044809448063373565,0.0023171178359538314
1772526379906627600,7.525627685546875,0.03218494428992271,0.04492547565847635,0.044635771996900435
1772526379916610600,7.535610595703125,0.014397358664870262,0.05818623150885105,0.05043835732843727
1772526379926592500,7.545592529296875,-0.0257195476680994,0.08480828097462653,0.028562260280735788
1772526379936574500,7.555574462890625,-0.006944120049476623,0.09750526546239853,0.027327640451863408
1772526379946556700,7.565556640625,0.057520461076498025,0.11483780079632996,0.07568948376718908
1772526379956539600,7.57553955078125,0.11217150419652461,0.11031769302338361,0.05176193408239633
1772526379966521600,7.585521484375,0.20173779335319994,0.12191256148815155,0.06775481831040232
1772526379976503600,7.595503662109375,0.22979601310193537,0.09700462246388196,0.1013206955647096
1772526379986485500,7.605485595703125,0.2324526650905609,0.10122428598552942,0.0930947920763865
1772526379996468500,7.615468505859375,0.19306582659780977,0.06687661070376634,0.05275613275151699
1772526380006450700,7.62545068359375,0.1804910071849823,0.024395313327014445,0.013281323714368045
1772526380016432600,7.6354326171875,0.19566870257258415,-0.0047267362609505655,0.01216057605613023
1772526380026414600,7.64541455078125,0.1712748505502939,-0.02509878542125225,0.028342553115449844
1772526380036397600,7.6553974609375,0.15907295610308647,-0.0032750761479139324,0.004369702984206378
1772526380046379500,7.665379638671875,0.1263233636677265,0.020054069252312182,-0.023584691063873467
1772526380056361700,7.67536181640625,0.0660918900668621,0.034333646756410596,-0.01609466410204768
1772526380066343400,7.685343505859375,-0.017111878320574758,-0.00393529362231493,-0.009778028301149606
1772526380076325600,7.69532568359375,-0.13641338052749633,-0.002504384036362171,-0.022657968140393493
1772526380086308400,7.705308349609375,-0.17850129467248915,0.029601649798452853,-0.046939555427245795
1772526380096290600,7.71529052734375,-0.16322481508553027,0.04155424565970897,-0.07501739319190383
1772526380106272500,7.7252724609375,-0.07694821512401104,0.03426350412964821,-0.06740001352336257
1772526380116254500,7.73525439453125,0.04701192654371261,-0.00048252281993627544,-0.046347325155138966
1772526380126237700,7.74523779296875,0.1483434722959995,-0.04674392325729131,-0.051278863273188466
1772526380136220700,7.755220703125,0.1975304047912359,-0.07530103243887425,-0.07930997581928968
1772526380146202600,7.76520263671875,0.2003770263940096,-0.10521803179681301,-0.11035510242432356
1772526380156184600,7.7751845703125,0.18085107266902922,-0.12648176909983158,-0.11694156814254819
1772526380166167600,7.78516748046875,0.1498994695663452,-0.1298059450864792,-0.11953984100744128
1772526380176149500,7.7951494140625,0.132628016769886,-0.12414894223809242,-0.12791136351153254
1772526380186131700,7.805131591796875,0.15950374873578546,-0.09678688805997371,-0.11566446087881922
1772526380196113700,7.81511376953125,0.2164753437578678,-0.08429390171170234,-0.10500190482810139
1772526380206095600,7.825095703125,0.2598287477940321,-0.11163345179706811,-0.0803430086614564
1772526380216078600,7.83507861328125,0.17730770097374915,-0.14231237543821335,-0.1263159475462511
1772526380226060500,7.845060546875,0.13801730859279632,-0.131480161909014,-0.1734182192545384
1772526380236042500,7.85504248046875,0.15258008695244787,-0.1265656479910016,-0.18388463167864827
1772526380246024700,7.865024658203125,0.07873919019401072,-0.15642404902949927,-0.142203435171023
1772526380256007700,7.875007568359375,0.08616086462736129,-0.09413461998552083,-0.10113668076731264
1772526380265989600,7.88498974609375,0.036893852633237835,-0.04570639690309763,-0.06254892023038118
1772526380275971600,7.8949716796875,0.09509177457988262,0.014779782111197709,-0.028835451198928056
1772526380285953500,7.90495361328125,0.09626607905626297,0.04879267248064279,-0.010976955762133
1772526380295936500,7.9149365234375,0.06922843452692032,0.079390493709594,0.025547150243259965
1772526380305918700,7.924918701171875,0.024959669211506844,0.0619832857042551,0.018434505226463078
1772526380315900700,7.934900634765625,-0.013453940334916113,0.03087985304072499,-0.005883103221841156
1772526380325882600,7.944882568359375,-0.017937807750701903,0.018897300432622433,0.011937507889978587
1772526380335864600,7.954864501953125,0.005831190371513366,0.023128654392063616,0.060506856476143
1772526380345847600,7.96484765625,-0.05029167886674404,0.04143734128177166,0.07331106419805437
1772526380355829800,7.974829833984375,-0.1557604705542326,0.049026188975572586,0.055418228100240226
1772526380365811700,7.984811767578125,-0.2244482223331928,0.07233472997918725,0.06318122678454965
1772526380375793700,7.994793701171875,-0.2296720944613218,0.05371127805188298,0.06903291195482016
1772526380385776600,8.004776611328126,-0.19044716853201388,0.05276537550389766,0.06528145046681165
1772526380395758600,8.014758544921875,-0.1347644442766905,0.04950973470881581,0.06234422797113657
1772526380405740500,8.024740478515625,-0.043588966357707974,0.03245806214287877,0.047393290544115
1772526380415722500,8.034722412109375,0.041243864536285396,0.007534048766642808,0.06274426013939083
1772526380425705700,8.044705810546875,0.04746902266144752,-0.018492665154486894,0.040467984792962666
1772526380435687400,8.0546875,0.00021451953351497648,-0.0178594818174839,0.011441577599197625
1772526380445669600,8.064669677734376,-0.05969488250613212,-0.032626258316636084,0.00952544177956879
1772526380455651600,8.074651611328125,-0.09343874667584895,-0.022472674701362848,0.0019539470793679355
1772526380465633500,8.084633544921875,-0.06056055942475795,-0.005092646963894367,0.015825491771847007
1772526380475616800,8.09461669921875,-0.000017535656690597534,-0.025905425629019735,0.023194924561306833
1772526380485598500,8.104598388671874,0.09746201084256172,-0.02554711371064186,0.023154373355209826
1772526380495580700,8.11458056640625,0.23685177683234213,-0.03554959841743111,0.030398353134095668
1772526380505562600,8.124562744140626,0.33571371760070323,-0.038193537054955956,0.038117622274532914
1772526380515545600,8.134545654296875,0.3373416110634804,-0.060156216407567256,0.019653744823113082
1772526380525527800,8.14452783203125,0.30305998675525186,-0.05138210445195436,0.05215856871716678
1772526380535509500,8.154509521484375,0.2807324196130037,-0.0029769699841737745,0.052643283494189376
1772526380545491700,8.16449169921875,0.28206688308715816,0.04407397339567542,0.08473733463026582
1772526380555474400,8.174474365234374,0.25433658011853694,0.03056567252501845,0.08083893895223736
1772526380565456600,8.18445654296875,0.23857728545069692,0.03529576978683471,0.03662811436913907
1772526380575438600,8.1944384765625,0.25276421623528,0.045234979999065394,0.045838498850166796
1772526380585420500,8.204420654296875,0.21679098557829857,0.029229017093777655,0.08586246620267629
1772526380595402800,8.21440283203125,0.19050562072098254,0.07086056577339768,0.08660926598198711
1772526380605385500,8.224385498046875,0.05292027380466461,0.07331219670921564,0.08719890243820845
1772526380615367700,8.23436767578125,-0.07551438292860985,0.08319266247153281,0.1141507683802396
1772526380625349600,8.244349609375,-0.2058691940695047,0.1087203408293426,0.08195720239244401
1772526380635331600,8.25433154296875,-0.3125444389373064,0.11956219896972178,0.07615779539868235
1772526380645314800,8.264314697265625,-0.347161578810215,0.13644275275245307,0.0468343049544841
1772526380655296500,8.274296630859375,-0.32590485576987266,0.09688231125846504,0.07192483400404452
1772526380665278700,8.28427880859375,-0.32966976126134395,0.03886997501179576,0.03221154003590345
1772526380675260400,8.294260498046874,-0.2965606878638267,0.0037498540528118607,0.0022312661834061145
1772526380685243600,8.30424365234375,-0.1967950762540102,-0.0009662146836519241,-0.0039409927107393735
1772526380695225600,8.3142255859375,-0.0808235952526331,-0.0015577508360147476,0.039547362816706295
1772526380705207600,8.32420751953125,-0.017242226701974867,-0.03596387830674648,0.060602425805106754
1772526380715189800,8.334189697265625,0.05374503419101238,-0.037988516002148386,0.007968348530679941
1772526380725171500,8.34417138671875,0.08906418485343456,-0.06474822037294507,-0.02016483615040779
1772526380735154700,8.35415478515625,0.10376198776960373,-0.09025573272556066,-0.05699497589766979
1772526380745136400,8.364136474609374,0.1381920806378126,-0.10593421724215149,-0.1000509313572198
1772526380755118600,8.37411865234375,0.14994915392696856,-0.1386605749323964,-0.11999401451572775
1772526380765100800,8.384100830078125,0.16355331638753412,-0.1782876519218087,-0.12264715937301515
1772526380775083500,8.39408349609375,0.15090543173849583,-0.16841215459555386,-0.12866364318355916
1772526380785065700,8.404065673828125,0.138418875131011,-0.1436832254000008,-0.1487064603894949
1772526380795047400,8.41404736328125,0.1250777475208044,-0.11900032730326056,-0.1570722107399255
1772526380805029600,8.424029541015624,0.10369827488362789,-0.10278335199579595,-0.12032178516536951
1772526380815011600,8.434011474609376,0.12304127325713633,-0.08166019220724702,-0.10899221657328308
1772526380824994600,8.44399462890625,0.14594927063584326,-0.04512888927608728,-0.07622443089410662
1772526380834976800,8.453976806640625,0.1537035380244255,-0.021096564042568204,-0.052455651967599985
1772526380844958500,8.46395849609375,0.1464396845012903,-0.008783610436320304,-0.046456411552801724
1772526380854940700,8.473940673828125,0.14125380629599094,-0.017703414472937582,-0.014070391732826829
1772526380864923600,8.483923583984375,0.1391857678502798,-0.0009521861582994461,-0.005963073122873902
1772526380874905600,8.493905517578124,0.12309271118342875,0.012617197249829768,0.020593071499839424
1772526380884887800,8.5038876953125,0.10086918893754482,0.02401405892446637,0.04177797141298652
1772526380894869500,8.513869384765625,0.09170505475103854,0.052731911625713106,0.04728000289537012
1772526380904852700,8.523852783203125,0.07670856114923953,0.05425210693031549,0.056303997958824036
1772526380914834400,8.53383447265625,0.05864683475792408,0.06674114775583148,0.06390000604577362
1772526380924816600,8.543816650390625,0.0397796372026205,0.055022360650449985,0.058426323875039814
1772526380934798600,8.553798583984374,0.02535071435570717,0.049733898853510615,0.03375124375857413
1772526380944780500,8.563780517578126,0.027512860825657844,0.03587941489368677,0.03925027956627309
1772526380954763800,8.573763671875,0.024105682730674743,0.044898733782023185,0.028393735313415526
1772526380964745500,8.583745361328125,0.019090484917163846,0.052906829801201816,0.00031892975606024265
1772526380974727700,8.593727783203125,0.0263818109691143,0.04701309558749198,-0.01606163861528039
1772526380984709400,8.60370947265625,0.04918927058279514,0.038152182131260634,-0.04207300883680582
1772526380994692600,8.613692626953124,0.06662205142080783,0.02723302097097039,-0.0408847489003092
1772526381004674600,8.623674560546876,0.09545008649826049,0.02907864883765578,-0.05561163178049028
1772526381014656500,8.633656494140626,0.10220072980225085,0.03627367490828037,-0.05910181198380887
1772526381024638700,8.643638671875,0.08679039470255374,0.020432693306356668,-0.07883782826289534
1772526381034620400,8.653620361328125,0.061413961383700366,0.0034068858340382574,-0.07903532359637319
1772526381044603600,8.663603759765625,0.013280921855568884,-0.00915609701052308,-0.06030059331431985
1772526381054585600,8.673585693359374,-0.03542085747122765,0.004068126221746206,-0.04730199553146958
1772526381064567600,8.683567626953124,-0.05831716441214084,0.015241992795467375,-0.056224795242771505
1772526381074549800,8.6935498046875,-0.0205652336448431,0.02428863808214664,-0.07696304736696183
1772526381084532500,8.703532470703125,0.04949088387787342,0.01071764723882079,-0.06649162997417152
1772526381094514700,8.7135146484375,0.09758359139561652,-0.007994652015715836,-0.05227196596376597
1772526381104496600,8.72349658203125,0.097998601937294,-0.019070611172914503,-0.04217376579754054
1772526381114478600,8.733478515625,0.057525721773505206,-0.038418139591068025,-0.034869361068308354
1772526381124461600,8.743461669921874,0.03629705578386783,-0.030567572221159932,-0.04852854165174067
1772526381134443500,8.753443603515626,0.006859364375472068,-0.026418489717692135,-0.06282090557217597
1772526381144425200,8.76342529296875,-0.0008364508241415023,-0.05471460987553,-0.06588482318744063
1772526381154407000,8.773406982421875,-0.00045534255206584927,-0.0827827664963901,-0.006577332563698291
1772526381164389000,8.78338916015625,-0.005546528211235999,-0.07467953953966498,-0.03902311974689364
1772526381174371800,8.793371826171875,0.023052958807349203,-0.08704086233228445,-0.050657151178270576
1772526381184354000,8.80335400390625,0.03483399749398231,-0.0819159205339849,-0.05866064408756792
1772526381194336300,8.813336181640626,0.052821489605307574,-0.0712771837502718,-0.06355367682613432
1772526381204318000,8.82331787109375,0.0616740736246109,-0.0761689013145864,-0.11538432876318692
1772526381214301200,8.83330126953125,0.041209962266683574,-0.05018792623132467,-0.11156257851794361
1772526381224283000,8.843282958984375,-0.016419804403185842,-0.03458352986425161,-0.10695186985209583
1772526381234265000,8.85326513671875,-0.08420037820935249,0.011816110000014304,-0.10085326071605086
1772526381244247000,8.8632470703125,-0.08534545659124851,0.02690335062518716,-0.02832330042570829
1772526381254229000,8.87322900390625,-0.046241526693105696,-0.02716463190987706,0.013839505586400628
1772526381264212200,8.883212158203126,-0.00518704724907875,-0.001484539469331503,-0.010970452956110238
1772526381274194000,8.89319384765625,0.03878244285881519,-0.01805222791060805,-0.026910949409753082
1772526381284176100,8.903176025390625,0.058987611019611356,-0.04177227232456207,-0.03881926773786545
1772526381294158000,8.913157958984375,0.09881167188584804,-0.007993775232881308,-0.024143165196850894
1772526381304141000,8.92314111328125,0.16596271561682224,-0.016802373979985713,-0.01617708168849349
1772526381314123300,8.933123291015624,0.22384967191815375,-0.0669397390678525,-0.08741210679747163
1772526381324105000,8.94310498046875,0.29127660998106003,-0.05189209980070591,-0.20585772282741963
1772526381334087200,8.953087158203125,0.19473755920231342,-0.0651825201369822,-0.28030257682837545
