time,seconds_elapsed,z,y,x
1772526372489814300,0.108814208984375,0.09811815619468689,-0.2557987570762634,0.17108885943889618
1772526372499797200,0.11879736328125,0.08411870151758194,-0.19582292437553406,0.1501290202140808
1772526372509779200,0.128779296875,0.07532068341970444,-0.15022747218608856,0.12573499977588654
1772526372519761400,0.138761474609375,0.06155354902148247,-0.08881305158138275,0.1044008806347847
1772526372529743400,0.148743408203125,0.054062072187662125,-0.05015699937939644,0.07872055470943451
1772526372539726300,0.158726318359375,0.04808911308646202,-0.0071167051792144775,0.061629123985767365
1772526372549708300,0.168708251953125,0.04211324825882912,0.0034166292753070593,0.044000595808029175
1772526372559690200,0.178690185546875,0.03129591792821884,0.016567828133702278,0.0328708291053772
1772526372569672400,0.18867236328125,0.02581566572189331,0.026494495570659637,0.02873440831899643
1772526372579655400,0.198655517578125,0.010527683421969414,0.05666457861661911,0.03953045979142189
1772526372589637400,0.208637451171875,-0.004671244416385889,0.08783847093582153,0.05390460416674614
1772526372599619300,0.218619384765625,-0.01691514626145363,0.12321306020021439,0.07000771909952164
1772526372609601300,0.228601318359375,-0.02829510159790516,0.1453857421875,0.08625193685293198
1772526372619584300,0.238584228515625,-0.039923883974552155,0.16823524236679077,0.10224936902523041
1772526372629566500,0.24856640625,-0.0503498911857605,0.17473015189170837,0.11150091886520386
1772526372639548400,0.25854833984375,-0.0540555864572525,0.16311605274677277,0.1118057519197464
1772526372649531400,0.268531494140625,-0.05521885305643082,0.12944357097148895,0.10734282433986664
1772526372659513300,0.278513427734375,-0.05727129802107811,0.07813338935375214,0.10068358480930328
1772526372669495300,0.288495361328125,-0.06503094732761383,0.01787138357758522,0.0982169657945633
1772526372679477200,0.298477294921875,-0.07253222912549973,-0.015044067054986954,0.10009731352329254
1772526372689460200,0.308460205078125,-0.08268419653177261,-0.030159903690218925,0.10442148894071579
1772526372699442400,0.3184423828125,-0.08886255323886871,-0.016784872859716415,0.10294777899980545
1772526372709424400,0.32842431640625,-0.09240322560071945,-0.015248226933181286,0.09023944288492203
1772526372719406300,0.33840625,-0.08733166754245758,0.002201320603489876,0.07496823370456696
1772526372729389300,0.348389404296875,-0.08683712035417557,0.016767745837569237,0.06369001418352127
1772526372739371300,0.358371337890625,-0.09177963435649872,0.022039052098989487,0.057642508298158646
1772526372749353500,0.368353515625,-0.09391602128744125,0.04119862988591194,0.05321073904633522
1772526372759335200,0.378335205078125,-0.0952632874250412,0.03394680842757225,0.04287548363208771
1772526372769318400,0.388318359375,-0.0945650041103363,0.006426500156521797,0.019740603864192963
1772526372779300000,0.398300048828125,-0.09533821046352386,-0.03703383356332779,-0.007202766370028257
1772526372789282300,0.4082822265625,-0.0936974436044693,-0.0795205682516098,-0.033311598002910614
1772526372799265300,0.418265380859375,-0.08869574964046478,-0.10954469442367554,-0.054686687886714935
1772526372809247200,0.428247314453125,-0.08402615785598755,-0.10038235038518906,-0.0658559799194336
1772526372819229400,0.4382294921875,-0.07500898838043213,-0.06410282850265503,-0.06962776929140091
1772526372829211100,0.448211181640625,-0.06463810056447983,-0.01626286469399929,-0.06993110477924347
1772526372839194400,0.4581943359375,-0.04978635534644127,0.013175704516470432,-0.07422821968793869
1772526372849176300,0.46817626953125,-0.03916087746620178,0.03167135640978813,-0.07896225899457932
1772526372859158300,0.478158203125,-0.028213337063789368,0.032348450273275375,-0.07275450974702835
1772526372869140500,0.488140380859375,-0.02257329598069191,0.015755359083414078,-0.06373012065887451
1772526372879123200,0.498123291015625,-0.009938899427652359,-0.006853071972727776,-0.046770669519901276
1772526372889105400,0.50810546875,0.01291980966925621,-0.04010263830423355,-0.03406286612153053
1772526372899087400,0.51808740234375,0.04499707370996475,-0.05693097412586212,-0.015057262033224106
1772526372909070300,0.5280703125,0.07141749560832977,-0.04303806275129318,0.0033680852502584457
1772526372919052300,0.53805224609375,0.09533567726612091,-0.021074235439300537,0.019721463322639465
1772526372929034200,0.5480341796875,0.11480870842933655,0.003469722345471382,0.027680855244398117
1772526372939016400,0.558016357421875,0.13149228692054749,0.03424318507313728,0.0316322036087513
1772526372948999400,0.56799951171875,0.14324241876602173,0.06413956731557846,0.027654238045215607
1772526372958981400,0.5779814453125,0.14548243582248688,0.08895546197891235,0.02474173903465271
1772526372968963300,0.58796337890625,0.14155906438827515,0.0990014374256134,0.020868171006441116
1772526372978945300,0.5979453125,0.13925857841968536,0.09686591476202011,0.02477780357003212
1772526372988928300,0.60792822265625,0.14090414345264435,0.09549225866794586,0.03488423302769661
1772526372998910500,0.617910400390625,0.15228931605815887,0.09112299233675003,0.05011924356222153
1772526373008892400,0.627892333984375,0.16084684431552887,0.09025026857852936,0.0712282583117485
1772526373018874400,0.637874267578125,0.17027202248573303,0.08858539909124374,0.09402485936880112
1772526373028857300,0.647857421875,0.1720278561115265,0.0831669345498085,0.1147913932800293
1772526373038839300,0.65783935546875,0.17451715469360352,0.080447718501091,0.1256493479013443
1772526373048821200,0.6678212890625,0.17462794482707977,0.07187367230653763,0.13454458117485046
1772526373058803200,0.67780322265625,0.17320901155471802,0.072626493871212,0.1379997730255127
1772526373068786400,0.687786376953125,0.16248632967472076,0.05369195714592934,0.1354263573884964
1772526373078768000,0.69776806640625,0.15422913432121277,0.04319889098405838,0.12585099041461945
1772526373088750300,0.707750244140625,0.14794966578483582,0.03803661838173866,0.111760213971138
1772526373098733300,0.7177333984375,0.14861956238746643,0.031128523871302605,0.09661209583282471
1772526373108715300,0.72771533203125,0.14159680902957916,0.04207784682512283,0.09162026643753052
1772526373118697500,0.737697509765625,0.13364461064338684,0.03754914179444313,0.08444038778543472
1772526373128679400,0.747679443359375,0.12125052511692047,0.015240638516843319,0.0779406726360321
1772526373138662700,0.75766259765625,0.11298713088035583,-0.007110482081770897,0.0708082839846611
1772526373148644400,0.767644287109375,0.10624027997255325,-0.02619495987892151,0.05562933161854744
1772526373158626600,0.77762646484375,0.09869099408388138,-0.047230206429958344,0.042815595865249634
1772526373168608800,0.78760888671875,0.0864148810505867,-0.055601056665182114,0.032479602843523026
1772526373178591500,0.797591552734375,0.07783620059490204,-0.05764666572213173,0.02552381530404091
1772526373188573700,0.80757373046875,0.056286972016096115,-0.07378595322370529,0.014184076339006424
1772526373198555400,0.817555419921875,0.04076874256134033,-0.08264832198619843,-0.0010992977768182755
1772526373208538600,0.82753857421875,0.027621248736977577,-0.08647847920656204,-0.01906578242778778
1772526373218520600,0.8375205078125,0.02437794953584671,-0.09273029863834381,-0.038091547787189484
1772526373228502500,0.84750244140625,0.017120303586125374,-0.09867952764034271,-0.05753209441900253
1772526373238484700,0.857484619140625,0.01532295998185873,-0.09749259054660797,-0.07326610386371613
1772526373248466400,0.867466552734375,0.012927713803946972,-0.08011972904205322,-0.08704876154661179
1772526373258449700,0.87744970703125,0.012421892955899239,-0.06081809476017952,-0.09870107471942902
1772526373268431600,0.887431640625,0.014264266937971115,-0.04948900640010834,-0.11802338063716888
1772526373278413600,0.89741357421875,0.021939240396022797,-0.05355503410100937,-0.13115625083446503
1772526373288396500,0.907396484375,0.02761257067322731,-0.06912973523139954,-0.1392301470041275
1772526373298378500,0.91737841796875,0.037102967500686646,-0.08583296090364456,-0.13400384783744812
1772526373308360700,0.927360595703125,0.05515893176198006,-0.09793170541524887,-0.12325454503297806
1772526373318342400,0.93734228515625,0.0699583888053894,-0.1082511842250824,-0.10945190489292145
1772526373328325600,0.94732568359375,0.08161743730306625,-0.12624190747737885,-0.10043018311262131
1772526373338307600,0.9573076171875,0.08824586868286133,-0.15890806913375854,-0.08974140137434006
1772526373348289500,0.96728955078125,0.08545194566249847,-0.17756804823875427,-0.07709138840436935
1772526373358271500,0.977271484375,0.07404384762048721,-0.17798113822937012,-0.048570454120635986
1772526373368254700,0.987254638671875,0.0534387044608593,-0.14533691108226776,-0.016485489904880524
1772526373378236400,0.997236328125,0.03375186771154404,-0.10366314649581909,0.025664890184998512
1772526373388218600,1.007218505859375,0.014285756275057793,-0.05288652330636978,0.05271808058023453
1772526373398200600,1.01720068359375,0.0010216059163212776,-0.0017866750713437796,0.06671301275491714
1772526373408183600,1.02718359375,-0.006845638155937195,0.035218480974435806,0.06013686954975128
1772526373418165500,1.03716552734375,-0.003594097448512912,0.05995381623506546,0.034615978598594666
1772526373428147500,1.0471474609375,0.006270517595112324,0.0784502699971199,0.004896434023976326
1772526373438130700,1.057130615234375,0.017277449369430542,0.09207916259765625,-0.028224050998687744
1772526373448112400,1.0671123046875,0.02292335033416748,0.09775382280349731,-0.057966236025094986
1772526373458094600,1.077094482421875,0.017735712230205536,0.09791789203882217,-0.06993284076452255
1772526373468076500,1.08707666015625,0.014476003125309944,0.09150819480419159,-0.07371186465024948
1772526373478059500,1.0970595703125,0.011860758066177368,0.07209650427103043,-0.06072305142879486
1772526373488041700,1.107041748046875,0.015093304216861725,0.05635349079966545,-0.03713250905275345
1772526373498023400,1.1170234375,0.01628829911351204,0.049072179943323135,-0.005306213162839413
1772526373508005600,1.127005615234375,0.020529916509985924,0.03869890049099922,0.025404028594493866
1772526373517988600,1.136988525390625,0.01992103084921837,0.024008210748434067,0.053407520055770874
1772526373527970600,1.146970458984375,0.019845928996801376,0.008905690163373947,0.07281769812107086
1772526373537952800,1.156952880859375,0.019693300127983093,0.00014522718265652657,0.08438307046890259
1772526373547934500,1.1669345703125,0.019566534087061882,-0.004926230758428574,0.0908774584531784
1772526373557917700,1.176917724609375,0.02139977738261223,-0.006929268129169941,0.08594268560409546
1772526373567899400,1.1868994140625,0.018317434936761856,-0.006790516898036003,0.07479202747344971
1772526373577881600,1.196881591796875,0.017563898116350174,-0.00233397982083261,0.06403117626905441
1772526373587864600,1.206864501953125,0.015501013025641441,0.007714926265180111,0.04923465475440025
1772526373597846500,1.216846435546875,0.010531553998589516,0.013737398199737072,0.03410124033689499
1772526373607828700,1.226828857421875,0.008301956579089165,0.008571931160986423,0.016574710607528687
1772526373617810400,1.236810546875,0.0057139163836836815,0.0015235301107168198,0.011768987402319908
1772526373627793700,1.246793701171875,0.0031157368794083595,-0.0008011430036276579,0.003804537933319807
1772526373637775600,1.256775634765625,-0.0016834535636007786,-0.008213311433792114,0.008541406132280827
1772526373647757600,1.266757568359375,0.000281692948192358,-0.019340531900525093,0.012852797284722328
1772526373657739500,1.276739501953125,-0.002571192104369402,-0.04653867706656456,0.01794329658150673
1772526373667722500,1.286722412109375,-0.0014630509540438652,-0.0588853619992733,0.030075859278440475
1772526373677704400,1.296704345703125,-0.001607656478881836,-0.06481856852769852,0.049949418753385544
1772526373687686700,1.306686767578125,0.0012358007952570915,-0.05242874100804329,0.06528044492006302
1772526373697668600,1.316668701171875,0.002507926430553198,-0.03759944438934326,0.08081895858049393
1772526373707651600,1.326651611328125,0.006036614533513784,-0.03289124369621277,0.08734956383705139
1772526373717633500,1.336633544921875,0.007042491342872381,-0.029659492895007133,0.09224898368120193
1772526373727615500,1.346615478515625,0.004351100418716669,-0.023244738578796387,0.09142500162124634
1772526373737597400,1.356597412109375,0.006250112783163786,-0.003572929883375764,0.08883169293403625
1772526373747580400,1.366580322265625,0.004157667513936758,0.02573462389409542,0.09399955719709396
1772526373757562600,1.376562744140625,-0.007850647903978825,0.05474528297781944,0.09644583612680435
1772526373767544600,1.386544677734375,-0.02530607022345066,0.08743851631879807,0.10397645831108093
1772526373777526500,1.396526611328125,-0.04174644500017166,0.10202216356992722,0.10135548561811447
1772526373787509800,1.406509765625,-0.05580500513315201,0.1061151772737503,0.09295481443405151
1772526373797491500,1.416491455078125,-0.06996990740299225,0.1006244570016861,0.08196933567523956
1772526373807473700,1.4264736328125,-0.07947872579097748,0.09565633535385132,0.06641700863838196
1772526373817456400,1.436456298828125,-0.08076924085617065,0.08428549021482468,0.051984015852212906
1772526373827438600,1.4464384765625,-0.08564149588346481,0.071661576628685,0.03836274519562721
1772526373837420500,1.456420654296875,-0.08753127604722977,0.055826958268880844,0.020564841106534004
1772526373847402500,1.466402587890625,-0.09073106199502945,0.03229047358036041,-0.0004320540465414524
1772526373857385700,1.4763857421875,-0.0912311002612114,0.005747049115598202,-0.017153631895780563
1772526373867367400,1.486367431640625,-0.0851588323712349,-0.011918230913579464,-0.03380344808101654
1772526373877349600,1.496349609375,-0.08609373867511749,-0.03303870931267738,-0.05192670226097107
1772526373887331600,1.50633154296875,-0.08502980321645737,-0.051890429109334946,-0.07066310942173004
1772526373897314600,1.516314453125,-0.08097577840089798,-0.07578890770673752,-0.08564458787441254
1772526373907296800,1.526296875,-0.07780049741268158,-0.10800516605377197,-0.10791100561618805
1772526373917278500,1.536278564453125,-0.08105488866567612,-0.12643805146217346,-0.12134530395269394
1772526373927260700,1.5462607421875,-0.0728563442826271,-0.11862914264202118,-0.13119633495807648
1772526373937243400,1.556243408203125,-0.07309772074222565,-0.11403969675302505,-0.1282329261302948
1772526373947225600,1.5662255859375,-0.06274735182523727,-0.09971348941326141,-0.12015050649642944
1772526373957207600,1.57620751953125,-0.05624380335211754,-0.08571530878543854,-0.1054057702422142
1772526373967190500,1.5861904296875,-0.04410191997885704,-0.07756896317005157,-0.09785518050193787
1772526373977172700,1.5961728515625,-0.02650756761431694,-0.07432140409946442,-0.08108144253492355
1772526373987154400,1.606154541015625,-0.010507827624678612,-0.06930054724216461,-0.07434364408254623
1772526373997136600,1.61613671875,0.013398047536611557,-0.0766310766339302,-0.0630585253238678
1772526374007119600,1.62611962890625,0.029189258813858032,-0.07491359859704971,-0.043478962033987045
1772526374017101600,1.6361015625,0.044069189578294754,-0.06617352366447449,-0.017989853397011757
1772526374027083500,1.64608349609375,0.05432635545730591,-0.05586043372750282,0.00790299754589796
1772526374037065500,1.6560654296875,0.05893372744321823,-0.05224648863077164,0.03165001794695854
1772526374047048400,1.66604833984375,0.060224562883377075,-0.0462983176112175,0.04782792180776596
1772526374057030700,1.67603076171875,0.06329119950532913,-0.03357848525047302,0.054740943014621735
1772526374067012600,1.6860126953125,0.06563477963209152,-0.02152501791715622,0.05777721479535103
1772526374076994600,1.69599462890625,0.078433558344841,-0.016598783433437347,0.05968949943780899
1772526374086977500,1.7059775390625,0.08592236787080765,-0.024028737097978592,0.05629263445734978
1772526374096959500,1.71595947265625,0.09691336005926132,-0.017498940229415894,0.05726504325866699
1772526374106941400,1.72594140625,0.10020315647125244,-0.006805283948779106,0.06019318848848343
1772526374116923600,1.735923583984375,0.10451525449752808,0.005635378882288933,0.0653553158044815
1772526374126906600,1.74590673828125,0.10858163237571716,0.012202734127640724,0.0721634179353714
1772526374136888300,1.755888427734375,0.10961421579122543,0.012030987069010735,0.08491671830415726
1772526374146870000,1.7658701171875,0.1173512265086174,0.005135263316333294,0.1001950055360794
1772526374156852200,1.775852294921875,0.12809427082538605,-0.00048779346980154514,0.12008386105298996
1772526374166835200,1.785835205078125,0.1369684636592865,-0.004135791212320328,0.13839735090732574
1772526374176817200,1.795817138671875,0.14681406319141388,-0.004728861153125763,0.15825770795345306
1772526374186799400,1.80579931640625,0.15790000557899475,-0.018227091059088707,0.1630908101797104
1772526374196782000,1.815781982421875,0.16431304812431335,-0.03454342857003212,0.1642148345708847
1772526374206764300,1.825764404296875,0.17074377834796906,-0.032472554594278336,0.163447305560112
1772526374216746000,1.83574609375,0.16767673194408417,-0.01823698915541172,0.16154858469963074
1772526374226728200,1.845728271484375,0.1595626175403595,-0.00626261904835701,0.1492365300655365
1772526374236711200,1.855711181640625,0.14879803359508514,0.01079640630632639,0.1372198909521103
1772526374246693000,1.865693115234375,0.14111533761024475,0.019118785858154297,0.11450419574975967
1772526374256675300,1.87567529296875,0.12614554166793823,0.03145812824368477,0.08619098365306854
1772526374266657000,1.885656982421875,0.11181479692459106,0.04161835461854935,0.0639762282371521
1772526374276640300,1.89564013671875,0.09842681884765625,0.05099423602223396,0.039788082242012024
1772526374286622200,1.905622314453125,0.08635764569044113,0.04848793148994446,0.014957300387322903
1772526374296604200,1.915604248046875,0.06904643774032593,0.04699399322271347,-0.012352727353572845
1772526374306586400,1.92558642578125,0.05175507068634033,0.03327392041683197,-0.03482980281114578
1772526374316569000,1.935569091796875,0.03152592480182648,0.017467770725488663,-0.05573803186416626
1772526374326551300,1.94555126953125,0.014225495979189873,-0.006524381227791309,-0.06629853695631027
1772526374336533200,1.955533203125,0.0031737633980810642,-0.023337628692388535,-0.07136151194572449
1772526374346515200,1.96551513671875,-0.007907116785645485,-0.03487550839781761,-0.06577526777982712
1772526374356498200,1.975498291015625,-0.020514771342277527,-0.052356619387865067,-0.059278253465890884
1772526374366480100,1.985480224609375,-0.03672543168067932,-0.06762398779392242,-0.054950881749391556
1772526374376462300,1.99546240234375,-0.0458889901638031,-0.07252243906259537,-0.054438382387161255
1772526374386444000,2.005444091796875,-0.050298918038606644,-0.06287194043397903,-0.057197682559490204
1772526374396427300,2.01542724609375,-0.05338509380817413,-0.0483548603951931,-0.06335823982954025
1772526374406409200,2.0254091796875,-0.0548652783036232,-0.03925563767552376,-0.07093599438667297
1772526374416391200,2.03539111328125,-0.05395820736885071,-0.025879910215735435,-0.08695437759160995
1772526374426374100,2.0453740234375,-0.05727916955947876,-0.015463754534721375,-0.09532815963029861
1772526374436356400,2.0553564453125,-0.05596499890089035,-0.0033655359875410795,-0.10413139313459396
1772526374446338300,2.06533837890625,-0.062490008771419525,-0.0018989334348589182,-0.1123776063323021
1772526374456320300,2.0753203125,-0.060852862894535065,-0.007338138297200203,-0.11835092306137085
1772526374466303200,2.08530322265625,-0.05863471329212189,-0.006548510864377022,-0.11701802164316177
1772526374476285200,2.09528515625,-0.056785136461257935,0.00011560739949345589,-0.1088610514998436
1772526374486267100,2.10526708984375,-0.0446443185210228,0.014196272008121014,-0.08778771758079529
1772526374496249000,2.1152490234375,-0.03255884349346161,0.033562082797288895,-0.0642501711845398
1772526374506232300,2.125232421875,-0.019668076187372208,0.04388716071844101,-0.03630588576197624
1772526374516214000,2.135214111328125,-0.0099867545068264,0.048553843051195145,-0.010434838943183422
1772526374526196200,2.1451962890625,0.005756255239248276,0.05611509084701538,0.013684878125786781
1772526374536178200,2.15517822265625,0.018500352278351784,0.0664721429347992,0.03788311034440994
1772526374546161200,2.1651611328125,0.023809630423784256,0.07460277527570724,0.053538501262664795
1772526374556143400,2.175143310546875,0.029858313500881195,0.0787808746099472,0.06562697887420654
1772526374566125000,2.185125,0.03290257230401039,0.08056492358446121,0.06811090558767319
1772526374576107300,2.195107177734375,0.03118431195616722,0.07571699470281601,0.07610436528921127
1772526374586090000,2.205090087890625,0.0261879563331604,0.0754336342215538,0.07439301908016205
1772526374596072200,2.215072265625,0.013938551768660545,0.07174810767173767,0.07150690257549286
1772526374606054400,2.225054443359375,0.0030355704948306084,0.07112599909305573,0.06470518559217453
1772526374616037000,2.235037109375,-0.010795915499329567,0.06767699867486954,0.05308244749903679
1772526374626019300,2.245019287109375,-0.0188775435090065,0.062181826680898666,0.046740930527448654
1772526374636001000,2.2550009765625,-0.02516109310090542,0.05240573734045029,0.036529652774333954
1772526374645983200,2.264983154296875,-0.03100753016769886,0.03298729658126831,0.03763353452086449
1772526374655966200,2.27496630859375,-0.029263174161314964,0.02505280077457428,0.04182538762688637
1772526374665948200,2.2849482421875,-0.03201022744178772,0.02156192809343338,0.047703515738248825
1772526374675930400,2.294930419921875,-0.034154146909713745,0.0209027286618948,0.05054809898138046
1772526374685912000,2.304912109375,-0.03562261536717415,0.021370379254221916,0.05225305259227753
1772526374695895300,2.314895263671875,-0.034389741718769073,0.021586883813142776,0.04332736134529114
1772526374705877200,2.324877197265625,-0.0348035953938961,0.00852247979491949,0.03088906779885292
1772526374715859200,2.334859130859375,-0.031139705330133438,-0.01246339175850153,0.008586776442825794
1772526374725841400,2.34484130859375,-0.03487265855073929,-0.026241522282361984,-0.005934376269578934
1772526374735824100,2.35482421875,-0.037116557359695435,-0.03385671600699425,-0.020308326929807663
1772526374745806300,2.364806396484375,-0.03568297624588013,-0.03613398224115372,-0.027522297576069832
1772526374755788000,2.3747880859375,-0.039650097489356995,-0.047742508351802826,-0.038094453513622284
1772526374765770200,2.384770263671875,-0.04246266186237335,-0.05564437061548233,-0.04422345384955406
1772526374775753200,2.394753173828125,-0.050321824848651886,-0.05839627608656883,-0.05166628584265709
1772526374785735200,2.404735107421875,-0.049832332879304886,-0.05593258515000343,-0.06166858598589897
1772526374795717000,2.414717041015625,-0.05050346255302429,-0.04117530211806297,-0.06827639788389206
1772526374805699000,2.424698974609375,-0.05030691996216774,-0.028919436037540436,-0.07222160696983337
1772526374815682000,2.43468212890625,-0.04651730880141258,-0.015816397964954376,-0.07244500517845154
1772526374825664300,2.444664306640625,-0.042311377823352814,-0.007120911963284016,-0.07173766940832138
1772526374835646200,2.454646240234375,-0.029821332544088364,-0.005180370062589645,-0.06983865797519684
1772526374845629200,2.464629150390625,-0.023448389023542404,-0.0011278376914560795,-0.05963502079248428
1772526374855611100,2.474611083984375,-0.021478470414876938,0.00008105812594294548,-0.04130363464355469
1772526374865593000,2.484593017578125,-0.021877944469451904,0.006661995314061642,-0.026114296168088913
1772526374875575300,2.4945751953125,-0.02176278829574585,0.012001176364719868,-0.009601498022675514
1772526374885558000,2.50455810546875,-0.01724500022828579,0.016268093138933182,0.00226394971832633
1772526374895540200,2.514540283203125,-0.012778909876942635,0.023654362186789513,0.009051619097590446
1772526374905522200,2.524522216796875,-0.00892824586480856,0.037935297936201096,0.014868495985865593
1772526374915504000,2.534504150390625,-0.00689642783254385,0.03861807659268379,0.013607924804091454
1772526374925487400,2.5444873046875,-0.012491196393966675,0.04992266371846199,0.016733143478631973
1772526374935469000,2.554468994140625,-0.012282932177186012,0.06854725629091263,0.014352798461914062
1772526374945451300,2.564451171875,-0.01642201840877533,0.07848457992076874,0.011184701696038246
1772526374955433200,2.57443310546875,-0.022559015080332756,0.0785212367773056,0.010853962041437626
1772526374965416200,2.584416259765625,-0.023743322119116783,0.0709698423743248,0.008914381265640259
1772526374975398400,2.5943984375,-0.028607577085494995,0.062149811536073685,0.01030213013291359
1772526374985380000,2.604380126953125,-0.032992735505104065,0.05681150406599045,0.009938875213265419
1772526374995362300,2.6143623046875,-0.03922522813081741,0.04193964973092079,0.009294003248214722
1772526375005345000,2.624344970703125,-0.04132593050599098,0.019378945231437683,0.008461233228445053
1772526375015327200,2.6343271484375,-0.03548688068985939,-0.0013737112749367952,0.008632158860564232
1772526375025309200,2.64430908203125,-0.0332689993083477,-0.009166653268039227,0.006925072520971298
1772526375035291100,2.654291015625,-0.028347667306661606,-0.00655375886708498,0.004942555911839008
1772526375045274400,2.6642744140625,-0.02800838090479374,-0.006555622443556786,0.0025992407463490963
1772526375055256000,2.674256103515625,-0.02990998886525631,0.0012417056132107973,0.003323772456496954
1772526375065238300,2.68423828125,-0.03324160352349281,0.008247417397797108,-0.00113702192902565
1772526375075220200,2.69422021484375,-0.036751434206962585,0.011511298827826977,-0.0059751952067017555
1772526375085203200,2.704203125,-0.04189692810177803,0.009537897072732449,-0.012903941795229912
1772526375095185200,2.71418505859375,-0.045950356870889664,-0.0034732322674244642,-0.012411147356033325
1772526375105167000,2.7241669921875,-0.04941965639591217,-0.018609842285513878,-0.012263074517250061
1772526375115150300,2.734150390625,-0.0487155020236969,-0.03103547729551792,-0.0077975234016776085
1772526375125132000,2.744132080078125,-0.04088740795850754,-0.03829259052872658,0.0009032902307808399
1772526375135114800,2.75411474609375,-0.035203419625759125,-0.044598646461963654,0.015815116465091705
1772526375145096400,2.764096435546875,-0.029113300144672394,-0.04656991735100746,0.029965288937091827
1772526375155079700,2.77407958984375,-0.028912251815199852,-0.039100468158721924,0.043617501854896545
1772526375165061400,2.784061279296875,-0.022414671257138252,-0.02541208826005459,0.045898497104644775
1772526375175043600,2.794043701171875,-0.020166512578725815,-0.01926269568502903,0.041618604212999344
1772526375185025500,2.804025634765625,-0.01964932680130005,-0.016703665256500244,0.03485337644815445
1772526375195008500,2.814008544921875,-0.0180465467274189,-0.005753336939960718,0.02336333692073822
1772526375204990700,2.82399072265625,-0.016822289675474167,-0.007818885147571564,0.007776388432830572
1772526375214972400,2.833972412109375,-0.014445122331380844,-0.002287230920046568,-0.004582611378282309
1772526375224954600,2.84395458984375,-0.01462728250771761,-0.0039969803765416145,-0.007629533763974905
1772526375234937600,2.8539375,-0.014611342921853065,0.00287095014937222,-0.00954372063279152
1772526375244919600,2.86391943359375,-0.012727688997983932,0.008297407068312168,-0.007663263473659754
1772526375254901800,2.87390185546875,-0.006559506990015507,0.007447111885994673,0.003162403590977192
1772526375264883500,2.883883544921875,-0.0016590245068073273,0.0066596148535609245,0.014336494728922844
1772526375274866700,2.89386669921875,0.0073797814548015594,-0.0011823645327240229,0.02982148341834545
1772526375284848400,2.903848388671875,0.015393764711916447,-0.006691645830869675,0.04012685269117355
1772526375294830600,2.91383056640625,0.018942534923553467,-0.009158177301287651,0.048406217247247696
1772526375304812500,2.9238125,0.022233135998249054,-0.01152865681797266,0.04392971098423004
1772526375314795500,2.93379541015625,0.023421017453074455,-0.008156171068549156,0.03632038086652756
1772526375324777700,2.94377783203125,0.021839898079633713,-0.00601205974817276,0.027578555047512054
1772526375334759400,2.953759521484375,0.023059505969285965,-0.0057840486988425255,0.01642061211168766
1772526375344741600,2.96374169921875,0.027684882283210754,0.0006389636546373367,0.011389367282390594
1772526375354724600,2.973724609375,0.030309012159705162,0.00019066361710429192,0.008847753517329693
1772526375364706600,2.98370654296875,0.03571096807718277,-0.0048917131498456,0.008968927897512913
1772526375374688500,2.9936884765625,0.042262688279151917,-0.020172061398625374,0.007096132263541222
1772526375384670500,3.00367041015625,0.04379693418741226,-0.027408668771386147,0.011979836970567703
1772526375394653400,3.0136533203125,0.045193590223789215,-0.029087316244840622,0.0154202776029706
1772526375404635600,3.0236357421875,0.039406806230545044,-0.03400591015815735,0.023252634331583977
1772526375414617600,3.03361767578125,0.033228799700737,-0.029047148302197456,0.01920543983578682
1772526375424600600,3.0436005859375,0.027477970346808434,-0.02028348483145237,0.010210614651441574
1772526375434582500,3.05358251953125,0.020509380847215652,0.009699479676783085,0.003935553133487701
1772526375444564500,3.063564453125,0.017733832821249962,0.03775668144226074,-0.005958888679742813
1772526375454546400,3.07354638671875,0.01933862268924713,0.06091205030679703,-0.017805619165301323
1772526375464529400,3.083529296875,0.015758801251649857,0.06933669745922089,-0.022855238988995552
1772526375474511600,3.09351171875,0.017544394358992577,0.057341668754816055,-0.03365780785679817
1772526375484493600,3.10349365234375,0.01641601324081421,0.03836638107895851,-0.029872125014662743
1772526375494475500,3.1134755859375,0.020203638821840286,0.021974964067339897,-0.016560643911361694
1772526375504458800,3.123458740234375,0.024779748171567917,0.010622173547744751,0.0020508584566414356
1772526375514440400,3.1334404296875,0.022640440613031387,0.008341534063220024,0.020368589088320732
1772526375524422700,3.143422607421875,0.026235440745949745,0.016054848209023476,0.03900432586669922
1772526375534404600,3.153404541015625,0.02749413624405861,0.020907510071992874,0.045409154146909714
1772526375544387600,3.1633876953125,0.031181279569864273,0.028979018330574036,0.04384081810712814
1772526375554369500,3.17336962890625,0.02895432524383068,0.02932903543114662,0.03722264617681503
1772526375564351500,3.1833515625,0.02739344723522663,0.018534712493419647,0.02456650510430336
1772526375574333700,3.193333740234375,0.029118448495864868,0.012804935686290264,0.01188209280371666
1772526375584316400,3.20331640625,0.03272117301821709,0.015733079984784126,0.010838400572538376
1772526375594298600,3.213298583984375,0.039215926080942154,0.02885771356523037,0.014663905836641788
1772526375604280600,3.223280517578125,0.043904151767492294,0.03601974993944168,0.022303715348243713
1772526375614262500,3.233262451171875,0.056114424020051956,0.034364182502031326,0.031964875757694244
1772526375624245800,3.243245849609375,0.06515372544527054,0.040499307215213776,0.04187077283859253
1772526375634227500,3.2532275390625,0.07366539537906647,0.03813517093658447,0.047696590423583984
1772526375644209700,3.263209716796875,0.07670033723115921,0.029072435572743416,0.05087108165025711
1772526375654191600,3.273191650390625,0.07550814747810364,0.016984492540359497,0.0486125648021698
1772526375664174600,3.283174560546875,0.06920710951089859,-0.00018437299877405167,0.04097701609134674
1772526375674156500,3.293156494140625,0.06883087754249573,-0.0072923386469483376,0.03510284051299095
1772526375684138500,3.303138427734375,0.06343158334493637,-0.0011657364666461945,0.02306322008371353
1772526375694121500,3.31312158203125,0.05722041055560112,-0.006616770289838314,0.01217525266110897
1772526375704103400,3.323103515625,0.05402115732431412,-0.006054044701159,-0.002936321310698986
1772526375714085600,3.333085693359375,0.05567123740911484,-0.0019475468434393406,-0.014891492202877998
1772526375724067300,3.3430673828125,0.04962959140539169,0.004417674615979195,-0.026793958619236946
1772526375734050600,3.353050537109375,0.04617471247911453,0.01669948175549507,-0.03426289185881615
1772526375744032500,3.363032470703125,0.04592890292406082,0.02613639272749424,-0.035453323274850845
1772526375754014500,3.373014404296875,0.04060865938663483,0.022289033979177475,-0.04138273745775223
1772526375763996700,3.38299658203125,0.035424284636974335,0.013724041171371937,-0.03970148414373398
1772526375773979600,3.392979736328125,0.03842969611287117,-0.006841620430350304,-0.03233926743268967
1772526375783961600,3.402961669921875,0.03824007883667946,-0.020879676565527916,-0.015593043528497219
1772526375793943600,3.412943603515625,0.03462650999426842,-0.021467413753271103,-0.00028391042724251747
1772526375803925500,3.422925537109375,0.03537645563483238,-0.009481322951614857,0.01975957304239273
1772526375813908500,3.432908447265625,0.03431837633252144,0.009714960120618343,0.033907629549503326
1772526375823890400,3.442890380859375,0.03004853054881096,0.026739483699202538,0.037020597606897354
1772526375833872600,3.45287255859375,0.028205880895256996,0.04713999852538109,0.04204441234469414
1772526375843854600,3.4628544921875,0.023017777130007744,0.056922055780887604,0.03991148620843887
1772526375853837600,3.472837646484375,0.01841459982097149,0.04660842567682266,0.03203587606549263
1772526375863819500,3.482819580078125,0.015902971848845482,0.025057591497898102,0.031582072377204895
1772526375873801500,3.492801513671875,0.0163589920848608,0.004635835997760296,0.031921274960041046
1772526375883783700,3.50278369140625,0.01658030040562153,-0.013832120224833488,0.03843003883957863
1772526375893766700,3.5127666015625,0.010071090422570705,-0.036093324422836304,0.043015651404857635
1772526375903748600,3.52274853515625,0.005001762881875038,-0.05844283849000931,0.04913559556007385
1772526375913730600,3.53273046875,-0.0057535977102816105,-0.07481184601783752,0.04782365262508392
1772526375923712500,3.54271240234375,-0.009144334122538567,-0.08101967722177505,0.04900237172842026
1772526375933695500,3.552695556640625,-0.01506098173558712,-0.08370494842529297,0.045214977115392685
1772526375943677700,3.562677734375,-0.015113979578018188,-0.0885164812207222,0.0403701551258564
1772526375953659600,3.57265966796875,-0.011070137843489647,-0.08147615194320679,0.03027905896306038
1772526375963641600,3.5826416015625,-0.007959299720823765,-0.0686570256948471,0.017961405217647552
1772526375973624600,3.59262451171875,0.0009630788117647171,-0.059693727642297745,0.004109532572329044
1772526375983606500,3.6026064453125,0.0022818762809038162,-0.05305419862270355,-0.010831333696842194
1772526375993588500,3.61258837890625,0.010033831000328064,-0.033211544156074524,-0.020608393475413322
1772526376003570400,3.6225703125,0.013692215085029602,-0.018705841153860092,-0.024484889581799507
1772526376013553700,3.6325537109375,0.018480446189641953,-0.0008044010028243065,-0.023806113749742508
1772526376023535600,3.64253564453125,0.015670545399188995,0.010678084567189217,-0.017231568694114685
1772526376033517600,3.652517578125,0.0187179334461689,0.020921438932418823,-0.011443160474300385
1772526376043499500,3.66249951171875,0.022768868133425713,0.018823664635419846,0.0011935397051274776
1772526376053482500,3.672482421875,0.032016634941101074,0.011214597150683403,0.005765666253864765
1772526376063464700,3.682464599609375,0.03739435598254204,0.008127461187541485,0.011199314147233963
1772526376073446400,3.6924462890625,0.048050325363874435,0.007954786531627178,0.008675913326442242
1772526376083429600,3.7024296875,0.046126194298267365,0.013970867730677128,-0.00042091216892004013
1772526376093411300,3.712411376953125,0.04122625291347504,0.026280894875526428,-0.013252316042780876
1772526376103393500,3.7223935546875,0.027543198317289352,0.02714535780251026,-0.037429820746183395
1772526376113375700,3.732375732421875,0.013478389009833336,0.013209318742156029,-0.059668101370334625
1772526376123358500,3.7423583984375,0.003895802889019251,-0.004373403266072273,-0.08298008143901825
1772526376133340400,3.75234033203125,-0.010849352926015854,-0.01909630559384823,-0.09864911437034607
1772526376143322000,3.762322021484375,-0.01440627034753561,-0.030030714347958565,-0.10642021894454956
1772526376153304300,3.77230419921875,-0.016456663608551025,-0.028688453137874603,-0.10742630809545517
1772526376163287300,3.782287353515625,-0.01829078234732151,-0.02861761301755905,-0.10274101048707962
1772526376173269200,3.792269287109375,-0.01637089252471924,-0.024563338607549667,-0.09549058973789215
1772526376183251500,3.80225146484375,-0.01926521770656109,-0.017977872863411903,-0.09206710010766983
1772526376193233200,3.812233154296875,-0.022466788068413734,-0.02951696887612343,-0.0967002660036087
1772526376203216400,3.82221630859375,-0.019627058878540993,-0.05397597327828407,-0.10157624632120132
1772526376213198300,3.8321982421875,-0.014778917655348778,-0.08051735162734985,-0.10697996616363525
1772526376223180300,3.84218017578125,-0.0072757285088300705,-0.08721093833446503,-0.10835469514131546
1772526376233162500,3.85216259765625,0.001387499738484621,-0.10566643625497818,-0.10149164497852325
1772526376243145200,3.862145263671875,0.00222346605733037,-0.08041594177484512,-0.0728975459933281
1772526376253127400,3.87212744140625,-0.0036588271614164114,-0.05045991763472557,-0.03538783639669418
1772526376263109000,3.882109130859375,-0.011296506971120834,-0.036288704723119736,-0.00022292416542768478
1772526376273091300,3.89209130859375,-0.013218868523836136,-0.019104067236185074,0.02786846272647381
1772526376283074300,3.90207421875,-0.010890999808907509,-0.006627156399190426,0.04597289860248566
1772526376293056300,3.91205615234375,-0.0011743232607841492,-0.0026516690850257874,0.05479482561349869
1772526376303038500,3.92203857421875,0.010235458612442017,0.0010069813579320908,0.053930364549160004
1772526376313020200,3.932020263671875,0.012699643149971962,0.009314249269664288,0.05213960260152817
1772526376323003400,3.94200341796875,0.019103480502963066,0.008707048371434212,0.045446813106536865
1772526376332985300,3.9519853515625,0.026774892583489418,0.012715695425868034,0.037210285663604736
1772526376342967300,3.96196728515625,0.029039641842246056,0.00979607179760933,0.03247092664241791
1772526376352949500,3.971949462890625,0.029942793771624565,0.013496018946170807,0.02743936888873577
1772526376362932200,3.98193212890625,0.034393731504678726,0.020874574780464172,0.023412935435771942
1772526376372914400,3.99191455078125,0.04636728763580322,0.02337082102894783,0.020625993609428406
1772526376382896400,4.001896484375,0.05891743674874306,0.020079419016838074,0.01944861002266407
1772526376392878300,4.01187841796875,0.06398376822471619,0.017072046175599098,0.02054264023900032
1772526376402861300,4.021861328125,0.06292250007390976,0.00844580214470625,0.022860653698444366
1772526376412843300,4.03184326171875,0.05687818303704262,0.002582756569609046,0.015340181067585945
1772526376422825200,4.0418251953125,0.0487065389752388,-0.0035377200692892075,0.0057426802814006805
1772526376432807200,4.05180712890625,0.036890529096126556,-0.009925039485096931,-0.007103763986378908
1772526376442790100,4.0617900390625,0.02933221310377121,-0.012549317441880703,-0.014156080782413483
1772526376452772400,4.0717724609375,0.02643023617565632,-0.0049334680661559105,-0.015780117362737656
1772526376462754300,4.08175439453125,0.022384095937013626,0.014530245214700699,-0.01665549911558628
1772526376472736300,4.091736328125,0.023060038685798645,0.027352066710591316,-0.015824411064386368
1772526376482719500,4.101719482421875,0.022114349529147148,0.028890840709209442,-0.020184271037578583
1772526376492701200,4.111701171875,0.02471347339451313,0.02862800844013691,-0.023309841752052307
1772526376502683400,4.121683349609375,0.024605615064501762,0.024748848751187325,-0.033587511628866196
1772526376512665300,4.131665283203125,0.020026251673698425,0.020389661192893982,-0.041338641196489334
1772526376522648300,4.1416484375,0.014041862450540066,0.015770673751831055,-0.041280586272478104
1772526376532630300,4.15163037109375,0.01271593663841486,0.015144209377467632,-0.039575908333063126
1772526376542612200,4.1616123046875,0.01367493998259306,0.024768607690930367,-0.034575026482343674
1772526376552595500,4.171595458984375,0.012438198551535606,0.03365907073020935,-0.02513527125120163
1772526376562577200,4.1815771484375,0.018095020204782486,0.048978906124830246,-0.019089361652731895
1772526376572559400,4.191559326171875,0.023705650120973587,0.05551517382264137,-0.01719808392226696
1772526376582541300,4.201541259765625,0.02655123919248581,0.046502236276865005,-0.020955272018909454
1772526376592524300,4.211524169921875,0.029662009328603745,0.04110271856188774,-0.019201552495360374
1772526376602506500,4.221506591796875,0.031460441648960114,0.03532126173377037,-0.014554334804415703
1772526376612488200,4.23148828125,0.03546078875660896,0.03388143330812454,-0.0053994921036064625
1772526376622470400,4.241470458984375,0.040116261690855026,0.03692835941910744,0.010500645264983177
1772526376632453000,4.251453125,0.04042705148458481,0.03779255226254463,0.020425980910658836
1772526376642435300,4.261435302734375,0.041617486625909805,0.043646980077028275,0.03013826161623001
1772526376652417500,4.27141748046875,0.042683910578489304,0.04221094772219658,0.03832525387406349
1772526376662399200,4.281399169921875,0.040942735970020294,0.026129981502890587,0.030861746519804
1772526376672382500,4.291382568359375,0.03523934260010719,-0.0008383230306208134,0.018440017476677895
1772526376682364200,4.3013642578125,0.03023846261203289,-0.021720968186855316,0.003081034868955612
1772526376692346400,4.311346435546875,0.02166152559220791,-0.03868729621171951,-0.01640889048576355
1772526376702328300,4.321328369140625,0.018018053844571114,-0.04059705138206482,-0.03559856489300728
1772526376712311300,4.331311279296875,0.01225331425666809,-0.03986221179366112,-0.052959952503442764
1772526376722293500,4.34129345703125,0.0024025472812354565,-0.02893899381160736,-0.06597988307476044
1772526376732275200,4.351275146484375,-0.0013834373094141483,-0.014928697608411312,-0.07767453789710999
1772526376742257400,4.36125732421875,-0.003940604627132416,-0.006370097398757935,-0.0799265056848526
1772526376752240400,4.371240478515625,-0.000844874419271946,-0.009826069697737694,-0.08045011758804321
1772526376762222300,4.381222412109375,-0.0004382096230983734,-0.022041190415620804,-0.07128724455833435
1772526376772204300,4.391204345703125,-0.000011458992958068848,-0.030542392283678055,-0.06403641402721405
1772526376782186200,4.401186279296875,0.0031297397799789906,-0.03975479677319527,-0.052571237087249756
1772526376792169200,4.411169189453125,0.002271469682455063,-0.04195886850357056,-0.040548425167798996
1772526376802151200,4.421151123046875,-0.000005532987415790558,-0.036834411323070526,-0.02343761920928955
1772526376812133400,4.43113330078125,0.001374450046569109,-0.03141377866268158,-0.0047440617345273495
1772526376822115300,4.441115234375,0.0017704623751342297,-0.026205167174339294,0.007890506647527218
1772526376832098300,4.451098388671875,0.011182861402630806,-0.01273153442889452,0.020118704065680504
1772526376842080300,4.461080322265625,0.021448548883199692,0.006666931323707104,0.029258139431476593
1772526376852062200,4.471062255859375,0.03026842325925827,0.024577368050813675,0.03201473876833916
1772526376862044400,4.48104443359375,0.04457385838031769,0.024447139352560043,0.02738962695002556
1772526376872027400,4.49102734375,0.05779988691210747,0.02796519547700882,0.014390272088348866
1772526376882009300,4.50100927734375,0.06070326641201973,0.02073737606406212,0.0027362792752683163
1772526376891991300,4.5109912109375,0.05448755621910095,0.01225476898252964,-0.00676255626603961
1772526376901973200,4.52097314453125,0.043077774345874786,0.0027693877927958965,-0.012509923428297043
1772526376911956200,4.530956298828125,0.046176694333553314,-0.000985173974186182,-0.014276161789894104
1772526376921938400,4.5409384765625,0.04773304611444473,-0.00044455239549279213,-0.00896129198372364
1772526376931920400,4.55092041015625,0.05875789001584053,0.00023551727645099163,-0.004987711552530527
1772526376941902300,4.56090234375,0.06275024265050888,-0.006941701751202345,-0.0052132816053926945
1772526376951885300,4.57088525390625,0.07113305479288101,-0.01364796981215477,-0.0019183708354830742
1772526376961867300,4.5808671875,0.06774764508008957,-0.016498083248734474,0.004790931008756161
1772526376971849200,4.59084912109375,0.06241028010845184,-0.01731175184249878,0.011288531124591827
1772526376981831400,4.60083154296875,0.05486128479242325,-0.01960553228855133,0.012200132012367249
1772526376991814400,4.610814453125,0.04505721107125282,-0.0212490726262331,0.011795779690146446
1772526377001796400,4.62079638671875,0.03890823945403099,-0.0220181941986084,0.00712219811975956
1772526377011778300,4.6307783203125,0.0354573018848896,-0.02660825103521347,0.0031189615838229656
1772526377021760300,4.64076025390625,0.028681155294179916,-0.022307777777314186,-0.005733652040362358
1772526377031743200,4.6507431640625,0.0258795078843832,-0.01806914061307907,-0.011678612791001797
1772526377041725400,4.660725341796875,0.026554619893431664,-0.015252582728862762,-0.02478056773543358
1772526377051707400,4.670707275390625,0.029134320095181465,-0.017659861594438553,-0.03140744939446449
1772526377061689300,4.680689453125,0.028531914576888084,-0.018953358754515648,-0.033642105758190155
1772526377071672300,4.69067236328125,0.025778479874134064,-0.015499669127166271,-0.027218058705329895
1772526377081654300,4.700654296875,0.020598098635673523,-0.01779664307832718,-0.016582459211349487
1772526377091636500,4.710636474609375,0.014874217100441456,-0.01600518822669983,-0.004345364402979612
1772526377101618200,4.7206181640625,0.005368330515921116,-0.012412849813699722,0.01262669451534748
1772526377111601400,4.730601318359375,0.0019284849986433983,-0.008930581621825695,0.02619829773902893
1772526377121583000,4.7405830078125,-0.007576337084174156,-0.008931380696594715,0.039937544614076614
1772526377131564800,4.750564697265625,-0.017503397539258003,-0.010905340313911438,0.05235446244478226
1772526377141546800,4.760546630859375,-0.03342217579483986,-0.013647064566612244,0.05506476014852524
1772526377151529700,4.77052978515625,-0.03816120699048042,-0.011794941499829292,0.05692843347787857
1772526377161512000,4.780511962890625,-0.03682510182261467,-0.004880842752754688,0.061118919402360916
1772526377171494000,4.790493896484375,-0.040754299610853195,0.003679140703752637,0.05716829374432564
1772526377181475800,4.800475830078125,-0.04041954129934311,0.011124540120363235,0.058164313435554504
1772526377191458800,4.810458740234375,-0.03720599412918091,0.016795048490166664,0.049063313752412796
1772526377201440800,4.820440673828125,-0.04072163254022598,0.014391278848052025,0.036173611879348755
1772526377211423000,4.830423095703125,-0.04814428463578224,0.008772104047238827,0.01606287807226181
1772526377221404700,4.84040478515625,-0.05703551694750786,-0.0036733802407979965,0.000862885732203722
1772526377231388000,4.850387939453125,-0.0666322410106659,-0.01822812668979168,-0.012831268832087517
1772526377241369600,4.86036962890625,-0.07731364667415619,-0.01985025778412819,-0.013963112607598305
1772526377251351800,4.870351806640625,-0.07537875324487686,-0.011285115033388138,-0.004087201785296202
1772526377261333800,4.880333740234375,-0.07128947228193283,-0.0034618135541677475,0.01007974985986948
1772526377271316700,4.890316650390625,-0.06263111531734467,0.00919732078909874,0.02822350524365902
1772526377281299000,4.900298828125,-0.053062114864587784,0.022028964012861252,0.036689694970846176
1772526377291280600,4.91028076171875,-0.045806460082530975,0.02624833956360817,0.04264882579445839
1772526377301262800,4.920262939453125,-0.038831375539302826,0.02649388276040554,0.04168396070599556
1772526377311245800,4.930245849609375,-0.03533091023564339,0.01963682472705841,0.037236470729112625
1772526377321227800,4.940227783203125,-0.036994319409132004,0.011966919526457787,0.027528982609510422
1772526377331210000,4.9502099609375,-0.03976694867014885,0.0056495401076972485,0.020025284960865974
1772526377341191700,4.960191650390625,-0.04096563905477524,0.0006033824756741524,0.015147438272833824
1772526377351175000,4.9701748046875,-0.03284967690706253,-0.006314425729215145,0.010765541344881058
1772526377361156600,4.980156494140625,-0.026677004992961884,-0.003894943743944168,0.004734014626592398
1772526377371138800,4.990138916015625,-0.01506902277469635,0.0012429908383637667,-0.000010681338608264923
1772526377381121000,5.00012109375,-0.0047956123016774654,0.004485921934247017,-0.011227648705244064
1772526377391103700,5.010103759765625,0.006829740945249796,0.0066049909219145775,-0.014243867248296738
1772526377401086000,5.0200859375,0.017499694600701332,0.016168935224413872,-0.0132979117333889
1772526377411067600,5.030067626953125,0.02941146120429039,0.011065846309065819,-0.005038858857005835
1772526377421049900,5.0400498046875,0.038466740399599075,0.0001234507653862238,0.006173581816256046
1772526377431032800,5.05003271484375,0.04158196598291397,-0.0028148333076387644,0.01600499078631401
1772526377441014800,5.060014892578125,0.042817674577236176,0.0008171857334673405,0.02526000887155533
1772526377450997000,5.0699970703125,0.039470672607421875,0.0000072284601628780365,0.02138589322566986
1772526377460978700,5.079978759765625,0.03593426197767258,0.010543226264417171,0.019022870808839798
1772526377470962000,5.0899619140625,0.03415936231613159,0.011891314759850502,0.006321609020233154
1772526377480943900,5.09994384765625,0.02609371393918991,0.018514331430196762,-0.004187757149338722
1772526377490925800,5.10992578125,0.02088848501443863,0.021988896653056145,-0.013675478287041187
1772526377500907800,5.11990771484375,0.020200857892632484,0.014096617698669434,-0.026025619357824326
1772526377510890800,5.129890869140625,0.018767770379781723,0.007789307273924351,-0.030904682353138924
1772526377520872700,5.139872802734375,0.013864357024431229,0.0025759031996130943,-0.03094729222357273
1772526377530854700,5.149854736328125,0.00499348621815443,-0.003914279397577047,-0.026757780462503433
1772526377540836900,5.1598369140625,-0.007844015024602413,-0.0016548535786569118,-0.016493424773216248
1772526377550819800,5.16981982421875,-0.012437880970537663,0.005952892825007439,-0.008319469168782234
1772526377560801800,5.1798017578125,-0.012952137738466263,-0.0001249730121344328,-0.005492257419973612
1772526377570783700,5.18978369140625,-0.013236281462013721,0.00017478247173130512,-0.0021827882155776024
1772526377580765700,5.199765625,-0.018023047596216202,-0.007781944237649441,-0.0010094000026583672
1772526377590748700,5.209748779296875,-0.019193507730960846,-0.016195669770240784,-0.0027974462136626244
1772526377600731000,5.21973095703125,-0.023167207837104797,-0.01533573493361473,-0.003970835357904434
1772526377610712800,5.229712890625,-0.02203459106385708,-0.013407591730356216,-0.007601718418300152
1772526377620694800,5.23969482421875,-0.02433476410806179,-0.005305456928908825,-0.008707994595170021
1772526377630677800,5.249677734375,-0.025131208822131157,0.0017477567307651043,-0.014164155349135399
1772526377640659700,5.25965966796875,-0.022105591371655464,0.014360221102833748,-0.0116978008300066
1772526377650642000,5.269641845703125,-0.020664667710661888,0.025761863216757774,-0.008554315194487572
1772526377660624000,5.279623779296875,-0.019506458193063736,0.030454086139798164,-0.008069620467722416
1772526377670606800,5.28960693359375,-0.01640181615948677,0.03127886354923248,-0.009154018945991993
1772526377680588800,5.2995888671875,-0.014966373331844807,0.030732646584510803,-0.0038130497559905052
1772526377690570800,5.30957080078125,-0.017154498025774956,0.017530813813209534,-0.002423104364424944
1772526377700552700,5.319552734375,-0.015549677424132824,0.00323096988722682,-0.0010936534963548183
1772526377710535700,5.32953564453125,-0.01208181120455265,-0.00934878084808588,-0.000025068409740924835
1772526377720518000,5.339517822265625,-0.0060457573272287846,-0.012243104167282581,0.004242380615323782
1772526377730499800,5.349499755859375,-0.0016630692407488823,-0.015694621950387955,0.005482671316713095
1772526377740481800,5.359481689453125,0.0077445474453270435,-0.008981060236692429,0.003490626811981201
1772526377750465000,5.369465087890625,0.011027753353118896,-0.0011477300431579351,-0.0037310803309082985
1772526377760446700,5.37944677734375,0.01749550737440586,-0.009134550578892231,-0.012660659849643707
1772526377770429000,5.389428955078125,0.018968133255839348,-0.017254047095775604,-0.02818968892097473
1772526377780411000,5.399410888671875,0.016195515170693398,-0.030975185334682465,-0.0419747419655323
1772526377790393900,5.409393798828125,0.01454827282577753,-0.03946593031287193,-0.05236181616783142
1772526377800375800,5.419375732421875,0.015913676470518112,-0.04395708441734314,-0.05877497047185898
1772526377810357800,5.429357666015625,0.01772952638566494,-0.044412385672330856,-0.05534469708800316
1772526377820340000,5.439340087890625,0.02272295393049717,-0.03421567380428314,-0.046669986099004745
1772526377830322700,5.44932275390625,0.02422693744301796,-0.01966789737343788,-0.036351412534713745
1772526377840305000,5.459304931640625,0.025172360241413116,-0.013145018368959427,-0.02794940583407879
1772526377850286800,5.469286865234375,0.029902808368206024,-0.012319955974817276,-0.011482363566756248
1772526377860268800,5.479268798828125,0.026856418699026108,-0.006897227372974157,0.0020773885771632195
1772526377870251800,5.489251708984375,0.02596890553832054,-0.006300743669271469,0.012401759624481201
1772526377880233700,5.499233642578125,0.025013364851474762,-0.007135378196835518,0.01762554980814457
1772526377890216000,5.5092158203125,0.030751923099160194,-0.009151594713330269,0.021545514464378357
1772526377900197600,5.51919775390625,0.03175939619541168,-0.012005703523755074,0.02084776759147644
1772526377910179800,5.529179931640625,0.030132029205560684,-0.023293618112802505,0.016391947865486145
1772526377920162800,5.539162841796875,0.030309662222862244,-0.022156182676553726,0.022929741069674492
1772526377930144800,5.549144775390625,0.020340729504823685,-0.017735758796334267,0.024157656356692314
1772526377940127000,5.559126953125,0.011189310811460018,-0.013271769508719444,0.01878792606294155
1772526377950108700,5.569108642578125,0.004245737101882696,-0.0077010756358504295,0.010523786768317223
1772526377960092000,5.579091796875,-0.0018028337508440018,0.004885556176304817,-0.0010929219424724579
1772526377970073600,5.589073486328125,-0.008491209708154202,0.01460566371679306,-0.022868361324071884
1772526377980055800,5.599055908203125,-0.018950507044792175,0.02554379776120186,-0.05371708795428276
1772526377990038000,5.6090380859375,-0.02940293401479721,0.04277066886425018,-0.09547547996044159
1772526378000020700,5.619020751953125,-0.03233587369322777,0.05350267514586449,-0.13420796394348145
1772526378010003000,5.6290029296875,-0.04299420863389969,0.06973624229431152,-0.16366799175739288
1772526378019984600,5.638984619140625,-0.05207052826881409,0.08342781662940979,-0.18518021702766418
1772526378029966800,5.648966796875,-0.06703599542379379,0.08367384225130081,-0.19386917352676392
1772526378039949800,5.65894970703125,-0.07332531362771988,0.08398357033729553,-0.1979086697101593
1772526378049931800,5.668931884765625,-0.07380930334329605,0.10539788752794266,-0.2032298445701599
1772526378059914000,5.6789140625,-0.07492010295391083,0.14643827080726624,-0.22744251787662506
1772526378069895700,5.688895751953125,-0.06899012625217438,0.1600445806980133,-0.2584049105644226
1772526378079879000,5.69887890625,-0.044305283576250076,0.2138335108757019,-0.2807038128376007
1772526378089860900,5.70886083984375,-0.03213852643966675,0.2690480649471283,-0.29142501950263977
1772526378099842800,5.7188427734375,-0.02257751300930977,0.2708747088909149,-0.28614291548728943
1772526378109824800,5.72882470703125,-0.022297896444797516,0.23888841271400452,-0.2586105763912201
1772526378119807700,5.738807861328125,-0.02068988047540188,0.1882856786251068,-0.21413365006446838
1772526378129790000,5.7487900390625,-0.016658110544085503,0.1246974989771843,-0.15770502388477325
1772526378139772400,5.7587724609375,-0.010962674394249916,0.0621720626950264,-0.0911257416009903
1772526378149754400,5.76875439453125,0.0017786002717912197,-0.002372199669480324,-0.024134637787938118
1772526378159737300,5.7787373046875,0.013491448946297169,-0.056610673666000366,0.03639022633433342
1772526378169719300,5.78871923828125,0.02356038987636566,-0.08867470175027847,0.07972118258476257
1772526378179701200,5.798701171875,0.028641432523727417,-0.10254044830799103,0.10307151079177856
1772526378189683200,5.80868310546875,0.030524328351020813,-0.09602034837007523,0.1055835485458374
1772526378199666200,5.818666259765625,0.03319521248340607,-0.06844677776098251,0.09831418842077255
1772526378209648400,5.8286484375,0.03159331530332565,-0.03343643248081207,0.07752717286348343
1772526378219630300,5.83863037109375,0.02687525562942028,0.003210263792425394,0.06192132085561752
1772526378229612300,5.8486123046875,0.026137448847293854,0.030324017629027367,0.04339386895298958
1772526378239595500,5.858595458984375,0.02341596409678459,0.04898691922426224,0.021239297464489937
1772526378249577200,5.8685771484375,0.02722386084496975,0.05401613190770149,0.006079906597733498
1772526378259559400,5.878559326171875,0.016252433881163597,0.0488264299929142,0.0028944998048245907
1772526378269541400,5.888541259765625,0.01696927100419998,0.032168999314308167,0.009715738706290722
1772526378279524400,5.8985244140625,0.01791948825120926,0.014751659706234932,0.021742042154073715
1772526378289506300,5.90850634765625,0.013172402046620846,-0.005563732236623764,0.035948142409324646
1772526378299488300,5.91848828125,0.0073581887409091,-0.028666121885180473,0.052071984857320786
1772526378309470500,5.928470458984375,-0.002545231021940708,-0.051773782819509506,0.061492595821619034
1772526378319453200,5.938453125,-0.014006411656737328,-0.074821837246418,0.07198092341423035
1772526378329435400,5.948435302734375,-0.025070875883102417,-0.0909091979265213,0.07275708019733429
1772526378339417300,5.958417236328125,-0.03669371083378792,-0.10370249301195145,0.06929390877485275
1772526378349399300,5.9683994140625,-0.04148399457335472,-0.10784249752759933,0.05667238309979439
1772526378359381200,5.97838134765625,-0.041498374193906784,-0.10382458567619324,0.04408921301364899
1772526378369364200,5.9883642578125,-0.03909436613321304,-0.09394797682762146,0.034939732402563095
1772526378379346400,5.998346435546875,-0.03504103422164917,-0.0760968029499054,0.01859111711382866
1772526378389328100,6.008328125,-0.0304415300488472,-0.049856919795274734,0.0027212980203330517
1772526378399311400,6.018311279296875,-0.026288066059350967,-0.029635537415742874,-0.011253373697400093
1772526378409293300,6.028293212890625,-0.024129997938871384,-0.026459533721208572,-0.01870807074010372
1772526378419275300,6.038275146484375,-0.02225353568792343,-0.023838983848690987,-0.02115578204393387
1772526378429257500,6.048257568359375,-0.0278396587818861,-0.0283780749887228,-0.01724112778902054
1772526378439239200,6.0582392578125,-0.0317465141415596,-0.030009524896740913,-0.013375017791986465
1772526378449222400,6.068222412109375,-0.02857108600437641,-0.024665094912052155,-0.0023687779903411865
1772526378459204000,6.0782041015625,-0.0198857169598341,-0.024866163730621338,0.006505406927317381
1772526378469186300,6.088186279296875,-0.012591145932674408,-0.03204653039574623,0.017318472266197205
1772526378479168500,6.09816845703125,-0.007455506362020969,-0.031696055084466934,0.025621145963668823
1772526378489151200,6.108151123046875,-0.0069022392854094505,-0.032034218311309814,0.03306766599416733
1772526378499133400,6.118133544921875,-0.008158186450600624,-0.015534874051809311,0.03956577926874161
1772526378509115100,6.128115234375,-0.010232117958366871,-0.00120845390483737,0.04462732747197151
1772526378519097300,6.138097412109375,-0.011085927486419678,0.015134833753108978,0.048499561846256256
1772526378529080300,6.148080322265625,-0.01296700444072485,0.02497638761997223,0.04657178372144699
1772526378539062300,6.158062255859375,-0.014733212999999523,0.03947063907980919,0.04036422073841095
1772526378549044500,6.16804443359375,-0.015447616577148438,0.040883712470531464,0.030277037993073463
1772526378559026200,6.178026123046875,-0.01593763753771782,0.039637356996536255,0.02057780511677265
1772526378569009400,6.188009521484375,-0.01909578964114189,0.0357070118188858,0.014955507591366768
1772526378578991400,6.197991455078125,-0.02017756551504135,0.03467849642038345,0.014826610684394836
1772526378588973300,6.207973388671875,-0.0253658015280962,0.0401059053838253,0.01624816656112671
1772526378598955500,6.21795556640625,-0.02987666428089142,0.033208586275577545,0.019580846652388573
1772526378608938200,6.227938232421875,-0.027007021009922028,0.03536191210150719,0.018665965646505356
1772526378618920400,6.23792041015625,-0.028840074315667152,0.027097854763269424,0.013734324835240841
1772526378628902100,6.247902099609375,-0.028536438941955566,0.010377580299973488,0.00029483577236533165
1772526378638884400,6.25788427734375,-0.027876773849129677,-0.0013334043323993683,-0.010912545025348663
1772526378648867300,6.267867431640625,-0.02393316477537155,-0.011667001992464066,-0.02576312981545925
1772526378658849300,6.277849365234375,-0.020475583150982857,-0.006951608695089817,-0.03652309626340866
1772526378668831200,6.287831298828125,-0.017524883151054382,-0.003968177828937769,-0.04812988266348839
1772526378678813200,6.297813232421875,-0.015278506092727184,-0.0014261906035244465,-0.05826800689101219
1772526378688796200,6.307796142578125,-0.011368632316589355,-0.005002123303711414,-0.07161718606948853
1772526378698778400,6.3177783203125,-0.002268078038468957,-0.006596291437745094,-0.07206939160823822
1772526378708760300,6.32776025390625,0.0035578077659010887,-0.0023788672406226397,-0.0687892958521843
1772526378718742300,6.3377421875,0.009719563648104668,0.0014859121292829514,-0.05896756052970886
1772526378728724200,6.34772412109375,0.015252330340445042,0.012843504548072815,-0.04412751644849777
1772526378738707200,6.357707275390625,0.02002071961760521,0.012600358575582504,-0.03762301430106163
1772526378748689400,6.367689453125,0.027030933648347855,0.009069807827472687,-0.0348023846745491
1772526378758671400,6.37767138671875,0.032270971685647964,0.012748432345688343,-0.027129551395773888
1772526378768653300,6.3876533203125,0.032534245401620865,0.007536988705396652,-0.02708251401782036
1772526378778636300,6.39763623046875,0.040117062628269196,0.009592415764927864,-0.020739395171403885
1772526378788618200,6.4076181640625,0.04828143119812012,0.012370998971164227,-0.010704521089792252
1772526378798600200,6.41760009765625,0.04523477330803871,0.016283981502056122,-0.006214698310941458
1772526378808582400,6.42758251953125,0.04522477835416794,0.024628527462482452,-0.00642423564568162
1772526378818565400,6.4375654296875,0.04333766549825668,0.023032495751976967,-0.009210435673594475
1772526378828547300,6.44754736328125,0.039390817284584045,0.021514588966965675,-0.016365153715014458
1772526378838529300,6.457529296875,0.033981673419475555,0.01673527993261814,-0.019766276702284813
1772526378848511200,6.46751123046875,0.02833232656121254,0.01236786413937807,-0.024919278919696808
1772526378858494200,6.477494140625,0.02568461000919342,0.01157690491527319,-0.028581921011209488
1772526378868476400,6.487476318359375,0.02269796095788479,0.014281771145761013,-0.03162972629070282
1772526378878458400,6.497458251953125,0.01944544166326523,0.011480658315122128,-0.03134237229824066
1772526378888440300,6.5074404296875,0.015805890783667564,0.011902453377842903,-0.024133145809173584
1772526378898423300,6.51742333984375,0.007888578809797764,0.006054417230188847,-0.01676284708082676
1772526378908405200,6.5274052734375,0.005694322753697634,0.0011426962446421385,-0.013472992926836014
1772526378918387500,6.537387451171875,0.0019997195340692997,0.003096391214057803,-0.0010115285404026508
1772526378928369400,6.547369384765625,0.0007414529100060463,-0.003172104014083743,0.006924373097717762
1772526378938352400,6.557352294921875,-0.001297729555517435,-0.0025148361455649137,0.01389226783066988
1772526378948334300,6.567334228515625,-0.0017681363970041275,-0.001343259122222662,0.016229556873440742
1772526378958316300,6.57731640625,-0.0026632247027009726,0.0007933950982987881,0.02234204299747944
1772526378968298200,6.58729833984375,-0.0001302044838666916,0.01364490482956171,0.02587863989174366
1772526378978281200,6.59728125,-0.0005914643406867981,0.02408715896308422,0.03322683274745941
1772526378988263400,6.607263427734375,-0.0004791663959622383,0.032199788838624954,0.038689590990543365
1772526378998245000,6.6172451171875,-0.004364718217402697,0.03369062393903732,0.03673989325761795
1772526379008227300,6.627227294921875,0.0007796282880008221,0.031110448762774467,0.03348078578710556
1772526379018209300,6.637209228515625,0.0019271844066679478,0.015069963410496712,0.02534482628107071
1772526379028192300,6.647192138671875,-0.005200586281716824,-0.009217159822583199,0.018952524289488792
1772526379038174500,6.657174560546875,-0.0025054675061255693,-0.026587361469864845,0.013533256947994232
1772526379048156200,6.66715625,-0.005588184110820293,-0.034023817628622055,0.006736752577126026
1772526379058138400,6.677138427734375,-0.009505960159003735,-0.032876793295145035,-0.0014474079944193363
1772526379068121000,6.68712109375,-0.010888930410146713,-0.025368433445692062,-0.0036485441960394382
1772526379078103300,6.697103271484375,-0.009731254540383816,-0.01347395684570074,-0.002564637456089258
1772526379088085500,6.70708544921875,-0.0071908594109117985,-0.0037768015172332525,0.0011067809537053108
1772526379098067200,6.717067138671875,-0.0012144595384597778,0.005264364182949066,0.004193651489913464
1772526379108050400,6.727050537109375,0.0023867590352892876,0.003360417438670993,0.001736253034323454
1772526379118032100,6.7370322265625,0.010489426553249359,-0.010244607925415039,0.0030555827543139458
1772526379128014300,6.747014404296875,0.012615259736776352,-0.027380451560020447,-0.00658810418099165
1772526379137995500,6.75699560546875,0.008473776280879974,-0.03838649392127991,-0.015272140502929688
1772526379147978500,6.766978515625,0.004553481005132198,-0.042611077427864075,-0.01851940155029297
1772526379157960700,6.776960693359375,0.0006000190041959286,-0.04162171483039856,-0.025189820677042007
1772526379167942400,6.7869423828125,0.0022622006945312023,-0.037949420511722565,-0.02204396203160286
1772526379177924600,6.796924560546875,0.00429472466930747,-0.025749212130904198,-0.02126605249941349
1772526379187906600,6.806906494140625,0.005640726070851088,-0.014498003758490086,-0.01927439495921135
1772526379197889500,6.8168896484375,0.013173744082450867,-0.010929633863270283,-0.0179622583091259
1772526379207871700,6.826871826171875,0.018037546426057816,-0.01609829068183899,-0.01691381074488163
1772526379217853400,6.836853515625,0.021528683602809906,-0.022684287279844284,-0.011361386626958847
1772526379227835600,6.846835693359375,0.020585039630532265,-0.022922534495592117,-0.008896546438336372
1772526379237818400,6.856818359375,0.01755569502711296,-0.019709164276719093,-0.002493775449693203
1772526379247800600,6.866800537109375,0.013583194464445114,-0.014112324453890324,0.005850386340171099
1772526379257782500,6.876782470703125,0.009760759770870209,-0.008372412994503975,0.009894129820168018
1772526379267764500,6.886764404296875,0.007908516563475132,-0.005946445278823376,0.013144303113222122
1772526379277747700,6.896747802734375,-0.0005584708414971828,-0.000462463591247797,0.014858847483992577
1772526379287729400,6.9067294921875,-0.003722353372722864,0.00648787384852767,0.014065973460674286
1772526379297711600,6.916711669921875,-0.006697104312479496,0.015062187798321247,0.0108723109588027
1772526379307693600,6.926693603515625,-0.011037258431315422,0.015094411559402943,0.0072096651419997215
1772526379317676500,6.936676513671875,-0.012398665770888329,0.020318733528256416,0.008983330801129341
1772526379327658800,6.94665869140625,-0.014616647735238075,0.026247410103678703,0.012520140036940575
1772526379337640400,6.956640380859375,-0.010003520175814629,0.025853261351585388,0.01862037554383278
1772526379347622700,6.96662255859375,-0.0035488123539835215,0.024841846898198128,0.025884397327899933
1772526379357605400,6.97660546875,0.0007165065035223961,0.021091850474476814,0.03773413226008415
1772526379367587600,6.986587646484375,0.0006635240279138088,0.014647692441940308,0.04362154006958008
1772526379377569800,6.99656982421875,-0.0028680937830358744,0.004250179044902325,0.041977301239967346
1772526379387551500,7.006551513671875,-0.003183825872838497,-0.003812038339674473,0.03555164486169815
1772526379397533700,7.01653369140625,-0.003344148164615035,-0.013455878011882305,0.0200954582542181
1772526379407516400,7.026516357421875,-0.0013433871790766716,-0.01713848114013672,0.008297416381537914
1772526379417498600,7.03649853515625,-0.000653095543384552,-0.009461651556193829,-0.0027238093316555023
1772526379427480600,7.04648046875,0.00005869055166840553,0.007470946758985519,-0.006769102998077869
1772526379437462500,7.056462646484375,-0.0020811595022678375,0.012497130781412125,-0.004738708958029747
1772526379447445500,7.066445556640625,-0.0031389622017741203,-0.0005959782283753157,-0.0031384313479065895
1772526379457427500,7.076427490234375,-0.0027301667723804712,-0.027253687381744385,0.0009577763266861439
1772526379467409700,7.08640966796875,-0.0023940657265484333,-0.04315957799553871,0.0013582827523350716
1772526379477391400,7.096391357421875,0.003890994470566511,-0.04687308892607689,0.004981779493391514
1772526379487374600,7.10637451171875,0.006908883806318045,-0.03664287179708481,0.007653478998690844
1772526379497356500,7.1163564453125,0.010597627609968185,-0.03372271731495857,0.0036166594363749027
1772526379507338500,7.12633837890625,0.012093141674995422,-0.021130457520484924,-0.0004958747886121273
1772526379517320700,7.13632080078125,0.013129111379384995,-0.006513964384794235,-0.0009281053207814693
1772526379527303400,7.146303466796875,0.012216825038194656,0.008161560632288456,0.0015945378690958023
1772526379537285600,7.15628564453125,0.013491412624716759,0.01495794765651226,0.007011141162365675
1772526379547267600,7.166267578125,0.02270319126546383,0.016659170389175415,0.01432323269546032
1772526379557249500,7.17624951171875,0.02782018855214119,0.00922948308289051,0.01866764761507511
1772526379567232500,7.186232421875,0.03488563746213913,-0.007553389295935631,0.020755235105752945
1772526379577214500,7.19621435546875,0.03338361531496048,-0.023227157071232796,0.019841236993670464
1772526379587196700,7.20619677734375,0.028724562376737595,-0.036635350435972214,0.023167984560132027
1772526379597178400,7.216178466796875,0.025168709456920624,-0.05040469020605087,0.02487214095890522
1772526379607160600,7.22616064453125,0.015688709914684296,-0.05460439994931221,0.033211104571819305
1772526379617143600,7.2361435546875,0.008814825676381588,-0.04413817822933197,0.046921055763959885
1772526379627125500,7.24612548828125,0.0075606112368404865,-0.025593390688300133,0.049652099609375
1772526379637107700,7.256107666015625,0.01003815047442913,-0.004905157256871462,0.046617165207862854
1772526379647089400,7.26608935546875,0.014280620962381363,0.006271411664783955,0.0376887284219265
1772526379657072600,7.27607275390625,0.019475117325782776,0.010707172565162182,0.025922883301973343
1772526379667054600,7.2860546875,0.019849684089422226,0.005225940607488155,0.016033485531806946
1772526379677036500,7.29603662109375,0.011139017529785633,0.008147427812218666,0.007914838381111622
1772526379687018800,7.306018798828125,0.005016774404793978,0.012231126427650452,0.006536534056067467
1772526379697001500,7.31600146484375,-0.004535984713584185,0.0030746462289243937,0.013267673552036285
1772526379706983700,7.325983642578125,-0.018284469842910767,-0.005999707616865635,0.03363679349422455
1772526379716965600,7.335965576171875,-0.044913150370121,-0.01725076511502266,0.056296564638614655
1772526379726947600,7.345947509765625,-0.047496337443590164,-0.03658628091216087,0.07777223736047745
1772526379736929500,7.355929443359375,-0.03923547640442848,-0.06718680262565613,0.09063343703746796
1772526379746912500,7.36591259765625,-0.021242935210466385,-0.08219122886657715,0.1004689559340477
1772526379756894500,7.37589453125,-0.00232889992184937,-0.08673538267612457,0.11250457912683487
1772526379766876400,7.38587646484375,0.016991933807730675,-0.10621121525764465,0.13213816285133362
1772526379776858600,7.395858642578125,0.02665121853351593,-0.1621282696723938,0.1736816167831421
1772526379786841600,7.405841552734375,0.028788622468709946,-0.20767715573310852,0.21623489260673523
1772526379796823600,7.415823486328125,0.031550850719213486,-0.21743656694889069,0.24949005246162415
1772526379806805500,7.425805419921875,0.0376603789627552,-0.1942833811044693,0.25830310583114624
1772526379816787500,7.435787353515625,0.04234914109110832,-0.13927578926086426,0.24456997215747833
1772526379826770400,7.4457705078125,0.037296418100595474,-0.07787186652421951,0.19608436524868011
1772526379836752600,7.455752685546875,0.022210141643881798,-0.0010902713984251022,0.12776948511600494
1772526379846734600,7.465734619140625,0.01362118124961853,0.07544977962970734,0.05031943321228027
1772526379856716500,7.475716552734375,0.01729820854961872,0.13333384692668915,-0.019173355773091316
1772526379866699500,7.485699462890625,0.011551490053534508,0.15095408260822296,-0.07012726366519928
1772526379876681500,7.495681396484375,0.009057439863681793,0.14173714816570282,-0.09573888778686523
1772526379886663700,7.50566357421875,0.005483456887304783,0.1280679851770401,-0.09922277182340622
1772526379896645600,7.515645751953125,0.006154307164251804,0.11087674647569656,-0.06824275106191635
1772526379906627600,7.525627685546875,0.006494659930467606,0.07626897096633911,-0.024384479969739914
1772526379916610600,7.535610595703125,-0.001700419932603836,0.03150149807333946,0.013283269479870796
1772526379926592500,7.545592529296875,-0.004820927511900663,0.019352056086063385,0.050149474292993546
1772526379936574500,7.555574462890625,0.004947546869516373,0.037095632404088974,0.07416878640651703
1772526379946556700,7.565556640625,0.008014863356947899,0.03874315321445465,0.07988943159580231
1772526379956539600,7.57553955078125,0.010948334820568562,0.0467856340110302,0.0627213642001152
1772526379966521600,7.585521484375,0.026307139545679092,0.05916682630777359,0.03969345614314079
1772526379976503600,7.595503662109375,0.031135451048612595,0.0541028268635273,0.0043125636875629425
1772526379986485500,7.605485595703125,0.035309355705976486,0.0601850226521492,-0.02810501866042614
1772526379996468500,7.615468505859375,0.038256675004959106,0.09237252175807953,-0.054799482226371765
1772526380006450700,7.62545068359375,0.0336192362010479,0.11771697551012039,-0.07368550449609756
1772526380016432600,7.6354326171875,0.030888428911566734,0.11444208770990372,-0.08670569956302643
1772526380026414600,7.64541455078125,0.022831913083791733,0.08415267616510391,-0.1002977192401886
1772526380036397600,7.6553974609375,0.022469457238912582,0.06810633093118668,-0.10986645519733429
1772526380046379500,7.665379638671875,0.025242339819669724,0.05977436527609825,-0.1120166927576065
1772526380056361700,7.67536181640625,0.028658375144004822,0.05138194561004639,-0.11293228715658188
1772526380066343400,7.685343505859375,0.03358070179820061,0.04210754111409187,-0.10367169976234436
1772526380076325600,7.69532568359375,0.036580752581357956,0.04623357951641083,-0.07933839410543442
1772526380086308400,7.705308349609375,0.03910887986421585,0.06173892319202423,-0.04539903253316879
1772526380096290600,7.71529052734375,0.038782645016908646,0.07622864842414856,-0.032612934708595276
1772526380106272500,7.7252724609375,0.042072542011737823,0.0755138099193573,-0.021675432100892067
1772526380116254500,7.73525439453125,0.04750698804855347,0.0659213662147522,-0.02673490345478058
1772526380126237700,7.74523779296875,0.04691336303949356,0.051688846200704575,-0.037386201322078705
1772526380136220700,7.755220703125,0.03991644084453583,0.040685463696718216,-0.06093280762434006
1772526380146202600,7.76520263671875,0.03480430692434311,0.030270623043179512,-0.08354520052671432
1772526380156184600,7.7751845703125,0.026103759184479713,0.022206570953130722,-0.10135669261217117
1772526380166167600,7.78516748046875,0.019253792241215706,0.021613989025354385,-0.11394096165895462
1772526380176149500,7.7951494140625,0.01289602741599083,0.03536122664809227,-0.12376909703016281
1772526380186131700,7.805131591796875,0.007215680088847876,0.03927186504006386,-0.13080933690071106
1772526380196113700,7.81511376953125,0.003414816688746214,0.04221225902438164,-0.1436540186405182
1772526380206095600,7.825095703125,-0.007172242272645235,0.003905076999217272,-0.16023887693881989
1772526380216078600,7.83507861328125,-0.01405278593301773,0.0034749764017760754,-0.1666453778743744
1772526380226060500,7.845060546875,-0.029563486576080322,0.022457025945186615,-0.17123568058013916
1772526380236042500,7.85504248046875,-0.04375840350985527,0.0055843014270067215,-0.16741910576820374
1772526380246024700,7.865024658203125,-0.05919548124074936,-0.00279846484772861,-0.15599305927753448
1772526380256007700,7.875007568359375,-0.0700361430644989,-0.007676843553781509,-0.1421012133359909
1772526380265989600,7.88498974609375,-0.06958688795566559,-0.009363971650600433,-0.12957121431827545
1772526380275971600,7.8949716796875,-0.06752267479896545,-0.00588614959269762,-0.12511016428470612
1772526380285953500,7.90495361328125,-0.05916815996170044,-0.015228618867695332,-0.12490610033273697
1772526380295936500,7.9149365234375,-0.05641684681177139,-0.01958714984357357,-0.11477649211883545
1772526380305918700,7.924918701171875,-0.05726649984717369,-0.008559389039874077,-0.11316698789596558
1772526380315900700,7.934900634765625,-0.057842276990413666,-0.0028333268128335476,-0.10762601345777512
1772526380325882600,7.944882568359375,-0.05788380652666092,0.0014185849577188492,-0.10204727947711945
1772526380335864600,7.954864501953125,-0.06527221202850342,-0.01649516634643078,-0.10756561905145645
1772526380345847600,7.96484765625,-0.06510759890079498,-0.02789023332297802,-0.10692708939313889
1772526380355829800,7.974829833984375,-0.0495171919465065,0.0009326261933892965,-0.09844359010457993
1772526380365811700,7.984811767578125,-0.03868949040770531,0.02762192115187645,-0.08153180778026581
1772526380375793700,7.994793701171875,-0.03691475838422775,0.038900937885046005,-0.056350018829107285
1772526380385776600,8.004776611328126,-0.03576438128948212,0.0443725548684597,-0.03784462809562683
1772526380395758600,8.014758544921875,-0.02512212283909321,0.05255618318915367,-0.030485250055789948
1772526380405740500,8.024740478515625,-0.01472468115389347,0.04208304360508919,-0.029013555496931076
1772526380415722500,8.034722412109375,-0.01261093094944954,0.021901078522205353,-0.02994566038250923
1772526380425705700,8.044705810546875,-0.014036785811185837,0.003396102460101247,-0.03594097122550011
1772526380435687400,8.0546875,-0.015042928978800774,0.005891750566661358,-0.03531592711806297
1772526380445669600,8.064669677734376,-0.00890281144529581,0.020999114960432053,-0.03261232003569603
1772526380455651600,8.074651611328125,-0.0084764389321208,0.03784387558698654,-0.01786719635128975
1772526380465633500,8.084633544921875,-0.008411252871155739,0.04954966902732849,-0.0024136812426149845
1772526380475616800,8.09461669921875,-0.0076381368562579155,0.06494779884815216,0.0014966381713747978
1772526380485598500,8.104598388671874,-0.006632932461798191,0.07315574586391449,-0.0054797339253127575
1772526380495580700,8.11458056640625,-0.006862763315439224,0.06505973637104034,-0.02752378210425377
1772526380505562600,8.124562744140626,-0.015511306934058666,0.051387056708335876,-0.05493653193116188
1772526380515545600,8.134545654296875,-0.03055177442729473,0.0548584870994091,-0.08397271484136581
1772526380525527800,8.14452783203125,-0.031312666833400726,0.07777496427297592,-0.11448738723993301
1772526380535509500,8.154509521484375,-0.030048463493585587,0.11267516016960144,-0.14430680871009827
1772526380545491700,8.16449169921875,-0.024452615529298782,0.13883262872695923,-0.1686183214187622
1772526380555474400,8.174474365234374,-0.029054556041955948,0.17391791939735413,-0.1933167427778244
1772526380565456600,8.18445654296875,-0.04215773567557335,0.22379957139492035,-0.2293688952922821
1772526380575438600,8.1944384765625,-0.041174761950969696,0.2505209445953369,-0.2772003412246704
1772526380585420500,8.204420654296875,-0.032835010439157486,0.27794232964515686,-0.3217986822128296
1772526380595402800,8.21440283203125,-0.02376455068588257,0.26345232129096985,-0.35718998312950134
1772526380605385500,8.224385498046875,-0.015472536906599998,0.23439930379390717,-0.365997314453125
1772526380615367700,8.23436767578125,-0.004582072142511606,0.1888059824705124,-0.34634026885032654
1772526380625349600,8.244349609375,-0.0014587067998945713,0.15538476407527924,-0.303527295589447
1772526380635331600,8.25433154296875,0.015144504606723785,0.1321020871400833,-0.24598410725593567
1772526380645314800,8.264314697265625,0.028085537254810333,0.13796775043010712,-0.187702938914299
1772526380655296500,8.274296630859375,0.03160250559449196,0.13395783305168152,-0.1342751383781433
1772526380665278700,8.28427880859375,0.03497777879238129,0.14197532832622528,-0.09040509164333344
1772526380675260400,8.294260498046874,0.03759939223527908,0.14264830946922302,-0.05455255135893822
1772526380685243600,8.30424365234375,0.04357258602976799,0.11965392529964447,-0.024167446419596672
1772526380695225600,8.3142255859375,0.05909349024295807,0.06941552460193634,-0.0014205886982381344
1772526380705207600,8.32420751953125,0.06922033429145813,0.02682342752814293,0.021023284643888474
1772526380715189800,8.334189697265625,0.07186192274093628,-0.0010500152129679918,0.038899753242731094
1772526380725171500,8.34417138671875,0.07058263570070267,-0.030410349369049072,0.05873460695147514
1772526380735154700,8.35415478515625,0.06696313619613647,-0.03508606180548668,0.06731291860342026
1772526380745136400,8.364136474609374,0.0630837082862854,-0.033386167138814926,0.06260710954666138
1772526380755118600,8.37411865234375,0.05503270775079727,-0.02541426196694374,0.05156990513205528
1772526380765100800,8.384100830078125,0.04609976336359978,-0.01804768294095993,0.03339451551437378
1772526380775083500,8.39408349609375,0.0366591215133667,-0.008505843579769135,0.016398219391703606
1772526380785065700,8.404065673828125,0.025604229420423508,0.003439581487327814,0.010319728404283524
1772526380795047400,8.41404736328125,0.015645604580640793,0.012118557468056679,0.004323354922235012
1772526380805029600,8.424029541015624,0.002621173858642578,0.007747003808617592,0.000616410281509161
1772526380815011600,8.434011474609376,0.00003391271457076073,0.006802380550652742,0.0011019045487046242
1772526380824994600,8.44399462890625,-0.005424066446721554,-0.007967517711222172,0.009906698949635029
1772526380834976800,8.453976806640625,-0.006067486014217138,-0.0326363779604435,0.012546423822641373
1772526380844958500,8.46395849609375,-0.010236768051981926,-0.039176635444164276,0.01721348613500595
1772526380854940700,8.473940673828125,-0.01699400693178177,-0.04292850196361542,0.015930375084280968
1772526380864923600,8.483923583984375,-0.01693498156964779,-0.04427820071578026,0.008901347406208515
1772526380874905600,8.493905517578124,-0.01459273137152195,-0.035920400172472,0.005253348965197802
1772526380884887800,8.5038876953125,-0.008641247637569904,-0.031311292201280594,0.0018578930757939816
1772526380894869500,8.513869384765625,-0.0076963575556874275,-0.028187405318021774,-0.003034333698451519
1772526380904852700,8.523852783203125,-0.004820773843675852,-0.019722819328308105,-0.0029319506138563156
1772526380914834400,8.53383447265625,0.00357058085501194,-0.014385578222572803,-0.0018456466495990753
1772526380924816600,8.543816650390625,0.002631974872201681,-0.017162317410111427,0.003190813586115837
1772526380934798600,8.553798583984374,0.007381456438452005,-0.02414778806269169,0.004787911660969257
1772526380944780500,8.563780517578126,0.008183509111404419,-0.030609898269176483,0.00859899539500475
1772526380954763800,8.573763671875,0.010143062099814415,-0.03246638923883438,0.01609073393046856
1772526380964745500,8.583745361328125,0.013647914864122868,-0.026090100407600403,0.01946471445262432
1772526380974727700,8.593727783203125,0.010029210709035397,-0.014814009889960289,0.02048177644610405
1772526380984709400,8.60370947265625,0.0031968415714800358,-0.00397821981459856,0.0121373999863863
1772526380994692600,8.613692626953124,0.00373400142416358,0.004498888272792101,-0.002699336502701044
1772526381004674600,8.623674560546876,0.006612448487430811,0.014400055631995201,-0.014209123328328133
1772526381014656500,8.633656494140626,0.008837252855300903,0.014417632482945919,-0.02839977666735649
1772526381024638700,8.643638671875,0.005955671425908804,0.012213130481541157,-0.029787136241793633
1772526381034620400,8.653620361328125,0.001861060969531536,-0.0014054758939892054,-0.027743162587285042
1772526381044603600,8.663603759765625,0.00358406500890851,-0.009290693327784538,-0.016247902065515518
1772526381054585600,8.673585693359374,0.005685299169272184,-0.008290676400065422,0.003311151172965765
1772526381064567600,8.683567626953124,0.008960484527051449,0.0005100839771330357,0.018586138263344765
1772526381074549800,8.6935498046875,0.006016360595822334,0.007218852639198303,0.02229272574186325
1772526381084532500,8.703532470703125,0.0033971318043768406,0.0010649743489921093,0.021369175985455513
1772526381094514700,8.7135146484375,0.0060075619257986546,-0.008210815489292145,0.008451513014733791
1772526381104496600,8.72349658203125,0.0058114719577133656,-0.013369460590183735,-0.008865626528859138
1772526381114478600,8.733478515625,0.00656088488176465,-0.007254842668771744,-0.015244429931044579
1772526381124461600,8.743461669921874,0.010952325537800789,0.004905503708869219,-0.015985682606697083
1772526381134443500,8.753443603515626,0.006628150586038828,-0.0040653543546795845,-0.017705552279949188
1772526381144425200,8.76342529296875,0.006542959716171026,0.02072262577712536,-0.01364939659833908
1772526381154407000,8.773406982421875,0.014742566272616386,0.02325928583741188,-0.01634850911796093
1772526381164389000,8.78338916015625,0.01637674868106842,0.028607111424207687,-0.020629022270441055
1772526381174371800,8.793371826171875,0.01577540673315525,0.02664303034543991,-0.04127517715096474
1772526381184354000,8.80335400390625,0.022916406393051147,0.04209575802087784,-0.08506553620100021
1772526381194336300,8.813336181640626,0.02215607464313507,0.08182026445865631,-0.14106835424900055
1772526381204318000,8.82331787109375,0.019997142255306244,0.13158510625362396,-0.20746292173862457
1772526381214301200,8.83330126953125,0.010847053490579128,0.18245334923267365,-0.23759979009628296
1772526381224283000,8.843282958984375,-0.011989859864115715,0.1896844357252121,-0.22790201008319855
1772526381234265000,8.85326513671875,-0.027108626440167427,0.16359370946884155,-0.20353195071220398
1772526381244247000,8.8632470703125,-0.025098349899053574,0.11016754060983658,-0.15642111003398895
1772526381254229000,8.87322900390625,-0.014651034027338028,0.06813886016607285,-0.11596342921257019
1772526381264212200,8.883212158203126,-0.008809462189674377,0.03298221528530121,-0.08323688060045242
1772526381274194000,8.89319384765625,-0.012777838855981827,0.010806075297296047,-0.06183624640107155
1772526381284176100,8.903176025390625,-0.012279340997338295,0.012203443795442581,-0.054498810321092606
1772526381294158000,8.913157958984375,-0.005270167253911495,0.02873927727341652,-0.07269778847694397
1772526381304141000,8.92314111328125,0.0019176537171006203,0.057495541870594025,-0.1117754578590393
1772526381314123300,8.933123291015624,0.010986782610416412,0.10573604702949524,-0.18883349001407623
1772526381324105000,8.94310498046875,0.013091841712594032,0.17679744958877563,-0.2669936716556549
1772526381334087200,8.953087158203125,-0.027941077947616577,0.23661178350448608,-0.3020174503326416
