time,seconds_elapsed,z,y,x
1772525817906863600,0.080863525390625,-0.1260322717666626,0.022322014184296128,-0.14869155508130788
1772525817916846800,0.090846923828125,0.18963935928046702,0.0078080434024333945,-0.024208850844204426
1772525817926830800,0.100830810546875,0.3941442792594433,0.018124562494456768,0.05517185212373733
1772525817936813800,0.110813720703125,0.4242980099827051,0.028329291775077578,0.1081073234975338
1772525817946796500,0.120796630859375,0.3522837441295385,0.0609254472143948,0.08362053249478339
1772525817956780800,0.13078076171875,0.2775783394962549,0.12522870029881597,0.010762801554799079
1772525817966763800,0.140763671875,0.1593336528658867,0.09010843320935964,0.031278935360908505
1772525817976746800,0.150746826171875,0.0280506209641695,0.052873804314434523,0.05895341648906469
1772525817986730800,0.160730712890625,-0.07879822690486908,0.11229074666202067,0.04458090000450611
1772525817996713700,0.170713623046875,-0.1547533393383026,0.1905269557699561,0.05481061759591102
1772525818006696700,0.18069677734375,-0.10184650953710078,0.21519787116795777,0.07315642162561416
1772525818016680700,0.1906806640625,0.020610241830348968,0.17935250467434524,0.13697861319482327
1772525818026663700,0.20066357421875,0.14263035534620283,0.12539762712493538,0.18152151927649973
1772525818036646700,0.210646728515625,0.245623112308979,0.10063947183489799,0.2226625079602003
1772525818046630700,0.220630615234375,0.2546604052454233,0.06403159653618931,0.18644027097821234
1772525818056613600,0.230613525390625,0.17571370978057382,0.04804170798286796,0.1302881756454706
1772525818066596900,0.240596923828125,0.06016074645221233,0.06668021134883165,0.03434299910664558
1772525818076580900,0.250580810546875,0.008936170649528502,0.05133066652566194,-0.03813537712693214
1772525818086563800,0.260563720703125,0.00036941783428192136,0.0554585601106286,-0.056820496113598344
1772525818096546600,0.270546630859375,0.02463525956273079,0.09005977176204323,-0.015091770669817924
1772525818106530600,0.280530517578125,0.05572364078760147,0.1028923653282225,0.0824810070708394
1772525818116513800,0.290513671875,0.09471826509237288,0.09357713223323226,0.14677958398014307
1772525818126496800,0.300496826171875,0.0714291594415903,0.1022718953423202,0.19126169978529214
1772525818136480800,0.310480712890625,0.08757131594717502,0.08600815828368068,0.20491496208459137
1772525818146463700,0.320463623046875,0.09456395131349563,0.048031186588853594,0.16625468430072068
1772525818156446700,0.33044677734375,0.06419979270994663,0.010709902323782444,0.05925970595926046
1772525818166431000,0.340430908203125,-0.0040618426114320755,-0.05712547040954232,-0.09367372447550296
1772525818176414000,0.3504140625,-0.044459903973340986,-0.10243833795040845,-0.22028671873956918
1772525818186397200,0.360397216796875,-0.01903846246898174,-0.09696107558310031,-0.23307868803441523
1772525818196381200,0.370381103515625,0.03072363956570625,-0.05887494442537427,-0.1546641997501254
1772525818206364200,0.3803642578125,0.09357552479803562,-0.019801409665495154,-0.10281389326453208
1772525818216347000,0.390346923828125,0.13503215530216692,0.02756488327383995,-0.02201309436559677
1772525818226331000,0.400330810546875,0.17564707428514956,0.04048471673205495,0.032219138820469374
1772525818236314000,0.410314208984375,0.21588497664928435,0.04954641345739364,0.036416882771253586
1772525818246297000,0.420297119140625,0.2208417222738266,0.01899681528434157,0.06600567308813333
1772525818256281000,0.430281005859375,0.16197978346049785,-0.07036474508047104,-0.011212591148912905
1772525818266264000,0.44026416015625,0.08010171071887016,-0.1317287298426032,-0.1712897558584809
1772525818276247000,0.4502470703125,0.02061141087412834,-0.13214374038428067,-0.23264526505321262
1772525818286231000,0.46023095703125,-0.049337154620885844,-0.1147219193316996,-0.18181845639646052
1772525818296214000,0.470214111328125,-0.0850099410265684,-0.07304214759618044,-0.11965630699396133
1772525818306197200,0.480197265625,-0.07534487158060073,-0.05804740756005049,-0.08995441169142722
1772525818316181000,0.490180908203125,-0.059631169620156285,-0.027133798380196094,-0.030908348482847212
1772525818326164000,0.5001640625,0.004997077634930611,0.019295505969971417,0.033873043507337566
1772525818336147000,0.51014697265625,0.09919044207036494,0.03373582699373364,0.061224868552386756
1772525818346131200,0.520131103515625,0.17008359493911265,0.0165524908721447,0.06975304292291402
1772525818356114200,0.5301142578125,0.19797639499306677,0.010981705002486705,0.07216010406464338
1772525818366098200,0.54009814453125,0.1689706652611494,-0.015270049846172333,0.033035131378471846
1772525818376081000,0.550080810546875,0.0682926149815321,-0.06495192625150084,-0.06663111151009797
1772525818386064100,0.560064208984375,-0.03836275614202022,-0.08106222631409764,-0.11792758350521325
1772525818396048100,0.570048095703125,-0.11768588370382785,-0.06517331391721963,-0.11669687266647814
1772525818406031000,0.580031005859375,-0.14866028316020966,-0.025273557466268536,-0.08245119645446539
1772525818416014000,0.59001416015625,-0.1530932971715927,0.023500556444376704,-0.007166238367557525
1772525818425998000,0.599998046875,-0.07171382160186768,0.0753035166569054,0.070510291031003
1772525818435981000,0.60998095703125,0.015256021320819853,0.10048238157704471,0.14208236607462166
1772525818445964000,0.619964111328125,0.10898176824450492,0.09667144498676061,0.19604075075536964
1772525818455948000,0.629947998046875,0.13999240805804727,0.08939546263441443,0.19405045372098684
1772525818465931000,0.639930908203125,0.11610533651411532,0.06308759368434548,0.1254185237824917
1772525818475914000,0.6499140625,0.07544365577995776,0.05738046808391809,0.052585050500929355
1772525818485898000,0.65989794921875,0.03812193312346935,0.05401917495727539,-0.0047565468773245806
1772525818495881000,0.669880859375,0.013614683854579925,0.04670373737737536,-0.03701601770818233
1772525818505864200,0.6798642578125,0.015379939961433409,0.04191109627336263,-0.046234512430429454
1772525818515848200,0.68984814453125,0.07034604038000107,0.06572291062399745,-0.013964227944612502
1772525818525831000,0.699830810546875,0.12720073102414609,0.07240428808405995,0.055555006222426886
1772525818535814100,0.709814208984375,0.13432955999076365,0.04583616076260805,0.10288988111019134
1772525818545798100,0.719798095703125,0.10398819774091243,0.04166530481874942,0.1044300962895155
1772525818555781000,0.729781005859375,0.039383915883302686,0.0866901491984725,0.05762216788530349
1772525818565763800,0.739763916015625,0.0023994623571634292,0.06117839906215668,0.018624036449193953
1772525818575747800,0.749747802734375,0.005543605601787567,-0.011096271292865275,-0.023657646702229976
1772525818585731000,0.75973095703125,0.02937690113186836,-0.00940188846513629,-0.04931348148435354
1772525818595714000,0.769714111328125,0.000037409400939941404,-0.013887217185646296,-0.041270752543210984
1772525818605698000,0.779697998046875,0.07072714865207672,0.02468245970532298,-0.04566080419570207
1772525818615681300,0.789681396484375,0.10254033702015876,0.031219898650050162,-0.026176936046779155
1772525818625664000,0.7996640625,0.16048574551045894,0.033476007013767954,0.032281098140776156
1772525818635648000,0.80964794921875,0.1698988860219717,0.04221519378647208,0.07884995709210633
1772525818645631000,0.819630859375,0.13642448644340038,0.05691489639878273,0.07819003187865019
1772525818655614200,0.8296142578125,0.09283668912947177,0.07558744816482067,0.0465223894611001
1772525818665598200,0.83959814453125,0.05502572165131569,0.06222279354855418,0.023888532848656177
1772525818675581000,0.849580810546875,0.054207975527644156,0.03644099429920315,-0.0076177815273404115
1772525818685564200,0.859564208984375,0.06703823100626469,-0.0034415187560021877,-0.015611118368804454
1772525818695548200,0.869548095703125,0.04663374088108539,-0.04541705856770277,-0.02459638885706663
1772525818705531100,0.87953125,0.015273556977510452,-0.05387655161619186,-0.03461772439479828
1772525818715513900,0.889513916015625,-0.009059504768252373,-0.052215778797119854,-0.038026656055450435
1772525818725497900,0.899497802734375,-0.062057519984245295,-0.05226517089679837,-0.027272330068051815
1772525818735481000,0.909481201171875,-0.07958207075893879,-0.030990912199765443,-0.01952215433269739
1772525818745464000,0.919464111328125,-0.014697802916169166,0.002750029360502958,0.006630231794714927
1772525818755448000,0.929447998046875,0.046585225564241405,-0.008112287046015262,0.04301759621053934
1772525818765431000,0.93943115234375,0.09340425988435745,-0.024995471177250147,0.041051264573633665
1772525818775414000,0.9494140625,0.08700257614850998,-0.03572948502898216,0.02202186219394207
1772525818785398000,0.95939794921875,0.03015723785459995,-0.0694410543642938,-0.031244156308472156
1772525818795381000,0.969381103515625,0.012825579303503035,-0.05309066193550825,-0.0709416681855917
1772525818805364200,0.9793642578125,0.003889408653974533,-0.06222688520178198,-0.07759206598550081
1772525818815348200,0.98934814453125,0.005917699611186981,-0.046346448372304436,-0.08987462445348501
1772525818825331000,0.9993310546875,0.036727848416566844,-0.032180998767167325,-0.07895750911980867
1772525818835314000,1.00931396484375,0.04244505701959133,-0.04020443848595023,-0.04641512969434261
1772525818845298200,1.019298095703125,0.05103928236365318,-0.021462328615039585,-0.05877630635648966
1772525818855281200,1.02928125,0.08376900105476379,0.005764554876089096,-0.05164864643365145
1772525818865263900,1.039263916015625,0.1024514896929264,0.021924100907891986,-0.01884293989688158
1772525818875247900,1.049247802734375,0.1101630869835615,0.015547405482828616,0.012837269741296767
1772525818885231000,1.059231201171875,0.13623860848248004,0.021483663664013147,-0.005464402885735035
1772525818895214000,1.069214111328125,0.15975392410457134,0.01621551400274038,-0.011445815382897854
1772525818905198000,1.079197998046875,0.13338205000758172,-0.016827216160297392,-0.012054887191951275
1772525818915181000,1.08918115234375,0.12044190441370009,-0.008487550099194049,-0.021956103481352327
1772525818925164000,1.0991640625,0.12862345730364322,0.021823709273338317,-0.025198154142498968
1772525818935148000,1.10914794921875,0.13981588244736193,0.041376258744299406,0.016571487833559512
1772525818945131000,1.119131103515625,0.12405308064818382,0.03774257841706276,0.06435644457638263
1772525818955114200,1.1291142578125,0.075372344109416,0.03221446264535188,0.08136164765208959
1772525818965098200,1.13909814453125,-0.0026730186015367506,0.033657354930043216,0.05681845028698444
1772525818975081000,1.1490810546875,-0.07079904484450816,0.029616993498057125,0.04457213217616081
1772525818985064000,1.15906396484375,-0.08648059810101985,0.021544600071012974,0.053553018750250335
1772525818995048000,1.1690478515625,-0.07376315534710884,0.04446779501885176,0.0618394933193922
1772525819005031200,1.17903125,-0.061003627017140384,0.04999634918197989,0.09698211837112904
1772525819015014100,1.18901416015625,-0.007867664635181426,0.08947700343802571,0.11940963875651359
1772525819024998000,1.198997802734375,0.04390285461246967,0.10657821423411369,0.14651976400017738
1772525819034981000,1.208981201171875,0.04668108715415001,0.09455795996412635,0.1556166781693697
1772525819044964000,1.218964111328125,-0.011648936739563942,0.0998996132530272,0.13035773375034332
1772525819054948000,1.228947998046875,-0.07453706232905387,0.100135906226933,0.05653145003914833
1772525819064931000,1.23893115234375,-0.07157353634834289,0.08253376017138361,-0.026935060937702655
1772525819074914000,1.2489140625,-0.03535480649769306,0.04799348492696881,-0.028371815742552278
1772525819084898000,1.25889794921875,-0.024784312644600865,0.0015611118368804454,0.0004702478602528572
1772525819094881000,1.268881103515625,0.01307458562850952,0.0049915246769785876,-0.012910334977507591
1772525819104864000,1.278864013671875,0.044968438017368315,0.015272095672786234,-0.014955284808576106
1772525819114848300,1.28884814453125,0.07097381688952445,0.005562018041312694,0.004696341122686863
1772525819124831000,1.2988310546875,0.08229425232708454,0.0028523206911981102,-0.009275193345546722
1772525819134815000,1.30881494140625,0.07607026324570179,0.008440788348019123,-0.03487549854815006
1772525819144798000,1.3187978515625,0.08535188633203505,0.006491407845914363,-0.0056426820620894425
1772525819154781200,1.32878125,0.08109832054078578,0.012980623734742402,-0.01957739165127277
1772525819164764000,1.338763916015625,0.06481354069411754,-0.003106003191322088,-0.029499942989647386
1772525819174748000,1.348747802734375,0.05616553933620452,-0.01433861421495676,-0.03519230941236019
1772525819184731000,1.35873095703125,0.07818389439880848,-0.040440293068438764,-0.03231763075888157
1772525819194715100,1.368715087890625,0.08629764274954796,-0.09007584611400961,-0.027575112406909463
1772525819204698000,1.378697998046875,0.09008709816038608,-0.10722834870591759,-0.052527767355740065
1772525819214680800,1.388680908203125,0.10929098032414912,-0.09964929175376891,-0.09425327792912722
1772525819224664800,1.398664794921875,0.1308592535316944,-0.07201587328836322,-0.0911383607789874
1772525819234648000,1.40864794921875,0.07850596596002578,-0.05642652835994959,-0.055819210116565224
1772525819244631000,1.418631103515625,0.011844167050719261,-0.03022723435088992,-0.059730538341403
1772525819254615000,1.428614990234375,-0.016931261056661605,0.02229629522114992,-0.04864771105200052
1772525819264598000,1.438597900390625,-0.01357435184419155,0.04174962210133672,-0.018449264404177664
1772525819274581000,1.4485810546875,-0.002910334488749504,0.024104075295478103,-0.011653320653736591
1772525819284565000,1.45856494140625,0.015122750329971313,0.03956351023390889,-0.03304974442571401
1772525819294548000,1.4685478515625,0.05358896684646606,0.05584814395010471,-0.022806582830846307
1772525819304531000,1.478531005859375,0.08018354378342628,0.03202989985868335,0.006669979283213615
1772525819314515000,1.488514892578125,0.05942600243687629,-0.002468435940146446,0.038271862988173956
1772525819324498000,1.498497802734375,0.026536709269881248,-0.008525982413440943,0.013401333364844321
1772525819334481000,1.50848095703125,0.0262076234459877,0.0076429159685969346,-0.03242839765697717
1772525819344465000,1.51846484375,0.036064416071772576,0.002824409770965576,-0.02281651970297098
1772525819354448100,1.5284482421875,0.04705927281677723,0.00504325486421585,0.008332651798427104
1772525819364430800,1.538430908203125,0.06461071159839629,0.02394303951486945,0.009708031804859638
1772525819374414800,1.548414794921875,0.09604863691329955,0.03745163264647126,0.025302491299808025
1772525819384398000,1.558398193359375,0.11046820740997791,0.02436535658016801,0.08493278413712978
1772525819394381000,1.568381103515625,0.07254968790411949,0.013283552204072475,0.10967033503055572
1772525819404365000,1.578364990234375,0.020394553253054618,0.04440744313374161,0.11561784525811672
1772525819414347800,1.58834765625,0.007030629289150238,0.04976429399177432,0.1188601881802082
1772525819424331000,1.5983310546875,0.000754033237695694,0.0316373934097588,0.14012158739566802
1772525819434315000,1.60831494140625,0.014386837270855903,0.025281886903196573,0.12852028919011355
1772525819444298000,1.618298095703125,0.028628713113069533,0.05360372602418065,0.08669599441736936
1772525819454281000,1.628281005859375,0.06414660121798516,0.06135390175953507,0.06995382619202137
1772525819464265000,1.638264892578125,0.04493336670398712,0.05875117191523313,0.05616173994392156
1772525819474248000,1.648248046875,0.05197217929959297,0.051124476429075,0.020215689554810522
1772525819484231000,1.65823095703125,0.05393967998027801,0.046218584208935494,-0.013553309056162833
1772525819494215000,1.66821484375,0.1018108537018299,0.037370676364749666,-0.01497165142148733
1772525819504198100,1.6781982421875,0.12445990788340568,0.02397387304455042,-0.020271219134330748
1772525819514180900,1.688180908203125,0.1408499016702175,0.017647008110582826,-0.04941781864166259
1772525819524164900,1.698164794921875,0.15968495052158832,0.020511603761464357,-0.06041793608367443
1772525819534148000,1.708148193359375,0.1510363646417856,0.010070873767882585,-0.033688042329251766
1772525819544131000,1.718131103515625,0.13012217142879962,-0.0004528583340346813,-0.03415449079722166
1772525819554115000,1.728114990234375,0.11000935772657394,0.01568885978013277,-0.04713964457660913
1772525819564097800,1.738097900390625,0.0821738408178091,0.0015850772343575955,-0.02714958047121763
1772525819574081000,1.7480810546875,0.05124854120016098,-0.008223784596472978,-0.021276012262701986
1772525819584065000,1.75806494140625,0.022277298259735106,0.00838379746377468,-0.031682547725737094
1772525819594048000,1.768048095703125,0.0009708908587694168,0.009317571182548999,-0.002720364874601364
1772525819604031000,1.778031005859375,-0.018002105158567427,-0.0053841772563755505,0.001072305406630039
1772525819614015000,1.788014892578125,-0.02830956416130066,0.004165595246851444,0.004960837277770042
1772525819623998000,1.797998046875,-0.04030862951278686,0.013996522779017686,0.01992781252413988
1772525819633981000,1.80798095703125,-0.002237549793720245,0.008457885613292455,0.035308921529352666
1772525819643965000,1.81796484375,0.013486089038848877,0.008287497482448817,0.034084055909514424
1772525819653948200,1.8279482421875,0.00008767828345298767,-0.001764379324018955,0.024998832178115844
1772525819663931000,1.837930908203125,-0.014231354448199271,-0.0037251580029726027,0.008289104917645455
1772525819673915000,1.847914794921875,-0.04762976618111133,-0.003050181350857019,-0.0036596915513277053
1772525819683897900,1.85789794921875,-0.0862350989073515,0.0025680969223380087,-0.010653788222372531
1772525819693881000,1.867881103515625,-0.10234627575278281,-0.004662146592140198,0.013916589410603046
1772525819703865000,1.877864990234375,-0.09629764323830604,0.010589052423089742,0.012364391532540321
1772525819713847800,1.887847900390625,-0.06303893223702907,0.02858049005717039,0.00993015012294054
1772525819723831000,1.8978310546875,0.01637713430523872,0.028566899923235176,0.03461567856818437
1772525819733815000,1.90781494140625,0.07512567587196826,0.0058357204161584375,0.049181379537284374
1772525819743798000,1.917798095703125,0.08599661397635937,-0.01853767333999276,0.02581628604084253
1772525819753781000,1.927781005859375,0.06647416738271712,-0.019730536386370658,0.0027189035698771476
1772525819763764700,1.9377646484375,0.02829670467972755,-0.002552314831316471,-0.02064268279522657
1772525819773748000,1.947748046875,-0.016437924581766128,-0.020773177307099103,-0.04462503140717745
1772525819783731000,1.95773095703125,-0.021026421415805817,-0.012213000363111496,-0.053739481233060354
1772525819793715000,1.96771484375,-0.0022609306693077086,-0.001751665972918272,-0.025732991671562195
1772525819803698200,1.9776982421875,0.030516718816757202,0.0019119711011648178,0.020157529626786706
1772525819813681000,1.987680908203125,0.07244155135452747,0.02953486817255616,0.03531827387958765
1772525819823665000,1.997664794921875,0.10049217231869698,0.02207622272968292,0.04495996244996786
1772525819833647900,2.00764794921875,0.09672785134911537,0.024051468325406312,0.027696985220909118
1772525819843631000,2.017631103515625,0.09010872547030449,0.02910261423513293,0.009629998132586479
1772525819853615000,2.027614990234375,0.0762006116271019,0.04631298449411988,-0.00815554166585207
1772525819863597800,2.037597900390625,0.1119014550834894,0.07320698276907205,-0.007653729623556137
1772525819873581000,2.0475810546875,0.14539163675308225,0.05565495946556329,0.013185644787549971
1772525819883565000,2.05756494140625,0.17266367456018925,0.04899988549053669,-0.0019017419680953025
1772525819893548000,2.067548095703125,0.1879448303222656,0.04931026661396026,-0.004937456402182579
1772525819903531000,2.077531005859375,0.19926234315037727,0.03404007063731551,-0.028252281016111373
1772525819913514800,2.0875146484375,0.18966390919983386,0.027070962277054786,-0.04538461760282516
1772525819923498000,2.097498046875,0.16586626950502395,0.018205518776178358,-0.04762158287465572
1772525819933481000,2.10748095703125,0.11346680470407008,0.027857436479628083,0.0292988674595952
1772525819943465000,2.11746484375,0.00919511384665966,0.03577916938960552,-0.02322393146008253
1772525819953448000,2.127447998046875,0.0043324762463569635,0.03411035939455032,-0.023788287344574926
1772525819963431000,2.137430908203125,0.010348960056900978,-0.018380144690722227,-0.01917261024266481
1772525819973415000,2.147414794921875,0.023684242448210716,-0.05694909092932939,0.0024579145461320877
1772525819983398000,2.15739794921875,0.004487374547123908,-0.06375204894244671,-0.02366349192112684
1772525819993381000,2.167381103515625,-0.026607436418533324,-0.04062266389802098,-0.026241525715589523
1772525820003365000,2.177365234375,-0.06015840836465358,-0.01557166314125061,0.0013806407034397125
1772525820013347800,2.187347900390625,-0.08889876515865325,-0.004739741872996092,0.0563821046963334
1772525820023330800,2.197330810546875,-0.0912625716805458,-0.000949701940268278,0.1040676927179098
1772525820033314800,2.207314697265625,-0.0915022256553173,0.010139847350865603,0.12422259199619293
1772525820043298000,2.217298095703125,-0.06827566384673119,0.022545447676628826,0.1255678691253066
1772525820053281000,2.227281005859375,-0.06260229438543319,0.00481689876243472,0.10315642309188842
1772525820063265000,2.23726513671875,-0.05369768791794777,-0.00908683116659522,0.06093582247793674
1772525820073248000,2.247248046875,-0.02240881568491459,-0.00044628246277570723,0.004375146344304084
1772525820083231000,2.25723095703125,0.01079202764928341,-0.016599106492847203,-0.019196575640141964
1772525820093215000,2.267215087890625,0.06301321327388286,-0.03488265894129872,-0.03914952260553837
1772525820103198000,2.277197998046875,0.12374328404664993,-0.01896452044993639,-0.05199906730651855
1772525820113181000,2.287180908203125,0.15068097533285618,-0.007903028209507465,-0.06534487109184264
1772525820123165000,2.2971650390625,0.16908172442018984,-0.01666267324835062,-0.062305941787362096
1772525820133148000,2.30714794921875,0.20552374163269996,0.005529430945962667,-0.0683703563928604
1772525820143131100,2.317131103515625,0.22680033841729164,0.016099486407637593,-0.05259644867777824
1772525820153115100,2.327115234375,0.22886311616599558,0.03795256790593266,-0.023563830938935278
1772525820163097300,2.337097412109375,0.1870733081847429,0.02186930198073387,-0.019464578926563263
1772525820173080300,2.347080322265625,0.13351882812976837,0.022818127138167617,-0.053306935034692284
1772525820183064600,2.357064697265625,0.10571312183737754,0.004387859695404768,-0.09522972174584865
1772525820193047600,2.367047607421875,0.08252806108295917,-0.0193453364610672,-0.07623422163575887
1772525820203030500,2.377030517578125,0.07966565738916397,-0.02802665556669235,-0.041730186748504636
1772525820213014300,2.38701416015625,0.0836596954613924,-0.0033960721790790554,0.001246200668811798
1772525820222997500,2.39699755859375,0.09302782778739929,0.010041647673398256,0.03638531858921051
1772525820232980500,2.40698046875,0.07434533914923667,0.021807927182316778,0.051909343196451664
1772525820242964500,2.416964599609375,0.006193593943119049,0.03226195504888892,0.05998977379947901
1772525820252947500,2.426947509765625,-0.05491115536093712,0.0443384695507586,0.06558569411039351
1772525820262930400,2.436930419921875,-0.10999123754799366,0.059023705246299504,0.06892448314428329
1772525820272914400,2.44691455078125,-0.1480044495999813,0.051342649224400516,0.09100947370231151
1772525820282897400,2.4568974609375,-0.17370412352383136,0.055752720751613374,0.09959142408668994
1772525820292880600,2.466880615234375,-0.1343237147718668,0.06754413470178842,0.10409282715916633
1772525820302864600,2.47686474609375,-0.0752677146911621,0.07488952902853488,0.12064385672658681
1772525820312847400,2.486847412109375,-0.004726444000005722,0.0678990856193006,0.14113427156955002
1772525820322830300,2.496830322265625,0.04519757059812546,0.05845101992487907,0.1206836042150855
1772525820332814300,2.506814453125,0.05549509272873401,0.03896700564548373,0.04708732986748218
1772525820342797600,2.516797607421875,0.035763387298583985,0.003987900592386722,-0.007130290271341801
1772525820352780500,2.526780517578125,0.004064765220880508,0.001138794771581888,-0.03326192587167025
1772525820362764300,2.536764404296875,0.006993804410099983,-0.0004613339014351368,-0.02461421677470207
1772525820372747500,2.54674755859375,-0.0047141690403223035,0.006434563092142343,-0.013654723604023455
1772525820382730500,2.55673046875,0.006851181069016456,0.020243600475043057,0.004016542164981365
1772525820392714500,2.566714599609375,0.044973698714375496,0.018597732964158058,0.009918751946091651
1772525820402697500,2.576697509765625,0.07684884640276432,0.02589256614744663,0.018681904116272924
1772525820412680400,2.586680419921875,0.12116846512258052,0.030600305446982383,0.005374971036612987
1772525820422664400,2.59666455078125,0.16208441287875175,0.007313245622813701,-0.015952771413326263
1772525820432647400,2.6066474609375,0.1809954495757818,-0.01462722189798951,-0.04525105435103178
1772525820442630700,2.616630615234375,0.19836568657159803,-0.028328268861770627,-0.06975859588086605
1772525820452614700,2.62661474609375,0.20823300059139727,-0.03032236528843641,-0.08488076168894768
1772525820462597400,2.636597412109375,0.22343407685458658,-0.012610767509043216,-0.08083674699515103
1772525820472580400,2.646580322265625,0.25372107856869697,-0.015586422318965195,-0.045675124981999396
1772525820482564400,2.656564453125,0.25602175672650335,0.007326835756748915,-0.010837328095734119
1772525820492547600,2.666547607421875,0.24095453597605226,0.03552008006200194,0.020412965692579745
1772525820502530600,2.676530517578125,0.18619652535021303,0.04968947518989444,0.038705870491266246
1772525820512514300,2.686514404296875,0.12201719090640545,0.06658668784648179,0.04733224453926086
1772525820522497500,2.69649755859375,-0.06348492243885993,0.01205444880053401,-0.05713233854174614
1772525820532480500,2.70648046875,-0.23930793781280515,-0.03419803767800331,-0.07690729859173298
1772525820542464500,2.716464599609375,-0.3036328182071447,0.013380582837760448,-0.1560083078354597
1772525820552447500,2.726447509765625,-0.2633405553072691,-0.043791649322956795,-0.12412000840455292
1772525820562430500,2.736430419921875,-0.1791314092695713,-0.09791311561092733,-0.05920446864068508
1772525820572414500,2.74641455078125,-0.0877028333723545,-0.08160583167150616,0.01414163033813238
1772525820582397400,2.7563974609375,-0.054608957543969154,-0.025468933907896278,0.07443623230308294
1772525820592380400,2.76638037109375,-0.0700835900515318,0.02086348593905568,0.09484481408149004
1772525820602364400,2.776364501953125,-0.08457096508741378,0.060333180409669875,0.1104094629600644
1772525820612347400,2.786347412109375,-0.09347849416434764,0.05436915743872523,0.09579933832734823
1772525820622330400,2.796330322265625,-0.10806816053092479,0.012305062560737132,0.08522709090858697
1772525820632314400,2.806314453125,-0.08505261112451552,-0.008269523434340953,0.06159253282099962
1772525820642297600,2.816297607421875,-0.053468555337190624,-0.04042261128127575,0.06840045927017926
1772525820652280600,2.826280517578125,-0.05329378329217434,-0.050225481762737036,0.07333645436763762
1772525820662264600,2.8362646484375,-0.02708908245563507,-0.03303177037760615,0.054203299352526664
1772525820672247300,2.846247314453125,-0.00748889445066452,-0.019886603730916975,0.012855974441766739
1772525820682230500,2.85623046875,0.06026596039235591,-0.01710501018837094,-0.014345043955743313
1772525820692214500,2.866214599609375,0.14751403573453425,-0.01584784973412752,-0.04476385535597801
1772525820702197500,2.876197509765625,0.24840952815711498,-0.00452390716522932,-0.07155570843070745
1772525820712180500,2.886180419921875,0.2972492546498775,0.014472177466750145,-0.10152619154155254
1772525820722164500,2.89616455078125,0.325132117831707,0.034237054514139886,-0.10693681841343641
1772525820732147500,2.9061474609375,0.32958792819678784,0.04733312132209539,-0.10181669892072677
1772525820742130400,2.91613037109375,0.3127887690871954,0.05748597428500652,-0.08031681477427483
1772525820752114400,2.926114501953125,0.2706207754433155,0.0736022656969726,-0.0506876924470067
1772525820762097400,2.936097412109375,0.194598442992568,0.05908624908849597,-0.021524434065818786
1772525820772080400,2.946080322265625,0.09788345112502575,0.04196998685374856,0.018492519024014473
1772525820782064400,2.956064453125,0.019417232653498647,0.06262947465330362,0.008595686648786068
1772525820792047600,2.966047607421875,0.005575754305720329,0.06903437325954437,0.015081249275803565
1772525820802030600,2.976030517578125,0.03425824343264103,0.029362141954153775,0.02474719550460577
1772525820812014600,2.9860146484375,0.08077040376067161,-0.00010623685345053673,0.045346039158105846
1772525820821997300,2.995997314453125,0.09229249925017356,0.003795154499262571,0.0561275454133749
1772525820831980500,3.00598046875,0.0472346293836832,0.005886866081506014,0.05176818116009235
1772525820841964500,3.015964599609375,-0.02125496947467327,0.010974398478865622,0.06817220347225665
1772525820851947500,3.025947509765625,-0.11738017875552177,0.014599164847284555,0.08180705333203077
1772525820861930500,3.035930419921875,-0.20607728386223315,0.015275456673651933,0.08967091857492923
1772525820871914500,3.04591455078125,-0.23317396510243416,0.021488778230547904,0.10131488687843083
1772525820881897500,3.0558974609375,-0.18984218837618827,0.055120121936500066,0.11133271528482437
1772525820891880400,3.06588037109375,-0.10097381835579872,0.0470800233438611,0.11033347511440515
1772525820901864400,3.075864501953125,-0.025254852765798568,0.017100480143725873,0.1069461707636714
1772525820911847400,3.085847412109375,0.0015267711758613586,-0.002793868502229452,0.059165305674076074
1772525820921830400,3.095830322265625,0.0056026423126459115,-0.015205460177361964,0.004403787916898727
1772525820931814400,3.105814453125,-0.013575520887970923,-0.011074351722002029,-0.04599018228054046
1772525820941797400,3.11579736328125,-0.039112697726488115,-0.01880216949507594,-0.07115443415343761
1772525820951780600,3.125780517578125,-0.05955810438394546,-0.016736615267395973,-0.08647095348984002
1772525820961764600,3.1357646484375,-0.012285481077432632,-0.0044419279702007765,-0.0748801766782999
1772525820971747300,3.145747314453125,0.08937515049874782,0.024544658669829366,-0.03009147914201021
1772525820981730600,3.15573046875,0.19430501300394534,-0.006656535279750824,0.008779226522147654
1772525820991714600,3.165714599609375,0.26774258965849873,-0.03253448837995529,0.014245967495441436
1772525821001697500,3.175697509765625,0.2586363231390714,-0.045999242369830606,-0.010158113659918307
1772525821011680300,3.18568017578125,0.24020576343536376,-0.034506811366230246,-0.08226648753732442
1772525821021664300,3.195664306640625,0.17859423365294932,-0.014602233587205408,-0.09684037181288004
1772525821031647500,3.2056474609375,0.11045827053785323,-0.009115472739189863,-0.09449643903523683
1772525821041630500,3.21563037109375,0.06930734498202801,0.0040630116552114485,-0.08795213195830583
1772525821051614500,3.225614501953125,0.012290157252550124,0.014132131857424974,-0.05433540129959583
1772525821061597700,3.23559765625,-0.00916062705516815,0.04196326485201716,-0.012877309490740299
1772525821071580400,3.245580322265625,-0.016864625561237336,0.0643872781060636,0.02102174524068832
1772525821081564400,3.255564453125,0.0068003276646137235,0.07770370966643095,0.048157297186553476
1772525821091547400,3.26554736328125,0.034595512562990184,0.061559653464704746,0.054308221031725404
1772525821101530600,3.275530517578125,0.03779343182146549,0.05560220636501908,0.05232347695529461
1772525821111514600,3.2855146484375,0.029889526829123495,0.05476312519237399,0.037141105392575265
1772525821121497300,3.295497314453125,0.00967091466486454,0.05261383820399642,0.019394436299800873
1772525821131480600,3.30548046875,-0.03778992469012737,0.03761602942794561,-0.005614332750439643
1772525821141464600,3.315464599609375,-0.05657119752764701,0.029989772333204743,-0.0032949498921632766
1772525821151447600,3.325447509765625,-0.012165654090046881,0.024132424607127903,0.019592881481349467
1772525821161430300,3.33543017578125,0.016155600509047508,0.003409516182541847,0.06148001235723495
1772525821171414800,3.345414794921875,0.030056115567684172,-0.003111848410218954,0.0766509857431054
1772525821181398000,3.35539794921875,0.037355624926090236,0.01776625057607889,0.07762099981904029
1772525821191380700,3.365380615234375,0.027419921845197676,0.02155862859636545,0.056653907375037664
1772525821201364700,3.37536474609375,0.02827157023847103,0.009775544083118438,0.06514350330084562
1772525821211347700,3.38534765625,0.030725977653265,-0.002233896531909704,0.047317923752963544
1772525821221331000,3.3953310546875,0.03687105627954006,-0.006959902140498161,0.021147709707915782
1772525821231315000,3.40531494140625,0.08285597786307335,0.010883943716436624,0.008323883970081805
1772525821241297700,3.415297607421875,0.1243979485630989,0.022653584226220845,0.01873743369579315
1772525821251281000,3.425281005859375,0.1611795729935169,0.01662716354355216,0.024639351215958595
1772525821261265000,3.435264892578125,0.17599018863439558,0.004210018910467624,0.01455079566091299
1772525821271248000,3.445247802734375,0.17893676348030566,0.0008577858731150627,-0.005986965455114841
1772525821281230600,3.455230712890625,0.16076748506128788,-0.010555004023015499,-0.03434475267231464
1772525821291214600,3.465214599609375,0.13994097013175485,-0.024916414591670034,-0.06264730257093906
1772525821301197800,3.47519775390625,0.1298573830127716,-0.03458236082047224,-0.09973901586383581
1772525821311180800,3.485180908203125,0.12263035436868668,-0.037574528373777866,-0.09312018224596977
1772525821321164800,3.495164794921875,0.09027180707752704,-0.029849487079679965,-0.0731789257183671
1772525821331148000,3.50514794921875,0.02887245874106884,0.007127367661893367,-0.05878098253160715
1772525821341130800,3.515130859375,-0.02145487596094608,0.022255670949816703,-0.0436269602805376
1772525821351114800,3.52511474609375,-0.028193828827142713,0.02842603014782071,-0.01556026496440172
1772525821361097700,3.53509765625,-0.05071253462731838,0.013383067055791616,-0.006788637226819992
1772525821371081000,3.5450810546875,-0.05558920075297355,0.0005880290210247039,0.0008159925580024719
1772525821381065000,3.55506494140625,-0.04039046257734299,-0.014115619114041328,0.011538462102413176
1772525821391047700,3.565047607421875,-0.03147884184718132,-0.018406740436702967,0.011844459311664104
1772525821401030700,3.57503076171875,-0.03807517137229442,0.001613280415534973,0.011076982070505618
1772525821411015000,3.585014892578125,-0.0531646039545536,0.003181698776036501,0.02809942854195833
1772525821420998000,3.594997802734375,-0.04320201286673546,0.015520809736847876,0.0476572387099266
1772525821430980900,3.60498095703125,-0.00042553193569183347,0.025949703162163495,0.06057984864711761
1772525821440964600,3.614964599609375,0.027843115693330762,0.025168489656597376,0.07899374947696924
1772525821450947800,3.62494775390625,0.03697159404456615,0.024998247656226158,0.07050736842155456
1772525821460930800,3.634930908203125,0.043107904842495916,0.012786416336894035,0.043077509704232214
1772525821470914800,3.644914794921875,0.04367196846604347,-0.0013709960922598837,0.019189561377465723
1772525821480897800,3.654897705078125,0.05802548798918724,-0.00008285597786307334,0.008780103304982185
1772525821490880800,3.664880859375,0.059790744096040724,-0.0068014967083930965,-0.004643441891670227
1772525821500864800,3.67486474609375,0.03872048353850841,-0.006192717160284519,-0.017502923464775083
1772525821510847700,3.68484765625,0.030709026518464088,0.013524082961678504,-0.019846856242418286
1772525821520831000,3.6948310546875,0.048209027373790736,0.039978374645113945,-0.016596622274816036
1772525821530815000,3.70481494140625,0.0740875649958849,0.047806291791796685,0.01466886908262968
1772525821540797700,3.714797607421875,0.10371288793087005,0.05426482028141617,0.037219431325793265
1772525821550780700,3.72478076171875,0.12376841848790644,0.042395811050385236,0.043539866518974304
1772525821560764700,3.7347646484375,0.13269582130908966,0.036976270219683645,0.021486732403934002
1772525821570748000,3.744747802734375,0.15246785874962807,0.027118600811064243,0.014623860897123813
1772525821580731000,3.75473095703125,0.17578092979788779,0.0010759586684405804,-0.006066168171167373
1772525821590714600,3.764714599609375,0.16524784534573553,-0.028167233081161973,-0.0432893988892436
1772525821600697900,3.77469775390625,0.1294914723098278,-0.027303309728205202,-0.05484948830157518
1772525821610680800,3.784680908203125,0.09529927985072136,-0.01046191891208291,-0.058306350757181644
1772525821620664800,3.794664794921875,0.0501104770809412,-0.005100391878932714,-0.015898118616640568
1772525821630647800,3.804647705078125,0.015262451061606406,0.023437428080290555,0.02379208673685789
1772525821640630800,3.814630859375,0.005517886638641357,0.04638590359985828,0.041784255023300645
1772525821650614800,3.82461474609375,-0.0003489595681428909,0.05291910476088524,0.04578822996765375
1772525821660597800,3.83459765625,-0.017540917387604712,0.06766790721192956,0.04695727374702692
1772525821670580700,3.844580810546875,-0.0011906710892915725,0.05197495577856898,0.033707916073501105
1772525821680565000,3.85456494140625,-0.011992051088809966,0.031147417935729026,0.033440789569914336
1772525821690547700,3.864547607421875,-0.031017069554328917,0.017853344337642192,0.027862697176635264
1772525821700530700,3.87453076171875,-0.049418987685441965,0.025988719998300075,0.009158288967609405
1772525821710514000,3.884513916015625,-0.0889233150780201,0.01745265458226204,0.003395779918134212
1772525821720498000,3.894497802734375,-0.09326163654327392,0.014617723417282104,0.016030220563709736
1772525821730481000,3.90448095703125,-0.07025134783387184,0.022853052321076393,-0.00526157379001379
1772525821740464600,3.914464599609375,-0.02386485971212387,0.018458470623940227,-0.014772037196159361
1772525821750447900,3.92444775390625,0.025656419304013252,0.0024169980138540265,0.005818915411829948
1772525821760430800,3.934430908203125,0.06248655905127525,-0.0244233703777194,0.017316753242909908
1772525821770413800,3.944413818359375,0.07303016489744187,-0.028533289914578198,0.023542203629016874
1772525821780397800,3.954397705078125,0.09297171368598937,-0.020336101064085958,0.025631284862756728
1772525821790380800,3.964380859375,0.10250760379433631,-0.03548676231428981,0.007506137846410274
1772525821800363800,3.97436376953125,0.06927227366864681,-0.048398996987938876,0.00893763195425272
1772525821810347800,3.98434765625,0.03331365605890751,-0.029976182199269532,0.01394435420036316
1772525821820330800,3.994330810546875,0.016247954967617988,0.005832797806710004,0.007410568517446517
1772525821830312700,4.004312744140625,0.04746259292066097,0.031503684027493,0.00810235017389059
1772525821840295700,4.014295654296875,0.09765548758804797,0.007196048983931541,0.018849077376723287
1772525821850279000,4.02427880859375,0.13455927709341048,-0.024859423707425592,-0.002154255424439907
1772525821860263000,4.034262939453125,0.11782909156680106,-0.025009207441657782,-0.024827859525382516
1772525821870245600,4.04424560546875,0.10536357774734496,-0.005835574285686016,-0.05947422549277544
1772525821880228900,4.054228759765625,0.0853150614529848,-0.002131166809797287,-0.08112024011164903
1772525821890212900,4.064212890625,0.07865735712945461,0.0027503216214478012,-0.09175444685071706
1772525821900195800,4.07419580078125,0.1038935051947832,0.022463468481600284,-0.07870207305401564
1772525821910178800,4.0841787109375,0.13724983135163782,0.03416749640926719,-0.04277209701687097
1772525821920162800,4.094162841796875,0.17908114038705825,0.04818257775828242,0.00045505029112100597
1772525821930145800,4.104145751953125,0.18563947598934172,0.05896101527363062,0.01916705728471279
1772525821940128800,4.114128662109375,0.1779851618438959,0.07243278352618217,0.02543634681254625
1772525821950112800,4.12411279296875,0.15403671550154685,0.042148266030102965,0.03560702769309282
1772525821960096000,4.134095947265625,0.12940496307015417,0.023150720093399284,0.030195816299319264
1772525821970078700,4.14407861328125,0.10667816747725009,0.01407236449420452,-0.0066597501501441
1772525821980062700,4.154062744140625,0.08426935179233551,0.013296996207535267,-0.03450082001686096
1772525821990045700,4.164045654296875,0.0709714788019657,-0.0007500877149403095,-0.030653789199888704
1772525822000029000,4.17402880859375,-0.020512626674771307,-0.037981940130889416,0.026678748089075086
1772525822010013000,4.184012939453125,-0.1578828695356846,-0.04081701742634177,0.07762392242848873
1772525822019995600,4.19399560546875,-0.1720586944043636,0.08047785055488348,0.054742520795762535
1772525822029979000,4.203978759765625,-0.1521487097978592,0.09111658733859658,0.0966349123686552
1772525822039963000,4.213962890625,-0.1311556061297655,0.032867958118021484,0.12951134605407713
1772525822049945900,4.22394580078125,-0.10293781190514564,0.017594693401455877,0.09118746061772108
1772525822059928800,4.2339287109375,-0.0989747534930706,0.02744417950361967,0.052180269092321395
1772525822069912800,4.243912841796875,-0.12835691532194612,0.011383856062591076,0.031174305942654607
1772525822079895800,4.253895751953125,-0.132588853803277,0.003720774088799953,0.01111526825428009
1772525822089878800,4.263878662109375,-0.1354261230558157,0.012777356247603892,0.006043079556524753
1772525822099862800,4.27386279296875,-0.11826163776516914,0.004546703518927097,0.004560439783334732
1772525822109845800,4.283845703125,-0.07478957578539848,0.0047306817837059496,-0.0018169862940907477
1772525822119828700,4.293828857421875,-0.04080664216279983,0.010247399378567933,0.014151567210257053
1772525822129812700,4.303812744140625,-0.020972060880064963,0.005802110407501459,0.030911271092295644
1772525822139795700,4.313795654296875,0.03999123412668705,0.02975041061937809,0.029114158542454242
1772525822149779000,4.323779052734375,0.08114449777007103,0.010704349365830422,0.03289016994982958
1772525822159763000,4.333762939453125,0.09343056336939334,-0.017172668597102165,-0.0025546529188752174
1772525822169745200,4.3437451171875,0.09501929386556147,-0.019732874473929404,-0.0633800007596612
1772525822179728400,4.353728271484375,0.10246318013072013,-0.018450725708901883,-0.10115706596821546
1772525822189712400,4.36371240234375,0.11276947008967399,-0.034725130292028186,-0.10441694454699754
1772525822199695000,4.373695068359375,0.15507248829007148,-0.02900821394994855,-0.116594581335783
1772525822209680100,4.38368017578125,0.18647183516025542,0.0008444880001246929,-0.07667202853113413
1772525822219663000,4.3936630859375,0.18422727110385895,0.006185118375718593,-0.04084638965129852
1772525822229647000,4.403647216796875,0.18173779237568377,0.034023411763459445,-0.04684533780515194
1772525822239630300,4.41363037109375,0.16355623899698257,0.03735124101191759,-0.04992138424962759
1772525822249613300,4.42361328125,0.14304244327843188,0.023197043453156947,-0.06447597930282353
1772525822259597000,4.43359716796875,0.10315350048243999,-0.0028312779031693935,-0.07175766074359416
1772525822269580000,4.443580078125,0.06753273652493953,-0.011184972489625215,-0.0838756762996316
1772525822279563300,4.453563232421875,0.07479366743862628,0.01704027438908815,-0.05821779569089412
1772525822289547300,4.46354736328125,0.08118249169290065,-0.0004682020336389541,-0.0018345219507813453
1772525822299530200,4.4735302734375,0.0462456183463335,0.018534458469599484,0.05731441711038351
1772525822309513200,4.48351318359375,0.019847440764307975,0.04875526307970285,0.10223989276885986
1772525822319497200,4.493497314453125,-0.0012929624199867248,0.04747603692412376,0.09918956528753041
1772525822329480200,4.503480224609375,-0.0015823007553815841,0.030865386123955247,0.07573854707330464
1772525822339463200,4.513463134765625,-0.004487959069013595,0.017426643358170985,0.0687301296159625
1772525822349447200,4.523447265625,-0.011933598899841307,-0.0025284955643117427,0.05489449648708105
1772525822359430100,4.53343017578125,-0.007710428246855736,-0.00047141690403223037,0.023677228185534475
1772525822369413000,4.5434130859375,-0.011284195080399512,0.00944192821457982,0.05152677361965179
1772525822379397000,4.553397216796875,-0.01602349856197834,0.011961802081018685,0.0737844903960824
1772525822389380000,4.563380126953125,0.018784195446968077,0.02610650115907192,0.08723141646832228
1772525822399363300,4.57336328125,0.054151861426234245,0.02063888340294361,0.1224482758000493
1772525822409347300,4.583347412109375,0.05814122332334518,0.005950286706537008,0.11855828262418508
1772525822419330000,4.593330078125,0.04398410315513611,0.022812428049743174,0.07774404167681932
1772525822429313300,4.603313232421875,0.04207096301019191,0.04040697532072663,0.027737317231297492
1772525822439297300,4.61329736328125,0.04298983142077922,0.04768646480441093,0.00022796353697776794
1772525822449280300,4.6232802734375,0.0844523071438074,0.05720584216937422,-0.01939794343113899
1772525822459263000,4.633262939453125,0.14005027572512627,0.0655646513223648,-0.03245645470768213
1772525822469247000,4.6432470703125,0.17517536512017248,0.035038287894427776,-0.008002981452643871
1772525822479230200,4.653230224609375,0.14521978731751442,0.03114610276147723,-0.005524024118483066
1772525822489213200,4.663213134765625,0.14204934058785437,0.04833922962471843,-0.027286066332459447
1772525822499197200,4.673197265625,0.105061379930377,0.02820259665548801,-0.04216799364387989
1772525822509180200,4.68318017578125,0.06616963147819042,0.023062749549001452,-0.07013385893404483
1772525822519163100,4.6931630859375,0.03911854294538498,0.02292114912122488,-0.08480945001840591
1772525822529147100,4.703147216796875,0.03785714470744133,0.01163023203909397,-0.0724383364841342
1772525822539130000,4.713130126953125,0.05789104795455932,-0.01435907248109579,-0.03836772457808256
1772525822549113300,4.72311328125,0.0950403366535902,-0.008620967220515013,-0.01553980669826269
1772525822559097300,4.733097412109375,0.0960597428292036,-0.021875439460575578,0.009081132078170776
1772525822569080000,4.743080078125,0.028708792611956593,-0.04304989104494452,0.017147826416790485
1772525822579063300,4.753063232421875,-0.030710780084133145,-0.033045214381068944,0.011048048236966132
1772525822589047300,4.76304736328125,-0.06386778427660465,-0.0038099136769771573,-0.010260112729668617
1772525822599030300,4.7730302734375,-0.06356792454719543,-0.006916501390188932,-0.010568155765533447
1772525822609013000,4.783012939453125,-0.036866380104422565,-0.01764364710971713,-0.00008884732723236084
1772525822618997000,4.7929970703125,-0.00412438645362854,-0.038976504126191136,0.00876285990923643
1772525822628980200,4.802980224609375,0.023180969101190566,-0.03765416948124766,0.023149697180092334
1772525822638963200,4.812963134765625,0.050906595894694325,-0.014571400057524442,0.03320201237797737
1772525822648947200,4.822947265625,0.04379062640964985,-0.021956688003242016,0.050477264566719526
1772525822658930200,4.83293017578125,0.020326164191961288,-0.004986117849498987,0.04471241742968559
1772525822668913200,4.8429130859375,0.01444528945982456,0.011320727698504925,0.013593641066551207
1772525822678897200,4.852897216796875,0.01610708519220352,0.017398001785576343,-0.006501929239928722
1772525822688880000,4.862880126953125,0.057928457355499265,0.02426964112073183,-0.021123159788548944
1772525822698863400,4.87286328125,0.10339841515421867,0.006268997266888618,-0.020149638581275938
1772525822708847400,4.882847412109375,0.11491934159994124,-0.0006586100392043591,-0.01709142005443573
1772525822718830000,4.892830078125,0.07710311342477798,0.01689969687461853,-0.011283318297564982
1772525822728813000,4.90281298828125,0.01987082163989544,0.026683278133720158,0.010307166741788387
1772525822738797300,4.91279736328125,-0.037221184891462325,0.018184037596732375,0.023373569063842296
1772525822748780300,4.9227802734375,-0.0556786326020956,0.03706920920014381,0.008684241715073584
1772525822758763000,4.932762939453125,-0.04014204077422619,0.04864230422452092,-0.0029962592065334317
1772525822768747000,4.9427470703125,0.00348258141875267,0.034114451047778126,0.01228635786026716
1772525822778730200,4.952730224609375,0.0855769272595644,0.01707826831191778,0.003944353711605072
1772525822788713200,4.962713134765625,0.13037702297270298,0.0018146482065320014,-0.007146072362363338
1772525822798696200,4.9726962890625,0.15090835434794425,0.005526800597459077,-0.024535890841484068
1772525822808680200,4.98268017578125,0.15099603263139724,0.00870952228680253,-0.02343962003737688
1772525822818663200,4.9926630859375,0.09264730403721332,0.024775252555310726,-0.022784078738093374
1772525822828646100,5.002646240234375,0.041027591437101364,0.038702363359928126,-0.017787293364107608
1772525822838630100,5.012630126953125,0.0033095629394054413,0.0513945255421102,-0.023873627540469167
1772525822848613400,5.02261328125,0.013211948272585868,0.06406710624098777,-0.013881225836277006
1772525822858596000,5.03259619140625,0.01918751555085182,0.047203941984474654,0.023267478340864182
1772525822868580000,5.042580078125,0.024596096596121785,0.042227176485210655,0.06096826344281435
1772525822878563000,5.05256298828125,0.03363981927335262,0.07170198503360152,0.08488865273445845
1772525822888546300,5.06254638671875,0.010673954227566718,0.041731648053228855,0.08527619074732065
1772525822898530300,5.0725302734375,-0.012732640323042868,0.02524345458894968,0.08235738069117068
1772525822908513000,5.082512939453125,-0.00464110380411148,0.030339462553709742,0.04144464780539274
1772525822918496300,5.092496337890625,0.01620294678211212,0.02302782436609268,0.010732406416535377
1772525822928480300,5.102480224609375,0.04541267465353012,0.0010305120915174483,0.00583148263245821
1772525822938463200,5.112463134765625,0.04565642028152942,-0.018787410317361353,0.005666062937676906
1772525822948446200,5.1224462890625,0.05777589714229107,-0.020804595358669756,-0.02665770530104637
1772525822958430200,5.13243017578125,0.0632861849963665,-0.020147885015606878,-0.023215748153626918
1772525822968413200,5.1424130859375,0.0701046328395605,-0.023508739750832317,0.026023499050736427
1772525822978396200,5.152396240234375,0.05149930109083652,-0.028465777636319398,0.034926644213497636
1772525822988380200,5.162380126953125,0.033902854123711586,-0.022871903152018785,0.029618600933253764
1772525822998363100,5.172363037109375,0.022636779221892354,-0.009584259294718503,0.01127688855677843
1772525823008346000,5.18234619140625,0.022998598271608352,-0.009814414788782595,-0.005906009173393249
1772525823018330000,5.192330078125,0.04377250623106956,-0.017102379839867354,-0.018620821578800677
1772525823028313000,5.20231298828125,0.09041969111561775,-0.013621113595366477,-0.0368017904356122
1772525823038296300,5.21229638671875,0.09020341801643371,-0.030273119319230317,-0.02850333316773176
1772525823048280300,5.2222802734375,0.08317045063972472,-0.028657500816136598,-0.05324409893155098
1772525823058263000,5.232262939453125,0.08947393469810486,-0.0022873802848160265,-0.0861710937604308
1772525823068246000,5.24224609375,0.09784136554896831,0.006012099896371364,-0.08560001587420701
1772525823078230000,5.25222998046875,0.10188041180670261,-0.009217179547995329,-0.09097381786704063
1772525823088213200,5.262213134765625,0.10245382778048515,-0.006569149257242679,-0.08301876720935106
1772525823098196200,5.2721962890625,0.07568798592984675,-0.020888766510784626,-0.07138064412474632
1772525823108180200,5.28218017578125,0.05453764587342739,-0.021625410222262144,-0.06499065082669257
1772525823118163200,5.2921630859375,0.04217676147222519,-0.0017760697618126868,-0.027871757265925407
1772525823128146200,5.302146240234375,0.02265314583480358,0.0011990005262196063,-0.013421791630983351
1772525823138130200,5.312130126953125,0.006569441518187523,0.012403262238204479,0.0041410453274846075
1772525823148113200,5.322113037109375,-0.0008469722181558609,0.016767741058021784,0.023201427367329597
1772525823158096100,5.33209619140625,0.0018090952485799788,0.01467500656247139,0.02844195836931467
1772525823168081000,5.342080810546875,-0.003596563187241554,0.01024886068329215,0.042779695801436896
1772525823178064000,5.35206396484375,0.003494856378436088,-0.000019289222359657286,0.043992286461591715
1772525823188046600,5.362046630859375,0.002620411631464958,-0.0022287819653749466,0.027538872049748895
1772525823198030600,5.372030517578125,0.00011690437793731689,0.010169219575822354,0.03499298744797706
1772525823208013800,5.382013916015625,0.002622165197134018,0.018742256001383066,0.02834785034507513
1772525823217996800,5.391996826171875,0.004085808008909226,0.027774872762709853,0.04876724577844142
1772525823227980800,5.401980712890625,0.005558218649029731,0.038109365902841086,0.06306055954694748
1772525823237964000,5.411964111328125,0.037862405404448504,0.05573036278933286,0.07520166371762751
1772525823247946800,5.42194677734375,0.04101531647741794,0.057903030653297896,0.08444733870774507
1772525823257930800,5.4319306640625,0.055843467774987214,0.0516004233777523,0.09506079491972923
1772525823267913700,5.441913818359375,0.06830430541932582,0.05228299881443381,0.10147855300754308
1772525823277897000,5.45189697265625,0.04324760557413101,0.039697073485702276,0.06821575035303831
1772525823287881000,5.461880859375,0.01736146916747093,0.040742198624461885,0.013500409825146198
1772525823297863700,5.47186376953125,0.0023556232154369355,0.04291691231504082,-0.02373246550410986
1772525823307847000,5.481846923828125,0.01606266152858734,0.0620703794658184,-0.03906476693153381
1772525823317831000,5.491830810546875,0.02718845117688179,0.06142798990905284,-0.032060733388364314
1772525823327814000,5.50181396484375,0.03770049284100532,0.033419308390468354,-0.00999766240119934
1772525823337796600,5.511796630859375,0.02564823599755764,0.02222162254974246,0.02972381487339735
1772525823347780600,5.521780517578125,0.018218962779641152,0.02736614583134651,0.04689180729538202
1772525823357763800,5.531763916015625,0.03099778033196926,0.04995777073726058,0.05780863036811351
1772525823367746800,5.541746826171875,0.07550035440325736,0.04448752263262867,0.08235153547227382
1772525823377730800,5.551730712890625,0.09398352107703685,0.018665975894778968,0.0744049603819847
1772525823387713800,5.5617138671875,0.10810849254131316,0.006401975996792316,0.023233283810317515
1772525823397696800,5.57169677734375,0.12418167546391487,0.011675678616017102,-0.022016309235990045
1772525823407680800,5.5816806640625,0.12935294062197208,-0.014211626834422349,-0.06242050807774067
1772525823417663700,5.591663818359375,0.11377367869615554,-0.023667583574354646,-0.08278115906119346
1772525823427647000,5.60164697265625,0.09669745621085167,-0.015157675512880086,-0.09493512271344662
1772525823437631000,5.611630859375,0.10173135872483254,0.003336889337748289,-0.06738163761645555
1772525823447613700,5.62161376953125,0.09678221188485622,0.004718699084967374,-0.02271189028471708
1772525823457596700,5.6315966796875,0.08656827638447284,0.000154021517932415,-0.00959814168959856
1772525823467580700,5.64158056640625,0.04354162008464336,0.013536650182306766,0.011997019524872303
1772525823477564000,5.65156396484375,-0.009297989699244499,-0.00011354337707161903,0.0027928455889225006
1772525823487547000,5.661546875,-0.041644846552610394,0.011318974132835865,-0.022834055359661577
1772525823497530600,5.671530517578125,-0.04071779483556747,0.016880846043676137,-0.0417339861407876
1772525823507513900,5.681513916015625,-0.02506780576109886,-0.0016490823812782764,-0.04556961878091097
1772525823517496800,5.691496826171875,-0.004944470664858818,-0.008849515279382467,-0.041027591437101364
1772525823527480800,5.701480712890625,0.03458908282220363,0.0018118717275559901,-0.03455138116031885
1772525823537463800,5.7114638671875,0.05377776741683483,0.002278174065053463,-0.009568331073224544
1772525823547446800,5.72144677734375,0.05479366646111011,-0.030489976940304038,0.010843465575575828
1772525823557430800,5.7314306640625,0.04678805465996265,-0.02321165650039911,0.011498130092024803
1772525823567413800,5.741413818359375,0.040166006171703336,0.0011335340745747089,0.028438158977031707
1772525823577397000,5.75139697265625,0.018703531426191328,-0.021153262665867804,0.024383038367331026
1772525823587381000,5.761381103515625,0.01046820252239704,-0.0319067118704319,0.022591771036386488
1772525823597363700,5.77136376953125,0.0103828623265028,-0.01607508261874318,0.010693535710871218
1772525823607346700,5.7813466796875,0.004627659800648689,-0.016372019738703964,0.016563012266159055
1772525823617330000,5.791329833984375,0.0011450783818960188,-0.012998013260960579,0.02541150463223457
1772525823627314000,5.80131396484375,0.021370120286941525,0.02076411721780896,0.03163987762778997
1772525823637297000,5.811296875,0.02612169872820377,0.006965016707032918,0.037974049085378644
1772525823647279600,5.821279541015625,0.048853170496225354,-0.00022591771036386488,0.019906185214221477
1772525823657263900,5.831263916015625,0.06915770737826823,0.02325067333653569,-0.019792495706677436
1772525823667246800,5.841246826171875,0.08371990121603011,0.009818798702955246,-0.0344835766211152
1772525823677229800,5.851229736328125,0.09190963741242886,-0.0009423954166471958,-0.046347032894194125
1772525823687213800,5.8612138671875,0.09885960268080234,0.017930062835663556,-0.0478860790297389
1772525823697196800,5.87119677734375,0.10671206974685192,0.034157559537142515,-0.030064298874139785
1772525823707179800,5.8811796875,0.10253098466992377,0.027331659039855002,0.0014364625439047814
1772525823717163800,5.891163818359375,0.10293781190514564,0.021782646610587833,-0.017975217151641843
1772525823727146800,5.901146728515625,0.0834983674198389,0.014298866726458071,-0.015148469293117523
1772525823737129700,5.911129638671875,0.03532324231564998,0.002425035189837217,-0.008192951066792012
1772525823747113700,5.92111376953125,0.028863106390833854,0.022577011858671902,-0.05920388411879539
1772525823757096700,5.9310966796875,0.06298281813561916,0.03278203340023756,-0.03960924907177686
1772525823767080000,5.941079833984375,0.07080079841017722,0.016007716470956803,0.009133154526352882
1772525823777064000,5.95106396484375,0.06174480077326298,0.008528758892416954,0.03607698329240083
1772525823787047000,5.961046875,0.05855389577746391,0.020584230606257914,0.01898497871607542
1772525823797029600,5.971029541015625,0.04015314669013023,0.010001607923954724,0.033112288267910475
1772525823807013600,5.981013671875,0.01231996786892414,-0.006593845307081937,0.03050882777124643
1772525823816996900,5.990996826171875,-0.02981178541779518,-0.020251345390081405,0.019209142860770224
1772525823826979800,6.000979736328125,-0.10031506218612193,-0.012415098806470631,-0.011251461854577064
1772525823836963800,6.0109638671875,-0.09408522788584232,0.025505028134584426,-0.022077391773462293
1772525823846946800,6.02094677734375,-0.0488905798971653,0.02798398546874523,0.012421966938674448
1772525823856929800,6.0309296875,-0.0009492635488510131,0.02410816694870591,0.06400660822540521
1772525823866913800,6.040913818359375,0.020253098955750466,0.027071985190361737,0.07105331186652183
1772525823876896800,6.050896728515625,-0.0005506196200847625,0.03754720197543502,0.0581163811430335
1772525823886880000,6.0608798828125,-0.017011340555548666,0.04716419449597597,0.03783113348335027
1772525823896863700,6.07086376953125,-0.01794306844770908,0.04443023948743939,0.01369067170023918
1772525823906846700,6.0808466796875,-0.012236965760588645,0.03135404642373323,0.004727613043785095
1772525823916830000,6.090829833984375,0.01810439648926258,0.030801527107506988,0.0031646015107631683
1772525823926814000,6.10081396484375,0.0398579631358385,0.018027531860768792,0.006254384219646454
1772525823936797000,6.110796875,0.07630757913291454,0.009429214863479137,-0.002825578814744949
1772525823946779600,6.120779541015625,0.09796469966769218,-0.000341068522632122,-0.031366613644361496
1772525823956763600,6.130763671875,0.10648352168798446,-0.014102175110578536,-0.05226648607105017
1772525823966747000,6.140746826171875,0.12289689635038376,-0.0036083997555077076,-0.04775865325778723
1772525823976729900,6.150729736328125,0.10843524027764796,-0.01402808696106076,-0.026168168218433856
1772525823986713900,6.1607138671875,0.09642273092269897,-0.011140987217426299,-0.007462006443738937
1772525823996696800,6.17069677734375,0.05964753623306751,-0.002231850705295801,0.012254793678224086
1772525824006679800,6.1806796875,0.025831191349029538,0.017555676565319298,0.026052432884275913
1772525824016663800,6.190663818359375,0.02194119817316532,0.01946808605790138,0.02589081258177757
1772525824026646800,6.200646728515625,0.016671148815751075,0.022672142796218393,0.01026654247045517
1772525824036630000,6.210630126953125,0.027318799558281898,0.02172813994437456,-0.0007537409767508506
1772525824046613800,6.22061376953125,0.071263739746809,0.015880290699005126,-0.024024434188008308
1772525824056596700,6.2305966796875,0.12067571316957473,0.008652093011140822,-0.029415479576587675
1772525824066579700,6.240579833984375,0.13976152191162108,-0.01858823448345065,-0.023504794228076935
1772525824076563700,6.250563720703125,0.13181143968999384,-0.020796704313158988,-0.023531389974057675
1772525824086547000,6.260546875,0.10308452689945698,0.0024440321512520314,-0.040679800912737846
1772525824096529700,6.27052978515625,0.06193944656252861,0.018394903868436813,-0.04291033644378185
1772525824106513700,6.280513671875,0.003295534414052963,0.01608823436126113,-0.021686931151151657
1772525824116497000,6.290496826171875,-0.06067921736836433,0.048802317091822624,-0.018327976112067698
1772525824126480000,6.30047998046875,-0.09077624946832656,0.047472675923258066,-0.01007218894213438
1772525824136464000,6.3104638671875,-0.08452771046757697,0.05146992886587977,0.010384615892171859
1772525824146446600,6.320446533203125,-0.05975625730454921,0.03806275028213858,0.05403174217790365
1772525824156429800,6.330429931640625,-0.0174544081479311,0.011682108356803654,0.05656739813536405
1772525824166412800,6.340412841796875,0.035116321566700935,0.006103869833052158,0.04260492375642061
1772525824176396800,6.350396728515625,0.053016719916462896,-0.009628098436444998,0.018593933571875096
1772525824186380000,6.360380126953125,0.07136778464317321,-0.017769319315999746,0.01496551394164562
1772525824196363000,6.370363037109375,0.0595563508182764,-0.020998802756518123,-0.004678220944106579
1772525824206347000,6.380346923828125,0.06370937884449958,-0.010520224970579146,-0.01736848343014717
1772525824216329700,6.390329833984375,0.06315583661496639,-0.005633475842326879,-0.007847498629987239
1772525824226313000,6.40031298828125,0.05176642759442329,-0.010925152509659529,0.0031011808857321736
1772525824236297000,6.410296875,0.05897475153803825,-0.00442804557532072,0.012579495587944984
1772525824246280000,6.420280029296875,0.03850771757066249,-0.004262625880539417,0.017388649435341356
1772525824256263000,6.430262939453125,0.009233692291378975,-0.003063917615264654,0.03199555919766426
1772525824266247000,6.440246826171875,0.02182137118577957,0.006040303077548742,0.02078793648481369
1772525824276230000,6.45022998046875,0.04312134884595871,0.007732932339608669,0.01986205381155014
1772525824286212900,6.460212890625,0.07322656425237656,-0.0010601765774190426,-0.0016439678147435188
1772525824296196900,6.47019677734375,0.13081716795563697,0.011989274609833955,-0.025665771654248236
1772525824306180000,6.48018017578125,0.1719850446462631,0.010061959809064864,-0.024701310536265373
1772525824316162800,6.490162841796875,0.1737456245779991,-0.00928133082538843,-0.015482815814018249
1772525824326146800,6.500146728515625,0.15791384919583795,0.003360562474280596,-0.034874914026260376
1772525824336129800,6.5101298828125,0.10327917268872261,0.015547113221883773,-0.06356617098152637
1772525824346113000,6.520113037109375,0.05384557195603847,0.01610781584456563,-0.065198740619421
1772525824356097000,6.530096923828125,0.03282967193424702,0.014976473727077244,-0.04179448415637016
1772525824366080000,6.540080078125,0.024925182420015332,0.01331964643076062,-0.02797141824811697
1772525824376063000,6.55006298828125,0.04105681753158569,0.013851999741792678,0.00549596706777811
1772525824386047000,6.560046875,0.03888298062384128,0.013139029166847466,0.025474925257265565
1772525824396030000,6.570030029296875,0.0628939708083868,0.0187931094057858,0.02133329540789127
1772525824406013000,6.580012939453125,0.05827215622663497,0.005467471625655889,0.017998598027229307
1772525824415997000,6.589996826171875,0.032357378247380254,-0.0016264321580529211,0.016975684720277787
1772525824425980000,6.59997998046875,0.008870119675993918,0.007316752754151821,0.015366203697025776
1772525824435963000,6.609962890625,-0.011744213807582855,0.019688889201730488,0.008806114529073239
1772525824445947000,6.61994677734375,-0.02397474982738495,0.02741656084433198,0.022727087853848933
1772525824455930000,6.62993017578125,-0.01727437540590763,0.024000322660058734,0.04989946467876434
1772525824465912800,6.639912841796875,-0.006194762986898422,0.018590426440536975,0.0625605010703206
1772525824475896800,6.649896728515625,-0.01710194144845009,0.02070098885372281,0.04459580531269312
1772525824485879800,6.6598798828125,-0.02523380997776985,0.025494506740570067,0.03114624889194965
1772525824495863000,6.669863037109375,-0.027545594051480292,0.004569646003097295,0.020373802725970745
1772525824505847000,6.679846923828125,-0.01016015948653221,-0.016631255196779965,0.005314180760085582
1772525824515830000,6.689830078125,0.012303601256012917,0.0039214112274348735,-0.004380699302256107
1772525824525813000,6.69981298828125,0.02602291452884674,0.028449557153880596,-0.0000716039314866066
1772525824535797000,6.709796875,0.05497545276880264,0.05788432595282793,0.01104775597602129
1772525824545780000,6.719780029296875,0.08085925108790397,0.0558015283294022,0.034949440567195414
1772525824555763000,6.729762939453125,0.10427987416386604,0.06525251663327217,0.047044075247645374
1772525824565747000,6.739746826171875,0.11576748286187648,0.061745823686569924,0.05496902302801609
1772525824575730000,6.74972998046875,0.12259469853341579,0.04755684707537293,0.038249358895421026
1772525824585713000,6.759712890625,0.10080372248589992,0.02579217451289296,0.0049468087524175645
1772525824595697000,6.76969677734375,0.06974164474606513,0.0026505145087838172,-0.02914864533394575
1772525824605679900,6.779679931640625,0.04991173963844776,0.0022295126177370546,-0.05276099158972501
1772525824615662800,6.789662841796875,0.05185878205299377,0.01340834762752056,-0.038297289690375325
1772525824625646800,6.799646728515625,0.0609159487336874,0.02152063467353582,-0.02227145304083824
1772525824635629800,6.8096298828125,0.06021919864118099,0.02864420294314623,-0.0011503390789031982
1772525824645613000,6.819613037109375,0.07756605476140975,0.021788930220901965,0.013213994099199771
1772525824655597000,6.82959716796875,0.07823767041265964,0.027350363740324974,0.018518237987160683
1772525824665580000,6.839580078125,0.07753565962314606,0.018976795409619808,0.02166939549446106
1772525824675562800,6.849562744140625,0.055904842573404306,0.009286007000505924,0.004188391600549221
1772525824685546000,6.8595458984375,0.06272445946037769,0.0005322071805596351,-0.010638006131350993
1772525824695530000,6.869530029296875,0.03278466374874115,-0.007203501638025045,0.011085749898850918
1772525824705513000,6.879512939453125,0.02871463783085346,-0.00441825483366847,0.015135317550599573
1772525824715496000,6.889495849609375,0.011035188755393027,0.010064882418513298,0.027179975609481332
1772525824725480000,6.89947998046875,-0.00879646991789341,0.0248527017056942,0.026323358780145644
1772525824735463000,6.909462890625,-0.002557283267378807,0.01261734338030219,0.006381225469708442
1772525824745446000,6.91944580078125,-0.009313771790266037,0.000384030881524086,-0.013733926320075989
1772525824755430000,6.929429931640625,-0.028806407767534254,-0.0024852409444749354,-0.035307167963683606
1772525824765413000,6.9394130859375,-0.0015028057783842085,-0.001946165631711483,-0.05718699133843183
1772525824775395800,6.949395751953125,0.023511808490753173,-0.006657850454002618,-0.05281681343019008
1772525824785379800,6.9593798828125,0.021503975799679755,-0.009865852715075016,-0.020579846692085266
1772525824795363000,6.969363037109375,0.01780979745686054,0.023180092318356035,-0.009105097475647925
1772525824805346000,6.979345947265625,0.015908347749710082,0.04585618063732982,0.009893325243890284
1772525824815330000,6.989330078125,-0.019491466933488844,0.04219385873749852,0.009258534471690654
1772525824825312800,6.999312744140625,0.006890344035625457,0.02299304531365633,-0.006660042411088943
1772525824835296000,7.0092958984375,0.0275321500480175,0.00018543956950306891,-0.018849954159557817
1772525824845280000,7.019280029296875,0.055882046219706535,-0.029857378125190733,-0.033227146819233895
1772525824855263000,7.029262939453125,0.0953624082148075,-0.03094371205717325,-0.05076455707550048
1772525824865245700,7.03924560546875,0.12375438996255397,-0.033814883579313754,-0.03926467341780662
1772525824875230000,7.04922998046875,0.1435299345344305,-0.033988340450078244,-0.026982114949822424
1772525824885213000,7.059212890625,0.15686346336007118,-0.02261851291283965,-0.005010813899338245
1772525824895196000,7.06919580078125,0.1547369727253914,-0.0027589433193206787,0.012665712566673756
1772525824905180000,7.079179931640625,0.09050386226773262,-0.01036678797453642,0.020770400828123092
1772525824915163100,7.0891630859375,0.05758651205003261,0.013542641531676053,-0.015570494097471237
1772525824925145900,7.099145751953125,0.04019698583185673,0.02582856100052595,-0.03345861748754978
1772525824935129900,7.1091298828125,0.038078093981742854,0.0019987726017832753,-0.007064823819696903
1772525824945112800,7.11911279296875,0.027818565773963928,-0.01356280753687024,0.009887772285938262
1772525824955096000,7.129095947265625,0.026883915272355077,-0.001187602349370718,0.023631635478138922
1772525824965080000,7.139080078125,0.017909166178107262,0.018002689680457113,-0.0021326281145215035
1772525824975062800,7.149062744140625,0.012782909205555915,0.022315730573982,0.06082973175495863
1772525824985046000,7.1590458984375,-0.0027729718446731564,0.024933365726470945,0.03348696679919958
1772525824995030000,7.169030029296875,0.01633621777296066,0.029768092406541106,0.007525134807825088
1772525825005013000,7.179012939453125,0.03041384296417236,0.017293664628267286,0.012038228318095206
1772525825014995700,7.18899560546875,0.018202596166729926,-0.014525515089184045,0.03607347616106271
1772525825024979700,7.198979736328125,-0.0033908114820718764,0.02463730538934469,0.041831309035420414
1772525825034963000,7.208962890625,0.005302782583236694,0.04654284772723913,-0.06248918939977884
1772525825044946000,7.21894580078125,0.004757423660159111,0.006845920372009277,0.016144786854088305
1772525825054930000,7.228929931640625,0.03907236571609974,0.014520254392176865,0.03255465438514948
1772525825064913200,7.2389130859375,0.025316812086105346,0.021746260122954844,0.046456046226620674
1772525825074896000,7.248895751953125,0.03777063546776771,0.0430652347445488,0.0396729619577527
1772525825084878800,7.25887890625,0.060113984701037404,0.058723845516890284,0.04471446325629949
1772525825094862800,7.26886279296875,0.05231821625828743,0.03246040023043752,0.05005436297953129
1772525825104846000,7.27884619140625,0.05345043515861034,0.04332929250821471,0.010744681376218795
1772525825114828800,7.288828857421875,0.07720949640870094,0.04134542521461844,-0.004679682248830795
1772525825124812800,7.298812744140625,0.07303016489744187,0.0009819967746734618,-0.032357670508325095
1772525825134796000,7.308796142578125,0.09618775312304496,-0.01673632300645113,-0.045130642841756344
1772525825144779000,7.318779052734375,0.0727495943903923,-0.03142667326852679,-0.014149229122698306
1772525825154763000,7.328762939453125,0.019101006311178205,-0.0470645335137844,-0.021758827343583104
1772525825164746000,7.33874609375,-0.07240005030035972,-0.016410890444368123,-0.024899755717813967
1772525825174729200,7.348729248046875,-0.1247854865759611,0.04011588341966271,-0.030059622699022293
1772525825184713200,7.358713134765625,-0.04950958857834339,0.0854959709778428,0.00981558383256197
1772525825194696200,7.3686962890625,0.10786007073819637,0.08094356837049126,0.017635025411844252
1772525825204679200,7.37867919921875,0.25623510721623893,0.06443900829330086,0.03531681257486343
1772525825214663200,7.3886630859375,0.23439210872054098,-0.03496668396294117,0.04592530035078525
1772525825224646100,7.398646240234375,0.1757896976262331,-0.04889642511606216,-0.03891746741533279
1772525825234629000,7.408629150390625,0.10405366419255734,-0.017623188843578098,-0.058519116725027555
1772525825244613000,7.418613037109375,0.05166939696073532,-0.0016655951246619225,0.0531537902995944
1772525825254596400,7.428596435546875,0.028125439766049382,0.0326689284145832,0.11640636528730391
1772525825264579300,7.438579345703125,-0.013899930536746978,0.027588410279899833,0.07294482470154762
1772525825274563000,7.44856298828125,-0.04012450511753559,0.023401333853602407,0.002955634935200214
1772525825284546000,7.458546142578125,0.003736848440766334,0.04591287926062941,-0.04109656502008438
1772525825294529300,7.468529296875,0.08146247767806053,0.02866919125393033,-0.054207975527644156
1772525825304513300,7.47851318359375,0.16262743371427058,0.0013075754672288893,-0.07320347563773393
1772525825314496300,7.488496337890625,0.18570435791909692,-0.028550679440796374,-0.07338760003298521
1772525825324479000,7.49847900390625,0.14288169975876808,-0.04767404371425509,-0.044236324350535865
1772525825334463200,7.508463134765625,0.08780220209360122,-0.01116319904923439,-0.020433131697773933
1772525825344446200,7.5184462890625,0.03503624206781387,0.005623246709257364,0.01175795007199049
1772525825354429200,7.52842919921875,-0.00892448021173477,0.014845394693315028,0.000037409400939941404
1772525825364413200,7.5384130859375,-0.023697686451673507,-0.001987082163989544,-0.014978081162273883
1772525825374396200,7.548396240234375,-0.07953706257343292,-0.03467150040864944,-0.020389000295102596
1772525825384379100,7.558379150390625,-0.12656710929572582,-0.021411475210636854,-0.06856207957267761
1772525825394363100,7.568363037109375,-0.12257365574538708,-0.018177023334056137,-0.07062339601665735
1772525825404346000,7.57834619140625,-0.07210954292118549,-0.009006897798180579,-0.024652795219421385
1772525825414329300,7.588329345703125,0.015347206735610961,-0.010020604885369539,0.053934419283270835
1772525825424313000,7.59831298828125,0.07569383114874363,-0.0030408290006220338,0.09864362184256315
1772525825434296000,7.608296142578125,0.10727262623906135,0.026145079603791234,0.10875117435902357
1772525825444279300,7.618279296875,0.10949322489798069,0.043319794027507304,0.0843564455538988
1772525825454262300,7.62826220703125,0.10311083038449287,0.015356559085845947,0.049585284163057804
1772525825464246300,7.638246337890625,0.05896949084103107,-0.004798486322909593,0.01457388427555561
1772525825474229000,7.64822900390625,-0.0073883566856384275,-0.005378916559368372,-0.04315262076705694
1772525825484212200,7.658212158203125,-0.03687923958599567,-0.009761223296821117,-0.08897358396053313
1772525825494196200,7.6681962890625,-0.012546177840232849,0.008915127861499787,-0.09134235891848802
1772525825504179200,7.67817919921875,0.03624094168245792,0.0361178998246789,-0.04698445401489734
1772525825514162200,7.688162109375,0.07312894909679889,0.03773804837241768,-0.0011027005448937415
1772525825524146200,7.698146240234375,0.10570669209659099,0.052878772750496864,0.04220540304481983
1772525825534129200,7.708129150390625,0.10816519116461276,0.06988879813179373,0.05076075768321752
1772525825544112000,7.718112060546875,0.10444003316164016,0.06388517380282283,0.03740384798198938
1772525825554096000,7.72809619140625,0.09685527712106703,0.03432239471003413,0.020710487334430216
1772525825564079400,7.738079345703125,0.045859833899140355,0.012449001076072453,-0.014890110617876052
1772525825574062000,7.74806201171875,0.000824175864458084,0.01569163625910878,-0.04773673368692398
1772525825584046000,7.758046142578125,-0.0025455928295850753,0.03734773388057947,-0.038482875390350814
1772525825594029300,7.768029296875,0.04693535417616367,0.041242695492506025,-0.010216565848886966
1772525825604012300,7.77801220703125,0.10378010794818401,0.03364858710169792,0.040428748761117454
1772525825613996300,7.787996337890625,0.11273498329818248,-0.004212795389443635,0.07629267382472753
1772525825623979000,7.79797900390625,0.06500584839582443,-0.0159206227093935,0.05190495928227901
1772525825633962200,7.807962158203125,0.02368891862332821,0.00017506430596113203,0.032386604341864585
1772525825643946200,7.8179462890625,-0.027064532536268233,0.0002687339387834072,0.03260024709254503
1772525825653929200,7.82792919921875,-0.04648936397433281,-0.0005015197813510895,0.034278409437835215
1772525825663912200,7.837912109375,-0.04441781839728355,0.01957359225898981,0.03579407469779253
1772525825673896200,7.847896240234375,-0.024462825605273245,0.02015796801820397,0.02157821007966995
1772525825683879200,7.857879150390625,0.008017302238941192,0.00631181349530816,0.01051613331735134
1772525825693862100,7.867862060546875,0.03420446741878986,-0.021321458839625117,0.017012217338383196
1772525825703846100,7.87784619140625,0.05400806904137134,-0.04094838872104883,0.00009469254612922667
1772525825713829400,7.887829345703125,0.07374386612474917,-0.0401819343931973,-0.025481647258996962
1772525825723812000,7.89781201171875,0.0776993257522583,-0.03384191771671176,-0.03631692952811718
1772525825733796000,7.907796142578125,0.07248305240869522,-0.04147445842176675,-0.060085635389387604
1772525825743779000,7.917779052734375,0.07961129685342311,-0.0315482538215816,-0.08638415198922157
1772525825753762300,7.92776220703125,0.08278466619253158,-0.020657734233886,-0.07271160046756267
1772525825763746300,7.937746337890625,0.10922200674116611,-0.0011148293741047382,-0.04092968402057886
1772525825773729000,7.94772900390625,0.12296294732391834,0.015868600261211393,-0.03836947814375162
1772525825783712300,7.957712158203125,0.132549690836668,0.009659224227070808,-0.018177753986418247
1772525825793696300,7.9676962890625,0.14458733463287352,0.0123946405403316,-0.009321955096721648
1772525825803679200,7.97767919921875,0.1339841075539589,0.004151128330081701,0.011074351722002029
1772525825813662200,7.987662109375,0.1005389340698719,-0.009898001419007778,-0.004400865307450294
1772525825823646000,7.99764599609375,0.054309097814559934,-0.023287352085113525,-0.05451923343390226
1772525825833627100,8.007627197265625,0.03302373320162296,-0.013748685497790574,-0.06442074198424816
1772525825843610400,8.0176103515625,0.016442016234993934,-0.016737784311175345,-0.045884968340396876
1772525825853594000,8.027593994140625,0.01523614757657051,-0.013794570466130971,-0.02847673742175102
1772525825863577000,8.0375771484375,0.004441781839728355,-0.002054302181303501,-0.007899813339114188
1772525825873560000,8.04756005859375,-0.02492576694190502,0.011528525230288505,-0.00239244809448719
1772525825883544300,8.05754443359375,-0.04419570007920265,0.04273088822364807,0.0393158190831542
1772525825893527300,8.06752734375,-0.041378889092802996,0.06223258429020643,0.08630757962167263
1772525825903510000,8.077510009765625,-0.011125789648294448,0.06904314108788967,0.07810352263897657
1772525825913494000,8.087493896484375,0.07675006220340728,0.05215659595578909,0.0687280837893486
1772525825923477200,8.097477294921875,0.08034487182497978,0.017278320928663014,0.062174424362182616
1772525825933460200,8.107460205078125,0.0030967969715595244,-0.0036199440628290175,0.026676117740571496
1772525825943444200,8.1174443359375,-0.07233224576115607,0.01066620931252837,-0.04782324292659759
1772525825953427200,8.12742724609375,-0.12428455131649971,0.007080605910718441,-0.05601327138394117
1772525825963410200,8.13741015625,-0.15172726951539517,0.009675152448564768,-0.02512099725306034
1772525825973394200,8.147394287109375,-0.1643266388475895,-0.011862141098827123,-0.08301555233895778
1772525825983377200,8.157377197265625,-0.15418927571475505,-0.02512567342817783,-0.014990940643846987
1772525825993360400,8.1673603515625,-0.09883271467387676,0.01385565300360322,-0.05049421570152044
1772525826003344100,8.17734423828125,0.016169629034399984,-0.001054185228049755,0.0199117381721735
1772525826013327000,8.1873271484375,0.10604513027071952,-0.01652326477766037,0.020392799687385558
1772525826023310000,8.19731005859375,0.1316606330424547,-0.017495763071626425,0.01347498312294483
1772525826033293300,8.207293212890624,0.11585691471099853,0.011277473078668117,-0.015623101067543029
1772525826043277300,8.21727734375,0.11834522439539431,0.024561463674157857,-0.016184534342586994
1772525826053260000,8.227260009765626,0.07193710896372794,0.00452478394806385,-0.004851531684398651
1772525826063243300,8.2372431640625,0.046455461704730985,0.010311989047378302,0.037868542884290216
1772525826073227300,8.247227294921874,0.028124855244159697,0.006983575277030468,0.05888356612324714
1772525826083210200,8.257210205078126,0.048344051930308336,0.017038813084363936,0.06008008243143558
1772525826093193200,8.267193115234376,0.09574819266200064,0.024715485192090273,0.05563333215564489
1772525826103177000,8.277177001953126,0.08355097438991069,0.004930003748089075,0.05172784914970398
1772525826113160200,8.28716015625,0.0340501536399126,-0.002551145787537098,0.045532209379971024
1772525826123143200,8.29714306640625,-0.02994680997431278,0.042720951351523394,-0.023030746975541114
1772525826133127200,8.307127197265626,-0.004422492617368698,0.07616817066222428,-0.028209026396274563
1772525826143110400,8.3171103515625,0.05911503679156303,0.06524141071736812,0.018555062866210937
1772525826153093000,8.327093017578125,0.13243512454628945,0.057686465293169016,0.026615035203099248
1772525826163077000,8.3370771484375,0.15478256543278693,0.04818053193166852,0.061678165277838704
1772525826173059600,8.3470595703125,0.18083412153422831,0.04235518677905201,0.06763532011657952
1772525826183042300,8.357042236328125,0.2042664350479841,0.0315874167881906,0.12452625111788511
1772525826193026300,8.3670263671875,0.21270751565694807,0.007255670216679572,0.10287556032389401
1772525826203012400,8.377012451171876,0.12452362076938152,0.0125330260977149,-0.009007190059125423
1772525826212995300,8.386995361328125,0.08886603193283081,-0.017583587485551833,-0.09858838452398777
1772525826222978300,8.396978271484375,0.1930997288674116,-0.011518149966746568,-0.07870616470724344
1772525826232962300,8.40696240234375,0.27570786944925785,-0.01587254578396678,-0.10366612617969512
1772525826242945500,8.416945556640625,0.2758925783663988,-0.07231164136454463,-0.22804800039082765
1772525826252928300,8.42692822265625,0.30608138040304184,-0.16479089535847305,-0.28315467832386493
1772525826262912300,8.436912353515625,0.25602701742351053,-0.1579337229400873,-0.3193094030275941
1772525826272895200,8.446895263671875,0.15118191059231756,0.0741957015454769,-0.32588381298184393
1772525826282878500,8.45687841796875,0.12761048086881638,-0.1137025131560862,-0.16959727272689343
