time,seconds_elapsed,z,y,x
1772525817906863600,0.080863525390625,-0.020565368235111237,0.10810409486293793,0.1775367558002472
1772525817916846800,0.090846923828125,-0.028276018798351288,0.07363719493150711,0.13927938044071198
1772525817926830800,0.100830810546875,-0.02956383302807808,0.028499342501163483,0.09965936094522476
1772525817936813800,0.110813720703125,-0.021837202832102776,0.013302545994520187,0.06563987582921982
1772525817946796500,0.120796630859375,-0.007315951865166426,0.035363610833883286,0.03854893893003464
1772525817956780800,0.13078076171875,-0.010400958359241486,0.02384304068982601,0.027770059183239937
1772525817966763800,0.140763671875,-0.014504386112093925,0.01665698178112507,0.029255632311105728
1772525817976746800,0.150746826171875,-0.005746048409491777,0.02935386821627617,0.05327069014310837
1772525817986730800,0.160730712890625,0.002894388511776924,0.0194183811545372,0.09909581393003464
1772525817996713700,0.170713623046875,0.013810153119266033,0.009077593684196472,0.1493922770023346
1772525818006696700,0.18069677734375,0.027840133756399155,-0.018449384719133377,0.18419301509857178
1772525818016680700,0.1906806640625,0.034889258444309235,-0.06520038098096848,0.20777958631515503
1772525818026663700,0.20066357421875,0.035403527319431305,-0.10495033115148544,0.20814159512519836
1772525818036646700,0.210646728515625,0.04186675325036049,-0.12623058259487152,0.17943377792835236
1772525818046630700,0.220630615234375,0.048429470509290695,-0.09208407253026962,0.1460036188364029
1772525818056613600,0.230613525390625,0.05049022287130356,-0.06610041111707687,0.10385457426309586
1772525818066596900,0.240596923828125,0.04218032956123352,-0.028309982270002365,0.0678524374961853
1772525818076580900,0.250580810546875,0.035279545933008194,0.021630145609378815,0.0539264976978302
1772525818086563800,0.260563720703125,0.031902994960546494,0.035222310572862625,0.0584486648440361
1772525818096546600,0.270546630859375,0.03126197308301926,0.014358842745423317,0.06747571378946304
1772525818106530600,0.280530517578125,0.043654926121234894,-0.017365409061312675,0.08946796506643295
1772525818116513800,0.290513671875,0.06440041959285736,-0.051422178745269775,0.11775925755500793
1772525818126496800,0.300496826171875,0.07932034134864807,-0.10343243181705475,0.13404613733291626
1772525818136480800,0.310480712890625,0.07986948639154434,-0.12291745096445084,0.14567215740680695
1772525818146463700,0.320463623046875,0.08691076189279556,-0.10856802761554718,0.14322645962238312
1772525818156446700,0.33044677734375,0.08773447573184967,-0.07060600072145462,0.1201951801776886
1772525818166431000,0.340430908203125,0.081525057554245,-0.028635870665311813,0.09877030551433563
1772525818176414000,0.3504140625,0.06694184988737106,-0.005578220821917057,0.09493189305067062
1772525818186397200,0.360397216796875,0.040833815932273865,-0.022501010447740555,0.10361725836992264
1772525818196381200,0.370381103515625,0.020662235096096992,-0.042306140065193176,0.10770068317651749
1772525818206364200,0.3803642578125,0.018311694264411926,-0.0380672812461853,0.09344565123319626
1772525818216347000,0.390346923828125,0.02381511777639389,-0.0249410942196846,0.07499048113822937
1772525818226331000,0.400330810546875,0.03662452846765518,-0.023229895159602165,0.048537541180849075
1772525818236314000,0.410314208984375,0.047347746789455414,-0.03663038834929466,0.021473165601491928
1772525818246297000,0.420297119140625,0.04972943291068077,-0.02364063821732998,-0.004433703143149614
1772525818256281000,0.430281005859375,0.039287976920604706,0.0014071902260184288,-0.031024567782878876
1772525818266264000,0.44026416015625,0.025927476584911346,0.018953338265419006,-0.0488491915166378
1772525818276247000,0.4502470703125,0.012520858086645603,0.013322616927325726,-0.032975152134895325
1772525818286231000,0.46023095703125,-0.0065346574410796165,-0.008959346450865269,-0.006605871953070164
1772525818296214000,0.470214111328125,-0.022497646510601044,-0.016808481886982918,0.016897056251764297
1772525818306197200,0.480197265625,-0.020963339135050774,-0.019783180207014084,0.03405049443244934
1772525818316181000,0.490180908203125,-0.010253436863422394,-0.016194570809602737,0.04236115515232086
1772525818326164000,0.5001640625,0.0016824901103973389,-0.020036865025758743,0.03967301547527313
1772525818336147000,0.51014697265625,0.007727866061031818,-0.034123919904232025,0.030229981988668442
1772525818346131200,0.520131103515625,0.012482845224440098,-0.04498071223497391,0.012491786852478981
1772525818356114200,0.5301142578125,0.00921408087015152,-0.055134281516075134,-0.003932991996407509
1772525818366098200,0.54009814453125,0.003981146961450577,-0.03623872622847557,-0.01892148330807686
1772525818376081000,0.550080810546875,-0.01350463554263115,-0.011055340990424156,-0.02926919423043728
1772525818386064100,0.560064208984375,-0.02612096443772316,0.01606919802725315,-0.03465529903769493
1772525818396048100,0.570048095703125,-0.028128454461693764,0.0384536013007164,-0.021624185144901276
1772525818406031000,0.580031005859375,-0.03265463560819626,0.03774384409189224,0.005264025181531906
1772525818416014000,0.59001416015625,-0.03542352467775345,0.018436726182699203,0.036368947476148605
1772525818425998000,0.599998046875,-0.0270854365080595,-0.006780249532312155,0.0593365840613842
1772525818435981000,0.60998095703125,-0.011611937545239925,-0.029406465590000153,0.06833700090646744
1772525818445964000,0.619964111328125,0.006117913406342268,-0.044219356030225754,0.0704350695014
1772525818455948000,0.629947998046875,0.014043746516108513,-0.05146794766187668,0.0611499585211277
1772525818465931000,0.639930908203125,0.015750696882605553,-0.04581834003329277,0.05367540568113327
1772525818475914000,0.6499140625,0.01706177182495594,-0.03594706580042839,0.05368366092443466
1772525818485898000,0.65989794921875,0.015952177345752716,-0.03203108161687851,0.05401346832513809
1772525818495881000,0.669880859375,0.005531493574380875,-0.029953552410006523,0.05512933060526848
1772525818505864200,0.6798642578125,0.0051537309773266315,-0.01618782989680767,0.05029674619436264
1772525818515848200,0.68984814453125,0.0037877955473959446,-0.009648171253502369,0.04494565725326538
1772525818525831000,0.699830810546875,0.0048003531992435455,-0.010589906945824623,0.03294873610138893
1772525818535814100,0.709814208984375,0.010657710023224354,-0.005729371681809425,0.02566871978342533
1772525818545798100,0.719798095703125,0.023520804941654205,0.02601180411875248,0.029242875054478645
1772525818555781000,0.729781005859375,0.026120582595467567,0.017566921189427376,0.03498039022088051
1772525818565763800,0.739763916015625,0.023963429033756256,0.018952898681163788,0.043208226561546326
1772525818575747800,0.749747802734375,0.022441433742642403,0.013310194946825504,0.05264247581362724
1772525818585731000,0.75973095703125,0.024055955931544304,-0.013319753110408783,0.06835144013166428
1772525818595714000,0.769714111328125,0.009641861543059349,-0.02768670953810215,0.08083740621805191
1772525818605698000,0.779697998046875,0.0018201759085059166,-0.034840844571590424,0.08186627924442291
1772525818615681300,0.789681396484375,-0.006522442679852247,-0.034183576703071594,0.06517864018678665
1772525818625664000,0.7996640625,-0.008188054896891117,-0.03451240062713623,0.03666086122393608
1772525818635648000,0.80964794921875,0.002407597843557596,-0.008816624991595745,0.008695805445313454
1772525818645631000,0.819630859375,0.016347132623195648,0.016565078869462013,-0.02232060208916664
1772525818655614200,0.8296142578125,0.02273445948958397,0.03597952425479889,-0.03923646733164787
1772525818665598200,0.83959814453125,0.0244610458612442,0.04730120673775673,-0.05100283399224281
1772525818675581000,0.849580810546875,0.019852977246046066,0.04562022164463997,-0.05223055183887482
1772525818685564200,0.859564208984375,0.017381902784109116,0.027179086580872536,-0.052209120243787766
1772525818695548200,0.869548095703125,0.010117065161466599,0.015635080635547638,-0.040413979440927505
1772525818705531100,0.87953125,0.005107717122882605,0.0015720459632575512,-0.02728884294629097
1772525818715513900,0.889513916015625,-0.00009263725951313972,-0.00813464354723692,-0.005984884221106768
1772525818725497900,0.899497802734375,-0.0019042142666876316,-0.004523812793195248,0.014116711914539337
1772525818735481000,0.909481201171875,-0.0029396512545645237,-0.0011551801580935717,0.027041299268603325
1772525818745464000,0.919464111328125,0.00494267838075757,-0.0021750531159341335,0.02630552276968956
1772525818755448000,0.929447998046875,0.014427794143557549,-0.005553273484110832,0.015167118050158024
1772525818765431000,0.93943115234375,0.014098970219492912,-0.007831373251974583,0.002709229476749897
1772525818775414000,0.9494140625,0.01106962375342846,-0.002842473331838846,-0.007285080850124359
1772525818785398000,0.95939794921875,0.007829912938177586,0.0024289502762258053,-0.011204640381038189
1772525818795381000,0.969381103515625,0.0032822992652654648,0.0035256401170045137,-0.005632241256535053
1772525818805364200,0.9793642578125,-0.00869390182197094,0.0017701768083497882,-0.0012109298259019852
1772525818815348200,0.98934814453125,-0.012063865549862385,-0.0008554335217922926,0.004818733781576157
1772525818825331000,0.9993310546875,-0.01787596568465233,-0.011209451593458652,0.008734812960028648
1772525818835314000,1.00931396484375,-0.018763862550258636,-0.008258135989308357,0.008287401869893074
1772525818845298200,1.019298095703125,-0.01780102401971817,0.004014260601252317,0.0020138463005423546
1772525818855281200,1.02928125,-0.014935996383428574,0.005121869500726461,-0.000980345532298088
1772525818865263900,1.039263916015625,-0.014933504164218903,-0.0006008478812873363,-0.0016222242265939713
1772525818875247900,1.049247802734375,-0.009795467369258404,-0.0008743545040488243,-0.0004994357004761696
1772525818885231000,1.059231201171875,-0.013936985284090042,-0.0055011603981256485,-0.00444190576672554
1772525818895214000,1.069214111328125,-0.013432849198579788,-0.01558974664658308,-0.0051351264119148254
1772525818905198000,1.079197998046875,-0.017369136214256287,-0.019311003386974335,-0.007473778910934925
1772525818915181000,1.08918115234375,-0.021915419027209282,-0.018584493547677994,-0.009219479747116566
1772525818925164000,1.0991640625,-0.02359958365559578,-0.022283175960183144,-0.015637602657079697
1772525818935148000,1.10914794921875,-0.01835981383919716,-0.02971472777426243,-0.023317361250519753
1772525818945131000,1.119131103515625,-0.0143818911164999,-0.027197906747460365,-0.03219173476099968
1772525818955114200,1.1291142578125,-0.011809810064733028,-0.017924247309565544,-0.03581230342388153
1772525818965098200,1.13909814453125,-0.014066681265830994,-0.00927699077874422,-0.03261948004364967
1772525818975081000,1.1490810546875,-0.012634167447686195,0.004158923402428627,-0.028215676546096802
1772525818985064000,1.15906396484375,-0.014963592402637005,0.012778384611010551,-0.017967917025089264
1772525818995048000,1.1690478515625,-0.014718049205839634,0.015105187892913818,-0.008786669000983238
1772525819005031200,1.17903125,-0.008184876292943954,-0.0007221272680908442,-0.0024594757705926895
1772525819015014100,1.18901416015625,-0.002010603900998831,-0.009553435258567333,-0.0002386653795838356
1772525819024998000,1.198997802734375,0.007835363037884235,-0.0190039724111557,-0.006232099607586861
1772525819034981000,1.208981201171875,0.018686145544052124,-0.017118722200393677,-0.00968914944678545
1772525819044964000,1.218964111328125,0.024282624945044518,-0.003467292757704854,-0.008719186298549175
1772525819054948000,1.228947998046875,0.02814607322216034,0.028615809977054596,-0.008526639081537724
1772525819064931000,1.23893115234375,0.02639169618487358,0.04151143133640289,-0.009493328630924225
1772525819074914000,1.2489140625,0.022984713315963745,0.03269850090146065,-0.005048512946814299
1772525819084898000,1.25889794921875,0.015195348300039768,0.020826993510127068,0.007452934980392456
1772525819094881000,1.268881103515625,0.011877580545842648,0.007271237671375275,0.019786300137639046
1772525819104864000,1.278864013671875,0.012553058564662933,-0.007505391724407673,0.02744149975478649
1772525819114848300,1.28884814453125,0.012672901153564453,-0.02431206777691841,0.031615737825632095
1772525819124831000,1.2988310546875,0.007041357457637787,-0.03263679891824722,0.032638031989336014
1772525819134815000,1.30881494140625,0.008485855534672737,-0.028663361445069313,0.030132796615362167
1772525819144798000,1.3187978515625,0.015173377469182014,-0.025971652939915657,0.02050362341105938
1772525819154781200,1.32878125,0.01508602686226368,-0.017667118459939957,0.010825961828231812
1772525819164764000,1.338763916015625,0.014797741547226906,-0.0021882737055420876,0.0005739890038967133
1772525819174748000,1.348747802734375,0.011449083685874939,0.009941626340150833,-0.001329638995230198
1772525819184731000,1.35873095703125,0.002317405305802822,0.01756102778017521,-0.009670733474195004
1772525819194715100,1.368715087890625,-0.006753853522241116,0.02363516576588154,-0.018795523792505264
1772525819204698000,1.378697998046875,-0.0107668936252594,0.03344754874706268,-0.0323740690946579
1772525819214680800,1.388680908203125,-0.014368019998073578,0.024754993617534637,-0.03749372810125351
1772525819224664800,1.398664794921875,-0.01951402798295021,-0.002400280674919486,-0.0357053205370903
1772525819234648000,1.40864794921875,-0.023679478093981743,-0.014537904411554337,-0.023504847660660744
1772525819244631000,1.418631103515625,-0.0219558272510767,-0.009992403909564018,-0.011896109208464622
1772525819254615000,1.428614990234375,-0.013271789997816086,-0.010618247091770172,-0.0017233672551810741
1772525819264598000,1.438597900390625,-0.01107559073716402,-0.0076981196179986,0.002837521955370903
1772525819274581000,1.4485810546875,-0.01429561898112297,-0.003269282402470708,0.006710557267069817
1772525819284565000,1.45856494140625,-0.013418490998446941,0.007706299424171448,0.005019149277359247
1772525819294548000,1.4685478515625,-0.011168653145432472,0.005614385940134525,0.002367439679801464
1772525819304531000,1.478531005859375,-0.0055440086871385574,-0.006522256415337324,0.002152698114514351
1772525819314515000,1.488514892578125,-0.008179472759366035,-0.01084296964108944,0.0060113524086773396
1772525819324498000,1.498497802734375,-0.015183818526566029,0.00018394296057522297,0.0038141750264912844
1772525819334481000,1.50848095703125,-0.015803534537553787,0.005023173056542873,0.0013076080940663815
1772525819344465000,1.51846484375,-0.019473757594823837,0.005065676756203175,-0.004572683945298195
1772525819354448100,1.5284482421875,-0.025065861642360687,0.009879340417683125,-0.007748769596219063
1772525819364430800,1.538430908203125,-0.03222927451133728,0.017562424764037132,-0.014651073142886162
1772525819374414800,1.548414794921875,-0.025014236569404602,0.01597677916288376,-0.026707468554377556
1772525819384398000,1.558398193359375,-0.02168864756822586,0.012217648327350616,-0.02989613264799118
1772525819394381000,1.568381103515625,-0.014906909316778183,0.015510913915932178,-0.025421753525733948
1772525819404365000,1.578364990234375,-0.01000572182238102,0.017598683014512062,-0.023633653298020363
1772525819414347800,1.58834765625,-0.0008295341394841671,0.009904012084007263,-0.009769769385457039
1772525819424331000,1.5983310546875,0.006307635456323624,0.0016953961458057165,-0.0027173962444067
1772525819434315000,1.60831494140625,0.011288812384009361,-0.0019483407959342003,0.0007186140865087509
1772525819444298000,1.618298095703125,0.0158150102943182,-0.008843565359711647,0.005838507786393166
1772525819454281000,1.628281005859375,0.01533856987953186,-0.018517497926950455,0.009856153279542923
1772525819464265000,1.638264892578125,0.017371095716953278,-0.00816792156547308,0.013041825965046883
1772525819474248000,1.648248046875,0.018794022500514984,0.004031220450997353,0.014358758926391602
1772525819484231000,1.65823095703125,0.02177882194519043,0.007108044810593128,0.008876522071659565
1772525819494215000,1.66821484375,0.020002493634819984,0.0006189863197505474,0.0017653494141995907
1772525819504198100,1.6781982421875,0.014784270897507668,0.0025293147191405296,-0.0007556881755590439
1772525819514180900,1.688180908203125,0.004649346228688955,0.0007921347860246897,-0.013004631735384464
1772525819524164900,1.698164794921875,0.0007926155813038349,0.0017051189206540585,-0.027681028470396996
1772525819534148000,1.708148193359375,0.000488748773932457,0.012466419488191605,-0.042313236743211746
1772525819544131000,1.718131103515625,0.0032423553057014942,0.021205099299550056,-0.04892421513795853
1772525819554115000,1.728114990234375,0.0007533645257353783,0.015247341245412827,-0.05274292081594467
1772525819564097800,1.738097900390625,-0.002608778653666377,0.007074013818055391,-0.04670532047748566
1772525819574081000,1.7480810546875,-0.0023938617669045925,-0.000566861592233181,-0.03896643966436386
1772525819584065000,1.75806494140625,0.0021133674308657646,-0.01615658961236477,-0.028950612992048264
1772525819594048000,1.768048095703125,-0.00169069180265069,-0.023340201005339622,-0.017357872799038887
1772525819604031000,1.778031005859375,-0.00006397534161806107,-0.019704669713974,-0.008671419695019722
1772525819614015000,1.788014892578125,-0.0011654584668576717,-0.012949828058481216,-0.006470317021012306
1772525819623998000,1.797998046875,0.0034553525038063526,-0.00505688413977623,-0.011321190744638443
1772525819633981000,1.80798095703125,0.007112938445061445,0.0014271140098571777,-0.019716007634997368
1772525819643965000,1.81796484375,0.009943269193172455,-0.0014456040225923061,-0.02536734938621521
1772525819653948200,1.8279482421875,0.005312831606715918,-0.000996328890323639,-0.022921768948435783
1772525819663931000,1.837930908203125,0.0011353236623108387,-0.0027590084355324507,-0.01667090877890587
1772525819673915000,1.847914794921875,0.002035737968981266,-0.011042504571378231,-0.004242203198373318
1772525819683897900,1.85789794921875,-0.00029366370290517807,-0.0170797947794199,0.011336764320731163
1772525819693881000,1.867881103515625,-0.0017344341613352299,-0.00824236124753952,0.02204160764813423
1772525819703865000,1.877864990234375,0.0017396709881722927,0.0070525771006941795,0.0263909213244915
1772525819713847800,1.887847900390625,0.006311520002782345,0.013153612613677979,0.024925915524363518
1772525819723831000,1.8978310546875,0.012411676347255707,0.005237632431089878,0.018919838592410088
1772525819733815000,1.90781494140625,0.0069956062361598015,-0.00468104425817728,0.011323437094688416
1772525819743798000,1.917798095703125,0.005653811153024435,-0.009324416518211365,-0.00003382191061973572
1772525819753781000,1.927781005859375,0.003768825437873602,-0.008055420592427254,-0.0007315697148442268
1772525819763764700,1.9377646484375,0.0004414352588355541,0.005503964144736528,-0.0038284813053905964
1772525819773748000,1.947748046875,-0.001951681450009346,0.024169793352484703,-0.002098225522786379
1772525819783731000,1.95773095703125,-0.005357787944376469,0.030523529276251793,-0.00048103975132107735
1772525819793715000,1.96771484375,-0.0048453956842422485,0.028715509921312332,0.004988027736544609
1772525819803698200,1.9776982421875,-0.0016945106908679008,0.02079838700592518,0.009439975023269653
1772525819813681000,1.987680908203125,0.002099961042404175,0.005467899143695831,0.01513807475566864
1772525819823665000,1.997664794921875,0.00528808543458581,-0.0038624724838882685,0.014685092493891716
1772525819833647900,2.00764794921875,0.005594349000602961,-0.008037510327994823,0.018042005598545074
1772525819843631000,2.017631103515625,0.008310193195939064,-0.010205822996795177,0.02346230484545231
1772525819853615000,2.027614990234375,0.010275871492922306,-0.01310733798891306,0.02263699099421501
1772525819863597800,2.037597900390625,0.013537178747355938,-0.014715353958308697,0.02346736378967762
1772525819873581000,2.0475810546875,0.014941267669200897,-0.024246618151664734,0.020341206341981888
1772525819883565000,2.05756494140625,0.01257355883717537,-0.0379813127219677,0.017416030168533325
1772525819893548000,2.067548095703125,0.008894668892025948,-0.048624102026224136,0.005192919634282589
1772525819903531000,2.077531005859375,0.006150300148874521,-0.042372945696115494,-0.01518176682293415
1772525819913514800,2.0875146484375,-0.0012607444077730179,-0.03976358100771904,-0.03135274350643158
1772525819923498000,2.097498046875,0.0015760408714413643,-0.03591492772102356,-0.04103875905275345
1772525819933481000,2.10748095703125,0.0052205766551196575,-0.02165636420249939,-0.043428413569927216
1772525819943465000,2.11746484375,0.007366113364696503,0.009023400023579597,-0.03815940394997597
1772525819953448000,2.127447998046875,0.005461687222123146,0.017685864120721817,-0.038858748972415924
1772525819963431000,2.137430908203125,-0.0002968907356262207,0.010788029059767723,-0.03271094709634781
1772525819973415000,2.147414794921875,-0.004835982341319323,0.004088048357516527,-0.03159375116229057
1772525819983398000,2.15739794921875,-0.014389898627996445,0.00014644977636635303,-0.02647535502910614
1772525819993381000,2.167381103515625,-0.018858417868614197,-0.0036054113879799843,-0.02161029353737831
1772525820003365000,2.177365234375,-0.017926102504134178,-0.005859827622771263,-0.010382160544395447
1772525820013347800,2.187347900390625,-0.01571834087371826,-0.001966818468645215,-0.004253694321960211
1772525820023330800,2.197330810546875,-0.002377196913585067,0.005680315662175417,0.00030556367710232735
1772525820033314800,2.207314697265625,0.008570259436964989,0.011030872352421284,-0.00006568105891346931
1772525820043298000,2.217298095703125,0.019562574103474617,0.014736764132976532,0.0027181562036275864
1772525820053281000,2.227281005859375,0.02325478196144104,0.016386859118938446,0.008982177823781967
1772525820063265000,2.23726513671875,0.02178553119301796,0.016843505203723907,0.019729461520910263
1772525820073248000,2.247248046875,0.016466666013002396,0.010575223714113235,0.027902968227863312
1772525820083231000,2.25723095703125,0.009263675659894943,0.0014262538170441985,0.029710207134485245
1772525820093215000,2.267215087890625,0.0026750140823423862,-0.0013647391460835934,0.023495454341173172
1772525820103198000,2.277197998046875,0.0007973280735313892,-0.0001881264615803957,0.018210718408226967
1772525820113181000,2.287180908203125,-0.0070297024212777615,0.0018790190806612372,0.007621722761541605
1772525820123165000,2.2971650390625,-0.00791851244866848,0.003160199150443077,-0.003861599136143923
1772525820133148000,2.30714794921875,-0.006071344017982483,-0.0025541456416249275,-0.008182846009731293
1772525820143131100,2.317131103515625,-0.005180804058909416,-0.021343760192394257,-0.016079749912023544
1772525820153115100,2.327115234375,-0.002116571180522442,-0.032712530344724655,-0.018684852868318558
1772525820163097300,2.337097412109375,0.001935790292918682,-0.027573276311159134,-0.02040078490972519
1772525820173080300,2.347080322265625,-0.003597193630412221,-0.01888338103890419,-0.01619805209338665
1772525820183064600,2.357064697265625,-0.013939518481492996,-0.008871677331626415,-0.021169617772102356
1772525820193047600,2.367047607421875,-0.019415775313973427,0.00023207208141684532,-0.026466112583875656
1772525820203030500,2.377030517578125,-0.021347464993596077,-0.001737520331516862,-0.02802107483148575
1772525820213014300,2.38701416015625,-0.020086990669369698,-0.006696859374642372,-0.02827274426817894
1772525820222997500,2.39699755859375,-0.01720341481268406,-0.005969699006527662,-0.03363176807761192
1772525820232980500,2.40698046875,-0.019996272400021553,-0.00964033417403698,-0.03620437905192375
1772525820242964500,2.416964599609375,-0.014061398804187775,-0.012750189751386642,-0.02940656617283821
1772525820252947500,2.426947509765625,-0.009881301783025265,-0.008975692093372345,-0.020766472443938255
1772525820262930400,2.436930419921875,-0.010660083033144474,-0.010032367892563343,-0.005025172606110573
1772525820272914400,2.44691455078125,-0.003363021882250905,-0.005917517468333244,0.0103628383949399
1772525820282897400,2.4568974609375,-0.0006325994618237019,0.00023162085562944412,0.021959001198410988
1772525820292880600,2.466880615234375,0.007863417267799377,-0.0003635955508798361,0.031197506934404373
1772525820302864600,2.47686474609375,0.016128143295645714,-0.0034994115121662617,0.027817022055387497
1772525820312847400,2.486847412109375,0.02103235386312008,-0.008080048486590385,0.02387048304080963
1772525820322830300,2.496830322265625,0.023945830762386322,-0.005779832601547241,0.013745052739977837
1772525820332814300,2.506814453125,0.01773746870458126,0.0013675595400854945,0.0005040825344622135
1772525820342797600,2.516797607421875,0.012052515521645546,0.01331464946269989,-0.010606682859361172
1772525820352780500,2.526780517578125,0.00834406167268753,0.022928396239876747,-0.010575789026916027
1772525820362764300,2.536764404296875,0.005315610207617283,0.026613561436533928,-0.010025903582572937
1772525820372747500,2.54674755859375,0.004812005907297134,0.024251602590084076,-0.002538159489631653
1772525820382730500,2.55673046875,0.006164437159895897,0.02563721314072609,0.0006566816009581089
1772525820392714500,2.566714599609375,0.012932861223816872,0.02472800947725773,0.003850877285003662
1772525820402697500,2.576697509765625,0.0177417304366827,0.021816641092300415,0.0014026332646608353
1772525820412680400,2.586680419921875,0.02032206766307354,0.014536358416080475,-0.000041332561522722244
1772525820422664400,2.59666455078125,0.020258262753486633,0.0027812314219772816,-0.004322592634707689
1772525820432647400,2.6066474609375,0.013842708431184292,-0.008820030838251114,-0.010710718110203743
1772525820442630700,2.616630615234375,0.006982862483710051,-0.011553466320037842,-0.016903214156627655
1772525820452614700,2.62661474609375,0.0007763653993606567,-0.017542915418744087,-0.027485018596053123
1772525820462597400,2.636597412109375,0.00016944948583841324,-0.024247772991657257,-0.03902307152748108
1772525820472580400,2.646580322265625,0.0021170196123421192,-0.044279538094997406,-0.04695636034011841
1772525820482564400,2.656564453125,0.002974327653646469,-0.06855414807796478,-0.05088113620877266
1772525820492547600,2.666547607421875,0.008168024010956287,-0.08675046265125275,-0.05636885017156601
1772525820502530600,2.676530517578125,0.020250938832759857,-0.07781270146369934,-0.07763875275850296
1772525820512514300,2.686514404296875,0.028358133509755135,-0.06722397357225418,-0.08808819949626923
1772525820522497500,2.69649755859375,0.022233396768569946,0.0017617569537833333,-0.0766318067908287
1772525820532480500,2.70648046875,0.008793393149971962,0.04527073726058006,-0.05275385081768036
1772525820542464500,2.716464599609375,-0.009040789678692818,0.05957399308681488,-0.022333916276693344
1772525820552447500,2.726447509765625,-0.023827459663152695,0.055925194174051285,0.006236209534108639
1772525820562430500,2.736430419921875,-0.034693002700805664,0.02088165655732155,0.019467556849122047
1772525820572414500,2.74641455078125,-0.03251560032367706,-0.006288180127739906,0.024708658456802368
1772525820582397400,2.7563974609375,-0.023009411990642548,-0.016079457476735115,0.025267042219638824
1772525820592380400,2.76638037109375,-0.012836136855185032,-0.008500898256897926,0.020771093666553497
1772525820602364400,2.776364501953125,-0.0011398186907172203,0.011221222579479218,0.0139098996296525
1772525820612347400,2.786347412109375,0.006311439909040928,0.030262824147939682,0.010333274491131306
1772525820622330400,2.796330322265625,0.010537076741456985,0.040454477071762085,0.012326117604970932
1772525820632314400,2.806314453125,0.013014350086450577,0.035275425761938095,0.01490459032356739
1772525820642297600,2.816297607421875,0.010572346858680248,0.020957570523023605,0.02817489579319954
1772525820652280600,2.826280517578125,0.013735917396843433,0.02400396019220352,0.03875696659088135
1772525820662264600,2.8362646484375,0.010213807225227356,0.02695554681122303,0.04875781387090683
1772525820672247300,2.846247314453125,0.01324661448597908,0.03172234073281288,0.05711401626467705
1772525820682230500,2.85623046875,0.012269638478755951,0.03091331757605076,0.05591972917318344
1772525820692214500,2.866214599609375,0.005260464735329151,0.011217910796403885,0.05475885793566704
1772525820702197500,2.876197509765625,-0.0003394763916730881,-0.012306655757129192,0.04571712017059326
1772525820712180500,2.886180419921875,-0.01063871942460537,-0.02988831326365471,0.03384501114487648
1772525820722164500,2.89616455078125,-0.015122347511351109,-0.03332841396331787,0.009512349031865597
1772525820732147500,2.9061474609375,-0.022229257971048355,-0.02737039141356945,-0.012921320274472237
1772525820742130400,2.91613037109375,-0.022037606686353683,-0.016457973048090935,-0.03591446205973625
1772525820752114400,2.926114501953125,-0.02309328317642212,-0.008734539151191711,-0.0509306974709034
1772525820762097400,2.936097412109375,-0.024446014314889908,0.005324783734977245,-0.059176139533519745
1772525820772080400,2.946080322265625,-0.01609380915760994,0.03403792157769203,-0.05948186665773392
1772525820782064400,2.956064453125,-0.009045543149113655,0.0519002266228199,-0.05354863405227661
1772525820792047600,2.966047607421875,-0.0018432908691465855,0.044277459383010864,-0.04547286406159401
1772525820802030600,2.976030517578125,-0.003848023945465684,0.02565625309944153,-0.03327883780002594
1772525820812014600,2.9860146484375,-0.009600452147424221,-0.008040988817811012,-0.027594055980443954
1772525820821997300,2.995997314453125,-0.011433374136686325,-0.039260175079107285,-0.015712499618530273
1772525820831980500,3.00598046875,-0.00878858845680952,-0.05343351885676384,-0.012036804109811783
1772525820841964500,3.015964599609375,-0.007647365797311068,-0.05654270946979523,-0.007520327810198069
1772525820851947500,3.025947509765625,-0.003462208202108741,-0.037033192813396454,-0.0021263607777655125
1772525820861930500,3.035930419921875,0.00025426875799894333,-0.003709512995555997,0.008337636478245258
1772525820871914500,3.04591455078125,0.008425379171967506,0.021568946540355682,0.01048627495765686
1772525820881897500,3.0558974609375,0.01937074400484562,0.03463081270456314,0.015519317239522934
1772525820891880400,3.06588037109375,0.026076316833496094,0.021105948835611343,0.01669536903500557
1772525820901864400,3.075864501953125,0.025670375674962997,0.0038157030940055847,0.01577727124094963
1772525820911847400,3.085847412109375,0.022478312253952026,-0.005839587189257145,0.015611888840794563
1772525820921830400,3.095830322265625,0.016711140051484108,-0.007275474723428488,0.01726602576673031
1772525820931814400,3.105814453125,0.011344071477651596,0.006097055971622467,0.01866471767425537
1772525820941797400,3.11579736328125,0.007753465324640274,0.024221478030085564,0.019563142210245132
1772525820951780600,3.125780517578125,0.00664718821644783,0.0394560880959034,0.03141047805547714
1772525820961764600,3.1357646484375,0.003106041345745325,0.034086674451828,0.037742700427770615
1772525820971747300,3.145747314453125,0.006574275437742472,0.017497576773166656,0.037983451038599014
1772525820981730600,3.15573046875,0.00646557891741395,-0.0007137809880077839,0.03223934769630432
1772525820991714600,3.165714599609375,0.002356054726988077,-0.022670477628707886,0.02116379514336586
1772525821001697500,3.175697509765625,-0.008362158201634884,-0.02798430435359478,0.0031941020861268044
1772525821011680300,3.18568017578125,-0.015062937512993813,-0.0196163859218359,-0.007535241078585386
1772525821021664300,3.195664306640625,-0.022564660757780075,-0.0066100237891077995,-0.0266179870814085
1772525821031647500,3.2056474609375,-0.02433726191520691,0.013004690408706665,-0.03504396229982376
1772525821041630500,3.21563037109375,-0.023174546658992767,0.02110634371638298,-0.036088019609451294
1772525821051614500,3.225614501953125,-0.02523982897400856,0.021734582260251045,-0.02637067809700966
1772525821061597700,3.23559765625,-0.013411475345492363,0.01626552641391754,-0.013068053871393204
1772525821071580400,3.245580322265625,-0.007954392582178116,0.0028431948740035295,0.0024608392268419266
1772525821081564400,3.255564453125,-0.00346759264357388,-0.014770280569791794,0.01968810148537159
1772525821091547400,3.26554736328125,-0.0008619558066129684,-0.03413812071084976,0.02576650120317936
1772525821101530600,3.275530517578125,-0.0018054950051009655,-0.0467328205704689,0.028424428775906563
1772525821111514600,3.2855146484375,-0.0016166772693395615,-0.043560996651649475,0.02575833722949028
1772525821121497300,3.295497314453125,-0.0005682008340954781,-0.02540447562932968,0.020617809146642685
1772525821131480600,3.30548046875,-0.00462552672252059,0.002484679687768221,0.01069274079054594
1772525821141464600,3.315464599609375,-0.008718755096197128,0.028969792649149895,-0.002106920350342989
1772525821151447600,3.325447509765625,-0.005619368515908718,0.036368053406476974,-0.016208890825510025
1772525821161430300,3.33543017578125,-0.002340371487662196,0.02862178348004818,-0.020857403054833412
1772525821171414800,3.345414794921875,0.0008815205655992031,0.02195535972714424,-0.01933753676712513
1772525821181398000,3.35539794921875,0.00219356594607234,0.014144424349069595,-0.013168532401323318
1772525821191380700,3.365380615234375,0.006416806485503912,0.006281707435846329,-0.003086070530116558
1772525821201364700,3.37536474609375,0.005914608482271433,0.007432132959365845,0.004760770592838526
1772525821211347700,3.38534765625,0.00526559678837657,0.013947290368378162,0.010297216475009918
1772525821221331000,3.3953310546875,0.0030187107622623444,0.018641088157892227,0.011735698208212852
1772525821231315000,3.40531494140625,0.007654741406440735,0.017591536045074463,0.009170008823275566
1772525821241297700,3.415297607421875,0.011407609097659588,0.011174865998327732,0.0049435533583164215
1772525821251281000,3.425281005859375,0.012853971682488918,0.0017121221171692014,0.0022471025586128235
1772525821261265000,3.435264892578125,0.012466555461287498,-0.010832495987415314,-0.0036266571842134
1772525821271248000,3.445247802734375,0.009946940466761589,-0.01754392869770527,-0.0060354857705533504
1772525821281230600,3.455230712890625,0.008396675810217857,-0.016758158802986145,-0.013365501537919044
1772525821291214600,3.465214599609375,-0.0007249177433550358,-0.008924469351768494,-0.018137620761990547
1772525821301197800,3.47519775390625,-0.008459608070552349,-0.007843931205570698,-0.028475847095251083
1772525821311180800,3.485180908203125,-0.01624882221221924,-0.007082533091306686,-0.03536145016551018
1772525821321164800,3.495164794921875,-0.017334938049316406,-0.0005937411915510893,-0.039899591356515884
1772525821331148000,3.50514794921875,-0.012740986421704292,0.006483342964202166,-0.03772538900375366
1772525821341130800,3.515130859375,-0.00873340293765068,0.012772446498274803,-0.034141018986701965
1772525821351114800,3.52511474609375,-0.006646283436566591,0.014624142087996006,-0.02460956573486328
1772525821361097700,3.53509765625,-0.005848516244441271,0.004600973334163427,-0.01531890593469143
1772525821371081000,3.5450810546875,-0.00992261990904808,-0.0038460411597043276,-0.005334449000656605
1772525821381065000,3.55506494140625,-0.011323098093271255,-0.009984897449612617,-0.0020743519999086857
1772525821391047700,3.565047607421875,-0.013783060014247894,-0.004127807449549437,0.0013520708307623863
1772525821401030700,3.57503076171875,-0.011245602741837502,0.0024259353522211313,0.004554249346256256
1772525821411015000,3.585014892578125,-0.007901737466454506,0.016364652663469315,0.0035715431440621614
1772525821420998000,3.594997802734375,-0.004070397932082415,0.019246291369199753,-0.001772311981767416
1772525821430980900,3.60498095703125,-0.0008911159820854664,0.017466234043240547,-0.005629101302474737
1772525821440964600,3.614964599609375,0.0041118222288787365,0.00938437320291996,-0.005129075143486261
1772525821450947800,3.62494775390625,0.002587695140391588,0.007955321110785007,-0.005116025451570749
1772525821460930800,3.634930908203125,0.0025318036787211895,0.008239824324846268,-0.002007945440709591
1772525821470914800,3.644914794921875,-0.0011923601850867271,0.005875470116734505,0.0019069015979766846
1772525821480897800,3.654897705078125,-0.0029361576307564974,-0.004474218003451824,0.006157250609248877
1772525821490880800,3.664880859375,-0.005118351895362139,-0.005911792162805796,0.010383686982095242
1772525821500864800,3.67486474609375,-0.012453744187951088,-0.00041218148544430733,0.012160375714302063
1772525821510847700,3.68484765625,-0.012067319825291634,0.005380726419389248,0.011863699182868004
1772525821520831000,3.6948310546875,-0.005742235574871302,0.007810295093804598,0.011663278564810753
1772525821530815000,3.70481494140625,-0.0010878290049731731,0.011509159579873085,0.001223420724272728
1772525821540797700,3.714797607421875,0.004342622589319944,0.01111767441034317,-0.003340704832226038
1772525821550780700,3.72478076171875,0.005335449706763029,0.010044686496257782,-0.005500528495758772
1772525821560764700,3.7347646484375,0.004947197623550892,0.002164761070162058,-0.00912916474044323
1772525821570748000,3.744747802734375,0.0036571621894836426,-0.005478245206177235,-0.01624087058007717
1772525821580731000,3.75473095703125,-0.0017851023003458977,-0.005697040818631649,-0.027723565697669983
1772525821590714600,3.764714599609375,-0.010238774120807648,-0.0046754516661167145,-0.03648456558585167
1772525821600697900,3.77469775390625,-0.01718365028500557,-0.0005005819257348776,-0.03439420834183693
1772525821610680800,3.784680908203125,-0.021308619529008865,0.0008259385358542204,-0.031189627945423126
1772525821620664800,3.794664794921875,-0.018505627289414406,-0.00456387922167778,-0.022239986807107925
1772525821630647800,3.804647705078125,-0.01359262689948082,-0.013136062771081924,-0.017739245668053627
1772525821640630800,3.814630859375,-0.006818532012403011,-0.015689238905906677,-0.012476449832320213
1772525821650614800,3.82461474609375,-0.00035530654713511467,-0.02256019413471222,-0.006622022483497858
1772525821660597800,3.83459765625,0.003745276015251875,-0.023560144007205963,-0.005466706585139036
1772525821670580700,3.844580810546875,0.004738634917885065,-0.024941526353359222,-0.003964949864894152
1772525821680565000,3.85456494140625,0.007600771263241768,-0.02039887197315693,-0.002610278781503439
1772525821690547700,3.864547607421875,0.0027897702530026436,-0.015152975916862488,-0.004092061426490545
1772525821700530700,3.87453076171875,0.0002385205589234829,-0.004469657316803932,-0.000421405304223299
1772525821710514000,3.884513916015625,0.00011255312711000443,0.01007066946476698,0.003945379517972469
1772525821720498000,3.894497802734375,0.005332689266651869,0.025951815769076347,0.0066200788132846355
1772525821730481000,3.90448095703125,0.0075630866922438145,0.029371049255132675,0.006427798420190811
1772525821740464600,3.914464599609375,0.004044995177537203,0.025996023789048195,0.004747084807604551
1772525821750447900,3.92444775390625,0.0046074544079601765,0.02151978388428688,0.004467985592782497
1772525821760430800,3.934430908203125,0.0009251963347196579,0.01550997793674469,0.002002640161663294
1772525821770413800,3.944413818359375,0.0009763292036950588,0.00966939888894558,-0.00497191259637475
1772525821780397800,3.954397705078125,-0.00005351146683096886,0.011874528601765633,-0.010873207822442055
1772525821790380800,3.964380859375,-0.0009890799410641193,0.013512905687093735,-0.02052769996225834
1772525821800363800,3.97436376953125,-0.002493141917511821,0.0195581316947937,-0.022397566586732864
1772525821810347800,3.98434765625,0.0009428681805729866,0.022348059341311455,-0.013595020398497581
1772525821820330800,3.994330810546875,0.006818830501288176,0.024029212072491646,-0.006777514237910509
1772525821830312700,4.004312744140625,0.007330956403166056,0.013451935723423958,0.0001608193852007389
1772525821840295700,4.014295654296875,0.012075891718268394,-0.00005393684841692448,0.0016006962396204472
1772525821850279000,4.02427880859375,0.005619323346763849,-0.012638172134757042,0.004140020348131657
1772525821860263000,4.034262939453125,0.0020525921136140823,-0.017093772068619728,0.0077400049194693565
1772525821870245600,4.04424560546875,-0.006230104714632034,-0.02341398596763611,0.007425752002745867
1772525821880228900,4.054228759765625,-0.013335859403014183,-0.007561137434095144,0.004212055820971727
1772525821890212900,4.064212890625,-0.014078881591558456,0.0002818722277879715,-0.004613127559423447
1772525821900195800,4.07419580078125,-0.017314203083515167,0.0014309589751064777,-0.016357703134417534
1772525821910178800,4.0841787109375,-0.017898766323924065,-0.004516678396612406,-0.024128274992108345
1772525821920162800,4.094162841796875,-0.014492452144622803,-0.013370638713240623,-0.036629557609558105
1772525821930145800,4.104145751953125,-0.00687794154509902,-0.022285569459199905,-0.04557324945926666
1772525821940128800,4.114128662109375,-0.0030261168722063303,-0.030875714495778084,-0.052951861172914505
1772525821950112800,4.12411279296875,-0.00012913020327687263,-0.039668403565883636,-0.05870295688509941
1772525821960096000,4.134095947265625,-0.0007506171241402626,-0.03444686159491539,-0.06077628955245018
1772525821970078700,4.14407861328125,-0.0013223979622125626,-0.026705052703619003,-0.06167084351181984
1772525821980062700,4.154062744140625,-0.006099852733314037,-0.022588983178138733,-0.06637727469205856
1772525821990045700,4.164045654296875,-0.016350625082850456,-0.0344320572912693,-0.06396657973527908
1772525822000029000,4.17402880859375,-0.015927286818623543,-0.01734890416264534,-0.048962272703647614
1772525822010013000,4.184012939453125,-0.009842230007052422,0.004883964546024799,-0.03041628748178482
1772525822019995600,4.19399560546875,0.0023880531080067158,0.009437786415219307,-0.015078436583280563
1772525822029979000,4.203978759765625,0.01755981519818306,0.0068260240368545055,-0.0016047051176428795
1772525822039963000,4.213962890625,0.018374722450971603,-0.0038481089286506176,0.008986858651041985
1772525822049945900,4.22394580078125,0.017551006749272346,-0.010983781889081001,0.01684531569480896
1772525822059928800,4.2339287109375,0.016473034396767616,-0.010374248027801514,0.021757356822490692
1772525822069912800,4.243912841796875,0.017970263957977295,-0.006716928444802761,0.028816331177949905
1772525822079895800,4.253895751953125,0.013846496120095253,-0.001279505668208003,0.031164046376943588
1772525822089878800,4.263878662109375,0.01033884659409523,0.00814808439463377,0.029476668685674667
1772525822099862800,4.27386279296875,0.012352232821285725,0.018331844359636307,0.026158560067415237
1772525822109845800,4.283845703125,0.012353564612567425,0.025313854217529297,0.02442724071443081
1772525822119828700,4.293828857421875,0.013045508414506912,0.031310778111219406,0.02656577341258526
1772525822129812700,4.303812744140625,0.0152058657258749,0.026980744674801826,0.03134641423821449
1772525822139795700,4.313795654296875,0.01883828267455101,0.019312404096126556,0.030134517699480057
1772525822149779000,4.323779052734375,0.02046520821750164,0.018042609095573425,0.023814305663108826
1772525822159763000,4.333762939453125,0.01599777489900589,0.01835176907479763,0.02377154864370823
1772525822169745200,4.3437451171875,0.011745506897568703,0.01799383945763111,0.022945435717701912
1772525822179728400,4.353728271484375,0.0012736329808831215,0.01799086108803749,0.026579298079013824
1772525822189712400,4.36371240234375,-0.004006350412964821,0.009108953177928925,0.024793114513158798
1772525822199695000,4.373695068359375,-0.009862719103693962,-0.0006110405083745718,0.026808463037014008
1772525822209680100,4.38368017578125,-0.008848587051033974,-0.017892291769385338,0.024742119014263153
1772525822219663000,4.3936630859375,-0.00791653711348772,-0.025438915938138962,0.02277536690235138
1772525822229647000,4.403647216796875,-0.009681147523224354,-0.027204325422644615,0.013465221039950848
1772525822239630300,4.41363037109375,-0.009408324025571346,-0.02031729742884636,0.0010317666456103325
1772525822249613300,4.42361328125,-0.015876077115535736,-0.004141522105783224,-0.0062192222103476524
1772525822259597000,4.43359716796875,-0.0235670767724514,0.013946117833256721,-0.01379380188882351
1772525822269580000,4.443580078125,-0.026534635573625565,0.030691009014844894,-0.020909767597913742
1772525822279563300,4.453563232421875,-0.026161376386880875,0.026598697528243065,-0.026439862325787544
1772525822289547300,4.46354736328125,-0.024075057357549667,0.022337373346090317,-0.024345552548766136
1772525822299530200,4.4735302734375,-0.015291021205484867,0.009431127458810806,-0.01802096888422966
1772525822309513200,4.48351318359375,-0.0045235943980515,-0.0004119160585105419,-0.003947226796299219
1772525822319497200,4.493497314453125,0.0011796634644269943,-0.009459804743528366,0.008643900975584984
1772525822329480200,4.503480224609375,0.0016206828877329826,-0.016665786504745483,0.015379302203655243
1772525822339463200,4.513463134765625,-0.003918750211596489,-0.019629934802651405,0.018658697605133057
1772525822349447200,4.523447265625,-0.007738255895674229,-0.003676534164696932,0.013951294124126434
1772525822359430100,4.53343017578125,-0.010301264934241772,0.004695006180554628,0.009042367339134216
1772525822369413000,4.5434130859375,-0.011691967956721783,0.012976372614502907,0.008806144818663597
1772525822379397000,4.553397216796875,-0.009927107952535152,0.02757033333182335,0.0047197118401527405
1772525822389380000,4.563380126953125,-0.0017091254703700542,0.025759384036064148,-0.0027693631127476692
1772525822399363300,4.57336328125,0.008216777816414833,0.017292477190494537,-0.0040435162372887135
1772525822409347300,4.583347412109375,0.013222187757492065,0.016570227220654488,0.0034271832555532455
1772525822419330000,4.593330078125,0.012803006917238235,0.008453445509076118,0.011652089655399323
1772525822429313300,4.603313232421875,0.012153996154665947,0.006850244477391243,0.022775331512093544
1772525822439297300,4.61329736328125,0.014531589113175869,-0.0010859619360417128,0.025279367342591286
1772525822449280300,4.6232802734375,0.012504124082624912,-0.008838423527777195,0.02615474909543991
1772525822459263000,4.633262939453125,0.01158662885427475,-0.02234925515949726,0.017520880326628685
1772525822469247000,4.6432470703125,0.01195601001381874,-0.02420574426651001,0.013130392879247665
1772525822479230200,4.653230224609375,0.012878280133008957,-0.019638793542981148,0.0031132549047470093
1772525822489213200,4.663213134765625,0.013103049248456955,-0.006908084265887737,-0.007815026678144932
1772525822499197200,4.673197265625,0.014915978536009789,0.004058904014527798,-0.014482730999588966
1772525822509180200,4.68318017578125,0.009514556266367435,0.012542136944830418,-0.015002580359578133
1772525822519163100,4.6931630859375,0.0029438543133437634,0.013373672030866146,-0.014260578900575638
1772525822529147100,4.703147216796875,-0.002626679604873061,0.006234003230929375,-0.011968662962317467
1772525822539130000,4.713130126953125,-0.0010181120596826077,0.00035153073258697987,-0.01622083969414234
1772525822549113300,4.72311328125,0.0010663438588380814,-0.012240692973136902,-0.015558777377009392
1772525822559097300,4.733097412109375,-0.001213164534419775,-0.018910612910985947,-0.016222205013036728
1772525822569080000,4.743080078125,-0.001802788581699133,-0.012541396543383598,-0.013634145259857178
1772525822579063300,4.753063232421875,-0.0007449663244187832,-0.0013876636512577534,-0.006186256185173988
1772525822589047300,4.76304736328125,0.002709153573960066,0.014737511053681374,-0.0030373353511095047
1772525822599030300,4.7730302734375,0.0010476629249751568,0.018450777977705002,0.0030900780111551285
1772525822609013000,4.783012939453125,-0.004585188813507557,0.012854143977165222,0.004758814815431833
1772525822618997000,4.7929970703125,-0.0063456520438194275,-0.0011948985047638416,0.011067276820540428
1772525822628980200,4.802980224609375,-0.005613549146801233,-0.01160519476979971,0.014044424518942833
1772525822638963200,4.812963134765625,-0.0026320270262658596,-0.019313665106892586,0.011489935219287872
1772525822648947200,4.822947265625,0.002517994027584791,-0.021422622725367546,0.009676588699221611
1772525822658930200,4.83293017578125,0.00590182701125741,-0.014107753522694111,0.008161638863384724
1772525822668913200,4.8429130859375,0.003830420318990946,-0.0012257772032171488,0.005390353500843048
1772525822678897200,4.852897216796875,0.005168752279132605,0.005737714469432831,0.002722062636166811
1772525822688880000,4.862880126953125,-0.0018425513990223408,0.0008164590690284967,-0.006311113014817238
1772525822698863400,4.87286328125,-0.005166366696357727,-0.009241269901394844,-0.012940403074026108
1772525822708847400,4.882847412109375,-0.009264705702662468,-0.009726231917738914,-0.014363065361976624
1772525822718830000,4.892830078125,-0.008764754049479961,-0.01507549174129963,-0.011449716053903103
1772525822728813000,4.90281298828125,-0.0028006047941744328,-0.01101603452116251,-0.001895892433822155
1772525822738797300,4.91279736328125,0.000869307667016983,0.002913328120484948,0.008372041396796703
1772525822748780300,4.9227802734375,0.007151970639824867,0.009952329099178314,0.017149820923805237
1772525822758763000,4.932762939453125,0.009756390005350113,0.015387377701699734,0.020902780815958977
1772525822768747000,4.9427470703125,0.007634116802364588,0.011971340514719486,0.021806657314300537
1772525822778730200,4.952730224609375,0.007096141576766968,-0.003797125769779086,0.016779592260718346
1772525822788713200,4.962713134765625,0.0024598445743322372,-0.015816237777471542,0.004343694541603327
1772525822798696200,4.9726962890625,-0.002742586424574256,-0.019873568788170815,-0.0038836095482110977
1772525822808680200,4.98268017578125,-0.003632881212979555,-0.02008129470050335,-0.015098979696631432
1772525822818663200,4.9926630859375,-0.004328841343522072,-0.015275320038199425,-0.02333199232816696
1772525822828646100,5.002646240234375,-0.004282768815755844,0.0025446899235248566,-0.028721164911985397
1772525822838630100,5.012630126953125,-0.0026768813841044903,0.01645972952246666,-0.02803006023168564
1772525822848613400,5.02261328125,-0.0018843249417841434,0.01755668595433235,-0.018964393064379692
1772525822858596000,5.03259619140625,-0.0003298562951385975,0.005541915539652109,-0.013410994783043861
1772525822868580000,5.042580078125,0.007844716310501099,-0.003507505636662245,-0.004628688562661409
1772525822878563000,5.05256298828125,0.014269573614001274,-0.021062981337308884,0.007727486081421375
1772525822888546300,5.06254638671875,0.019014261662960052,-0.023224934935569763,0.016233623027801514
1772525822898530300,5.0725302734375,0.018009202554821968,-0.01758524216711521,0.019373316317796707
1772525822908513000,5.082512939453125,0.01862252876162529,-0.010460486635565758,0.021104637533426285
1772525822918496300,5.092496337890625,0.01588304713368416,-0.006118954159319401,0.015414278954267502
1772525822928480300,5.102480224609375,0.014435087330639362,-0.005430260673165321,0.011715147644281387
1772525822938463200,5.112463134765625,0.005277847405523062,-0.003850082168355584,0.008265224285423756
1772525822948446200,5.1224462890625,0.003827223088592291,0.0021934290416538715,0.004172478336840868
1772525822958430200,5.13243017578125,0.003395543433725834,-0.0007169540040194988,-0.00030500302091240883
1772525822968413200,5.1424130859375,0.002780352719128132,-0.0007308023050427437,-0.0068563795648515224
1772525822978396200,5.152396240234375,0.008323286660015583,0.0032252317760139704,-0.0075661554001271725
1772525822988380200,5.162380126953125,0.011015476658940315,0.014031806960701942,-0.007152299862354994
1772525822998363100,5.172363037109375,0.011340664699673653,0.021426768973469734,-0.008150642737746239
1772525823008346000,5.18234619140625,0.0104793980717659,0.022197220474481583,-0.00011641858145594597
1772525823018330000,5.192330078125,0.010007316246628761,0.016992777585983276,0.00008966866880655289
1772525823028313000,5.20231298828125,0.007218454498797655,-0.0004405409563332796,0.008488213643431664
1772525823038296300,5.21229638671875,0.003441580105572939,-0.013116708025336266,0.01755344867706299
1772525823048280300,5.2222802734375,-0.00007805321365594864,-0.011081520467996597,0.016498571261763573
1772525823058263000,5.232262939453125,-0.001782344188541174,-0.013940172269940376,0.01234629936516285
1772525823068246000,5.24224609375,-0.007331572938710451,-0.011820829473435879,0.005550179164856672
1772525823078230000,5.25222998046875,-0.010565544478595257,-0.008716798387467861,-0.004636354278773069
1772525823088213200,5.262213134765625,-0.014367473311722279,-0.004122845828533173,-0.013579782098531723
1772525823098196200,5.2721962890625,-0.021018167957663536,0.0024060546420514584,-0.019278336316347122
1772525823108180200,5.28218017578125,-0.018381638452410698,0.004751767031848431,-0.019783273339271545
1772525823118163200,5.2921630859375,-0.020335884764790535,-0.001247722189873457,-0.022765571251511574
1772525823128146200,5.302146240234375,-0.015052173286676407,-0.006596680730581284,-0.018330607563257217
1772525823138130200,5.312130126953125,-0.012111730873584747,-0.009440742433071136,-0.01061655767261982
1772525823148113200,5.322113037109375,-0.010495459660887718,-0.008696122094988823,-0.0005628583021461964
1772525823158096100,5.33209619140625,-0.008416201919317245,-0.01597432978451252,0.009098423644900322
1772525823168081000,5.342080810546875,-0.0040217200294137,-0.01736157014966011,0.01290594507008791
1772525823178064000,5.35206396484375,-0.00675030006095767,-0.01608177088201046,0.017581332474946976
1772525823188046600,5.362046630859375,-0.010521335527300835,-0.010620160028338432,0.015827907249331474
1772525823198030600,5.372030517578125,-0.011059637181460857,-0.0016953404992818832,0.010508127510547638
1772525823208013800,5.382013916015625,-0.01308763399720192,0.004344708751887083,0.005317626986652613
1772525823217996800,5.391996826171875,-0.012646918185055256,0.013286435976624489,0.002243087161332369
1772525823227980800,5.401980712890625,-0.008595717139542103,0.016153329983353615,0.0012169713154435158
1772525823237964000,5.411964111328125,-0.0036288457922637463,0.01513969711959362,-0.0006079771555960178
1772525823247946800,5.42194677734375,0.00260694557800889,0.007899627089500427,-0.0009315512143075466
1772525823257930800,5.4319306640625,0.009458365850150585,-0.007657909765839577,0.0007324484176933765
1772525823267913700,5.441913818359375,0.010552125982940197,-0.010117871686816216,0.0036358265206217766
1772525823277897000,5.45189697265625,0.008989364840090275,-0.012416363693773746,0.0031976415775716305
1772525823287881000,5.461880859375,0.0077171726152300835,-0.006336366757750511,0.003698582062497735
1772525823297863700,5.47186376953125,0.0038649472407996655,0.004906267859041691,0.001955998595803976
1772525823307847000,5.481846923828125,-0.001708250492811203,0.006516947411000729,0.00200819643214345
1772525823317831000,5.491830810546875,-0.0015649935230612755,0.010594546794891357,-0.003061785362660885
1772525823327814000,5.50181396484375,-0.0024986974895000458,0.013277149759232998,-0.006718837656080723
1772525823337796600,5.511796630859375,0.0013058758340775967,0.01916896179318428,-0.005146048031747341
1772525823347780600,5.521780517578125,0.007907586172223091,0.025561081245541573,-0.0016549108549952507
1772525823357763800,5.531763916015625,0.023808026686310768,0.027678929269313812,0.005814109463244677
1772525823367746800,5.541746826171875,0.028129272162914276,0.011144163087010384,0.010732435621321201
1772525823377730800,5.551730712890625,0.029156817123293877,-0.0001613115891814232,0.012482884339988232
1772525823387713800,5.5617138671875,0.026662765070796013,-0.014079258777201176,0.016806792467832565
1772525823397696800,5.57169677734375,0.018732747063040733,-0.02282058447599411,0.017275091260671616
1772525823407680800,5.5816806640625,0.005678464192897081,-0.022238416597247124,0.009787080809473991
1772525823417663700,5.591663818359375,-0.0002735685557126999,-0.014529911801218987,0.002576169092208147
1772525823427647000,5.60164697265625,-0.0049018762074410915,-0.0025198552757501602,-0.011058416217565536
1772525823437631000,5.611630859375,-0.004310807213187218,0.006274503655731678,-0.023316379636526108
1772525823447613700,5.62161376953125,-0.003246874315664172,0.008366948924958706,-0.030280809849500656
1772525823457596700,5.6315966796875,0.000862649641931057,-0.0017003321554511786,-0.02862139418721199
1772525823467580700,5.64158056640625,0.005401475355029106,0.00027546705678105354,-0.022892137989401817
1772525823477564000,5.65156396484375,0.007722269278019667,0.005040224641561508,-0.011167526245117188
1772525823487547000,5.661546875,0.006676978897303343,-0.0031987966503947973,0.005921711679548025
1772525823497530600,5.671530517578125,-0.00130170164629817,-0.013304523192346096,0.014283992350101471
1772525823507513900,5.681513916015625,-0.0000473526306450367,-0.011866416782140732,0.017129845917224884
1772525823517496800,5.691496826171875,0.0020868093706667423,-0.006805762182921171,0.016092870384454727
1772525823527480800,5.701480712890625,-0.0029324505012482405,-0.004607323091477156,0.011027270928025246
1772525823537463800,5.7114638671875,-0.0033594684209674597,-0.00625961646437645,0.0011149505153298378
1772525823547446800,5.72144677734375,-0.007453279569745064,0.0011349166743457317,-0.008977098390460014
1772525823557430800,5.7314306640625,-0.0012429379858076572,0.003112145932391286,-0.012055404484272003
1772525823567413800,5.741413818359375,-0.0020312336273491383,0.004086862783879042,-0.011509722098708153
1772525823577397000,5.75139697265625,-0.002456942806020379,0.005150753539055586,-0.011313329450786114
1772525823587381000,5.761381103515625,-0.002175180474296212,0.010446449741721153,-0.01110799890011549
1772525823597363700,5.77136376953125,-0.0037201929371804,0.010118778795003891,-0.005138872656971216
1772525823607346700,5.7813466796875,-0.0002548876218497753,0.012956111691892147,-0.0016253641806542873
1772525823617330000,5.791329833984375,0.003975903149694204,0.010647580027580261,0.005763547495007515
1772525823627314000,5.80131396484375,0.0038520661182701588,0.002186983358114958,0.008303403854370117
1772525823637297000,5.811296875,0.004121902398765087,0.0031439235899597406,0.00911757629364729
1772525823647279600,5.821279541015625,0.004801008850336075,-0.0007528136484324932,0.007605432998389006
1772525823657263900,5.831263916015625,0.003990094643086195,-0.002846426796168089,0.005735700950026512
1772525823667246800,5.841246826171875,-0.0019753864035010338,0.002764320932328701,0.00288159167394042
1772525823677229800,5.851229736328125,-0.001871447078883648,0.00728049548342824,0.0000827442854642868
1772525823687213800,5.8612138671875,-0.005901342257857323,0.00741951260715723,-0.006393796764314175
1772525823697196800,5.87119677734375,-0.0033939762506633997,0.0039635286666452885,-0.006565837189555168
1772525823707179800,5.8811796875,-0.0021737157367169857,0.0055608926340937614,-0.01114780642092228
1772525823717163800,5.891163818359375,-0.0020179403945803642,-0.001503616338595748,-0.013202808797359467
1772525823727146800,5.901146728515625,-0.0011353688314557076,-0.013378918170928955,-0.009664267301559448
1772525823737129700,5.911129638671875,-0.006884904578328133,-0.00029757595621049404,-0.0024193194694817066
1772525823747113700,5.92111376953125,-0.012045311741530895,0.00613022968173027,-0.005007911939173937
1772525823757096700,5.9310966796875,-0.009476366452872753,0.0011427383869886398,-0.008642030879855156
1772525823767080000,5.941079833984375,-0.0032935719937086105,-0.0068209124729037285,-0.016227778047323227
1772525823777064000,5.95106396484375,-0.0034484942443668842,-0.007193818688392639,-0.012240918353199959
1772525823787047000,5.961046875,-0.002598945749923587,-0.012479127384722233,-0.01187979243695736
1772525823797029600,5.971029541015625,-0.0003781355917453766,-0.013738003559410572,-0.01134503073990345
1772525823807013600,5.981013671875,-0.0015446003526449203,-0.01360404770821333,-0.008242448791861534
1772525823816996900,5.990996826171875,-0.0030590835958719254,-0.002702375641092658,-0.0048173461109399796
1772525823826979800,6.000979736328125,-0.00789804756641388,0.017867080867290497,-0.002077486366033554
1772525823836963800,6.0109638671875,-0.00420778151601553,0.027468344196677208,0.002699575386941433
1772525823846946800,6.02094677734375,-0.004430954810231924,0.019766749814152718,-0.00017104623839259148
1772525823856929800,6.0309296875,0.0027774628251791,0.005537873134016991,0.0017239926382899284
1772525823866913800,6.040913818359375,0.005540758371353149,0.005004975013434887,0.0009777750819921494
1772525823876896800,6.050896728515625,0.007238085847347975,0.0012766793370246887,0.008388741873204708
1772525823886880000,6.0608798828125,0.007852476090192795,0.003365662880241871,0.012411447241902351
1772525823896863700,6.07086376953125,0.014046456664800644,0.0039915055967867374,0.02047470025718212
1772525823906846700,6.0808466796875,0.009669285267591476,0.0032487499993294477,0.029391761869192123
1772525823916830000,6.090829833984375,0.012070676311850548,-0.004257430322468281,0.03261669725179672
1772525823926814000,6.10081396484375,0.010420581325888634,-0.015110344626009464,0.03302016481757164
1772525823936797000,6.110796875,0.007887005805969238,-0.012352947145700455,0.024209601804614067
1772525823946779600,6.120779541015625,-0.0021549761295318604,-0.001352760475128889,0.011679695919156075
1772525823956763600,6.130763671875,-0.007986652664840221,0.004833296872675419,-0.00175192067399621
1772525823966747000,6.140746826171875,-0.007751229219138622,0.012651538476347923,-0.014471177011728287
1772525823976729900,6.150729736328125,-0.005941118113696575,0.020864063873887062,-0.021127944812178612
1772525823986713900,6.1607138671875,-0.004063855856657028,0.018849115818738937,-0.025428950786590576
1772525823996696800,6.17069677734375,0.0006460584700107574,0.015029413625597954,-0.013829517178237438
1772525824006679800,6.1806796875,0.005308986641466618,0.00751796830445528,-0.0005872147157788277
1772525824016663800,6.190663818359375,0.00981566496193409,-0.00598882045596838,0.013830989599227905
1772525824026646800,6.200646728515625,0.010198360309004784,-0.008127870969474316,0.024906011298298836
1772525824036630000,6.210630126953125,0.006790560204535723,-0.011290582828223705,0.02755388244986534
1772525824046613800,6.22061376953125,0.003939379472285509,-0.013736695051193237,0.024818550795316696
1772525824056596700,6.2305966796875,0.0021145441569387913,-0.014379422180354595,0.008776551112532616
1772525824066579700,6.240579833984375,-0.0019323951564729214,-0.015725385397672653,-0.006458593998104334
1772525824076563700,6.250563720703125,-0.006306370720267296,-0.009898653253912926,-0.018657203763723373
1772525824086547000,6.260546875,-0.01187104545533657,-0.005549977533519268,-0.023882590234279633
1772525824096529700,6.27052978515625,-0.012314919382333755,-0.00042342767119407654,-0.027767762541770935
1772525824106513700,6.280513671875,-0.009753757156431675,0.005027530714869499,-0.02224915847182274
1772525824116497000,6.290496826171875,-0.005031210836023092,0.012361240573227406,-0.01050426997244358
1772525824126480000,6.30047998046875,-0.003846636740490794,0.012666705064475536,0.0028235195204615593
1772525824136464000,6.3104638671875,0.0004739603027701378,0.00660499045625329,0.017143288627266884
1772525824146446600,6.320446533203125,0.006163271144032478,0.004780192393809557,0.028651870787143707
1772525824156429800,6.330429931640625,0.008841631934046745,-0.002588322153314948,0.0331718772649765
1772525824166412800,6.340412841796875,0.008168650791049004,-0.004435490816831589,0.03088182769715786
1772525824176396800,6.350396728515625,0.006311438046395779,-0.009301920421421528,0.02762143686413765
1772525824186380000,6.360380126953125,0.00427385326474905,-0.008559430949389935,0.02094755508005619
1772525824196363000,6.370363037109375,0.0026716780848801136,-0.0046583516523242,0.010117452591657639
1772525824206347000,6.380346923828125,-0.0018868548795580864,0.008322161622345448,0.002086690627038479
1772525824216329700,6.390329833984375,-0.0031077249441295862,0.014182482846081257,-0.0035084611736238003
1772525824226313000,6.40031298828125,-0.002884019399061799,0.01688053086400032,-0.004481579642742872
1772525824236297000,6.410296875,-0.0025832534302026033,0.007287709042429924,0.00028755003586411476
1772525824246280000,6.420280029296875,0.000020252540707588196,0.0053356122225522995,0.006981671787798405
1772525824256263000,6.430262939453125,0.003252455499023199,0.004579043481498957,0.013767022639513016
1772525824266247000,6.440246826171875,0.003999472130089998,0.005849637556821108,0.023079298436641693
1772525824276230000,6.45022998046875,0.008337571285665035,0.007767877075821161,0.02388928271830082
1772525824286212900,6.460212890625,0.006944737397134304,0.00807227659970522,0.023148924112319946
1772525824296196900,6.47019677734375,0.0048026819713413715,-0.005711943842470646,0.015512458980083466
1772525824306180000,6.48018017578125,-0.0001390799880027771,-0.01039857417345047,0.005517615471035242
1772525824316162800,6.490162841796875,-0.0010661454871296883,-0.017651613801717758,-0.003729503136128187
1772525824326146800,6.500146728515625,-0.005140782333910465,-0.01399083249270916,-0.012046288698911667
1772525824336129800,6.5101298828125,-0.007992874830961227,-0.0066232867538928986,-0.012889232486486435
1772525824346113000,6.520113037109375,-0.010036318562924862,-0.0023278736043721437,-0.013319864869117737
1772525824356097000,6.530096923828125,-0.012613021768629551,0.0040044598281383514,-0.013386367820203304
1772525824366080000,6.540080078125,-0.011140028014779091,0.009011202491819859,-0.014056152664124966
1772525824376063000,6.55006298828125,-0.009359018877148628,0.008828670717775822,-0.009397296234965324
1772525824386047000,6.560046875,-0.009670075960457325,0.00687657343223691,-0.011061770841479301
1772525824396030000,6.570030029296875,-0.009528662078082561,-0.002502813469618559,-0.008955476805567741
1772525824406013000,6.580012939453125,-0.010702583938837051,-0.009058716706931591,-0.011023687198758125
1772525824415997000,6.589996826171875,-0.007237067446112633,-0.010312249884009361,-0.010632704943418503
1772525824425980000,6.59997998046875,-0.006984333507716656,-0.006305257324129343,-0.005418503191322088
1772525824435963000,6.609962890625,-0.010137384757399559,0.0016676993109285831,-0.00695768091827631
1772525824445947000,6.61994677734375,-0.0041708387434482574,0.0061082541942596436,-0.008205905556678772
1772525824455930000,6.62993017578125,0.00039631035178899765,0.0028356225229799747,-0.0017297035083174706
1772525824465912800,6.639912841796875,0.0028717187233269215,0.0008550297934561968,-0.0026748590171337128
1772525824475896800,6.649896728515625,0.005400409922003746,0.005981822498142719,0.0022329227067530155
1772525824485879800,6.6598798828125,0.004612646996974945,0.005184471607208252,0.008617851883172989
1772525824495863000,6.669863037109375,0.0004789838567376137,0.00325353117659688,0.015686839818954468
1772525824505847000,6.679846923828125,-0.003541856538504362,-0.0003832816146314144,0.019643232226371765
1772525824515830000,6.689830078125,-0.005062522366642952,0.002106274478137493,0.018846994265913963
1772525824525813000,6.69981298828125,-0.004370633512735367,0.007956973277032375,0.0183551087975502
1772525824535797000,6.709796875,0.001453549601137638,0.009276931174099445,0.01460275985300541
1772525824545780000,6.719780029296875,0.003304712940007448,0.007053990848362446,0.007318482268601656
1772525824555763000,6.729762939453125,0.008106961846351624,0.005831168964505196,0.0011649024672806263
1772525824565747000,6.739746826171875,0.011267334222793579,0.004705450963228941,-0.007906090468168259
1772525824575730000,6.74972998046875,0.013469995930790901,0.004525293130427599,-0.010644285008311272
1772525824585713000,6.759712890625,0.008685361593961716,0.00008207513019442558,-0.007427718956023455
1772525824595697000,6.76969677734375,-0.0010096081532537937,0.0015188766410574317,-0.0009194742888212204
1772525824605679900,6.779679931640625,-0.00303414324298501,-0.0013389613013714552,0.006177317816764116
1772525824615662800,6.789662841796875,0.00043477537110447884,-0.005419319495558739,0.008954902179539204
1772525824625646800,6.799646728515625,0.0007767253555357456,-0.01564905419945717,0.011244421824812889
1772525824635629800,6.8096298828125,0.0013801581226289272,-0.02328363060951233,0.011503661051392555
1772525824645613000,6.819613037109375,0.004150644410401583,-0.019902748987078667,0.0037312256172299385
1772525824655597000,6.82959716796875,0.007271964568644762,-0.01232963241636753,-0.0006896806880831718
1772525824665580000,6.839580078125,0.005875136237591505,0.004858142696321011,-0.012298133224248886
1772525824675562800,6.849562744140625,0.005854479037225246,0.013745469972491264,-0.020172251388430595
1772525824685546000,6.8595458984375,0.0002498561516404152,0.0137217678129673,-0.021563220769166946
1772525824695530000,6.869530029296875,0.0036517581902444363,0.010238678194582462,-0.02077396959066391
1772525824705513000,6.879512939453125,0.0048176902346313,-0.004457710310816765,-0.010098953731358051
1772525824715496000,6.889495849609375,0.008610889315605164,-0.01653214544057846,0.0013731839135289192
1772525824725480000,6.89947998046875,0.007920065894722939,-0.021857935935258865,0.008397004567086697
1772525824735463000,6.909462890625,0.006534954067319632,-0.021118400618433952,0.01224099937826395
1772525824745446000,6.91944580078125,0.005335200112313032,-0.010366953909397125,0.010236971080303192
1772525824755430000,6.929429931640625,0.002105622086673975,0.0057516684755682945,0.008466416969895363
1772525824765413000,6.9394130859375,-0.0006262487731873989,0.015224266797304153,0.0008367267437279224
1772525824775395800,6.949395751953125,-0.005070798099040985,0.01743495650589466,-0.007223596330732107
1772525824785379800,6.9593798828125,-0.003984495066106319,0.016384338960051537,-0.005062175448983908
1772525824795363000,6.969363037109375,-0.00044140545651316643,0.008370807394385338,-0.0028005288913846016
1772525824805346000,6.979345947265625,0.0054002380929887295,0.006379828788340092,0.003901049494743347
1772525824815330000,6.989330078125,0.009969746693968773,0.009416142478585243,0.00981888733804226
1772525824825312800,6.999312744140625,0.009907960891723633,0.009153821505606174,0.014086069539189339
1772525824835296000,7.0092958984375,0.0037837564013898373,0.006774553097784519,0.018213704228401184
1772525824845280000,7.019280029296875,0.0033461987040936947,0.0029145677108317614,0.01806296780705452
1772525824855263000,7.029262939453125,-0.000967247411608696,0.00023912079632282257,0.015905391424894333
1772525824865245700,7.03924560546875,-0.00642353156581521,-0.0016972636803984642,0.010849380865693092
1772525824875230000,7.04922998046875,-0.00757365208119154,-0.005890017841011286,0.0009811860509216785
1772525824885213000,7.059212890625,-0.006577363703399897,-0.013985760509967804,-0.00631933705881238
1772525824895196000,7.06919580078125,-0.007139141205698252,-0.009738863445818424,-0.013959120959043503
1772525824905180000,7.079179931640625,-0.0030277532059699297,-0.0032833616714924574,-0.018528573215007782
1772525824915163100,7.0891630859375,-0.004142800346016884,0.004554507322609425,-0.0147398691624403
1772525824925145900,7.099145751953125,-0.007176407612860203,0.00891969446092844,-0.014715101569890976
1772525824935129900,7.1091298828125,-0.010540644638240337,0.005741755478084087,-0.01372080110013485
1772525824945112800,7.11911279296875,-0.009289491921663284,0.004864243790507317,-0.011762311682105064
1772525824955096000,7.129095947265625,-0.011947764083743095,0.017089102417230606,-0.010217471979558468
1772525824965080000,7.139080078125,-0.004585455171763897,0.002783134113997221,-0.005958011373877525
1772525824975062800,7.149062744140625,0.00047614844515919685,-0.002613229211419821,0.006715439260005951
1772525824985046000,7.1590458984375,-0.0013405256904661655,-0.002957829274237156,0.015231834724545479
1772525824995030000,7.169030029296875,0.0025141332298517227,-0.005465461872518063,0.01764599047601223
1772525825005013000,7.179012939453125,0.002009997144341469,-0.006810357794165611,0.01710137352347374
1772525825014995700,7.18899560546875,0.003594824578613043,-0.017201174050569534,0.014205324463546276
1772525825024979700,7.198979736328125,0.004858760628849268,0.008919375017285347,0.01761496812105179
1772525825034963000,7.208962890625,-0.004397474694997072,0.01388466078788042,0.015020307153463364
1772525825044946000,7.21894580078125,-0.005670199170708656,0.009939986281096935,0.009632199071347713
1772525825054930000,7.228929931640625,0.0009221709333360195,0.014816829934716225,0.006966260727494955
1772525825064913200,7.2389130859375,0.0041227578185498714,0.016003267839550972,0.006669051945209503
1772525825074896000,7.248895751953125,0.011452710255980492,0.004460624419152737,0.003205243032425642
1772525825084878800,7.25887890625,0.012232748791575432,0.004468880593776703,0.007930755615234375
1772525825094862800,7.26886279296875,0.011487198993563652,0.004113362170755863,0.008918394334614277
1772525825104846000,7.27884619140625,0.011203838512301445,0.00929773785173893,0.005672799423336983
1772525825114828800,7.288828857421875,0.011174849234521389,0.019870886579155922,-0.0010477607138454914
1772525825124812800,7.298812744140625,0.008872014470398426,0.02582651376724243,-0.010328076779842377
1772525825134796000,7.308796142578125,0.0012754774652421474,0.01699061691761017,-0.015124867670238018
1772525825144779000,7.318779052734375,0.0024547255598008633,0.01464996486902237,-0.017946485430002213
1772525825154763000,7.328762939453125,-0.002586638554930687,0.01687903143465519,-0.006946300156414509
1772525825164746000,7.33874609375,-0.011062681674957275,0.029319189488887787,0.020247237756848335
1772525825174729200,7.348729248046875,-0.02020864188671112,0.04351437836885452,0.03792091831564903
1772525825184713200,7.358713134765625,-0.017094342038035393,0.06457625329494476,0.026330843567848206
1772525825194696200,7.3686962890625,-0.00251431530341506,0.05889911204576492,-0.012682512402534485
1772525825204679200,7.37867919921875,0.007474403362721205,0.03108026646077633,-0.046626631170511246
1772525825214663200,7.3886630859375,-0.0005816025659441948,0.029103977605700493,-0.06527218967676163
1772525825224646100,7.398646240234375,-0.012709638103842735,0.026661859825253487,-0.06699898838996887
1772525825234629000,7.408629150390625,-0.006474243476986885,0.018726475536823273,-0.05269233137369156
1772525825244613000,7.418613037109375,0.009590476751327515,-0.0013521609362214804,-0.02809271216392517
1772525825254596400,7.428596435546875,0.018755268305540085,-0.02378208190202713,0.0020018182694911957
1772525825264579300,7.438579345703125,0.023738309741020203,-0.022318674251437187,0.02392975427210331
1772525825274563000,7.44856298828125,0.02442382648587227,-0.01843908429145813,0.03759317472577095
1772525825284546000,7.458546142578125,0.021632034331560135,-0.016719214618206024,0.03457155078649521
1772525825294529300,7.468529296875,0.010660838335752487,-0.0141924899071455,0.012376868166029453
1772525825304513300,7.47851318359375,0.003288143314421177,-0.013339744880795479,-0.014612670987844467
1772525825314496300,7.488496337890625,-0.006034442689269781,-0.0056230453774333,-0.0395248681306839
1772525825324479000,7.49847900390625,-0.010119998827576637,0.0017360672354698181,-0.05422711372375488
1772525825334463200,7.508463134765625,-0.0043783001601696014,0.01147609855979681,-0.0570932999253273
1772525825344446200,7.5184462890625,-0.0004344247281551361,0.017065539956092834,-0.052131034433841705
1772525825354429200,7.52842919921875,0.004900362808257341,0.01419167872518301,-0.04489392042160034
1772525825364413200,7.5384130859375,0.0038177878595888615,0.0069161891005933285,-0.029869694262742996
1772525825374396200,7.548396240234375,-0.001774185337126255,0.0019118522759526968,-0.0062241447158157825
1772525825384379100,7.558379150390625,-0.007600648794323206,0.00595612870529294,0.015253450721502304
1772525825394363100,7.568363037109375,-0.013385297730565071,0.0022686910815536976,0.029538588598370552
1772525825404346000,7.57834619140625,-0.012769308872520924,-0.009385036304593086,0.03072529286146164
1772525825414329300,7.588329345703125,-0.004692438989877701,-0.01870676688849926,0.0187373124063015
1772525825424313000,7.59831298828125,0.005022239871323109,-0.0161871500313282,0.0028816508129239082
1772525825434296000,7.608296142578125,0.014907477423548698,-0.008017520420253277,-0.008346440270543098
1772525825444279300,7.618279296875,0.024614432826638222,-0.003840352175757289,-0.020282993093132973
1772525825454262300,7.62826220703125,0.025137819349765778,-0.0010246536694467068,-0.02615249529480934
1772525825464246300,7.638246337890625,0.0205135066062212,0.007022620178759098,-0.02337322011590004
1772525825474229000,7.64822900390625,0.008300229907035828,0.013195088133215904,-0.011772867292165756
1772525825484212200,7.658212158203125,-0.0013992688618600368,0.022107623517513275,-0.007735514547675848
1772525825494196200,7.6681962890625,-0.00039407750591635704,0.02133273519575596,-0.0015715775080025196
1772525825504179200,7.67817919921875,-0.0027275392785668373,0.01261114701628685,0.0016098348423838615
1772525825514162200,7.688162109375,-0.00020010396838188171,-0.0029982877895236015,0.005798929370939732
1772525825524146200,7.698146240234375,0.005464439745992422,-0.013059710152447224,0.003584777470678091
1772525825534129200,7.708129150390625,0.014865627512335777,-0.017131291329860687,0.00028622429817914963
1772525825544112000,7.718112060546875,0.01776021718978882,-0.016446592286229134,-0.003092794679105282
1772525825554096000,7.72809619140625,0.014326829463243484,-0.011789614334702492,-0.012724804691970348
1772525825564079400,7.738079345703125,0.008361350744962692,0.004499876871705055,-0.01685084030032158
1772525825574062000,7.74806201171875,0.004616393242031336,0.025248892605304718,-0.01694975420832634
1772525825584046000,7.758046142578125,0.0025465846993029118,0.034741733223199844,-0.01868746615946293
1772525825594029300,7.768029296875,0.008292184211313725,0.028915418311953545,-0.02589510567486286
1772525825604012300,7.77801220703125,0.009522564709186554,0.005350437015295029,-0.029600361362099648
1772525825613996300,7.787996337890625,0.007744999136775732,-0.007446414791047573,-0.025723636150360107
1772525825623979000,7.79797900390625,0.007804121356457472,-0.01594775915145874,-0.017865445464849472
1772525825633962200,7.807962158203125,0.009476092644035816,-0.0181476678699255,-0.005145457107573748
1772525825643946200,7.8179462890625,0.015400560572743416,-0.016272002831101418,0.0012376070953905582
1772525825653929200,7.82792919921875,0.02062283083796501,-0.0075273215770721436,0.007501171436160803
1772525825663912200,7.837912109375,0.02519094944000244,-0.003478517523035407,0.005598076619207859
1772525825673896200,7.847896240234375,0.026661831885576248,0.005540731828659773,0.008629375137388706
1772525825683879200,7.857879150390625,0.02299918793141842,0.004662155173718929,0.0021712100133299828
1772525825693862100,7.867862060546875,0.02000206522643566,0.00863988883793354,0.00011582532897591591
1772525825703846100,7.87784619140625,0.016963664442300797,0.01621338725090027,-0.0053100986406207085
1772525825713829400,7.887829345703125,0.014813769608736038,0.015360850840806961,-0.009355872869491577
1772525825723812000,7.89781201171875,0.012862738221883774,0.014301178976893425,-0.01219879649579525
1772525825733796000,7.907796142578125,0.006844147574156523,0.013080848380923271,-0.01327155064791441
1772525825743779000,7.917779052734375,0.001423016656190157,0.005860752426087856,-0.008538047783076763
1772525825753762300,7.92776220703125,-0.0012294547632336617,0.004343122709542513,-0.00954161211848259
1772525825763746300,7.937746337890625,-0.005050025414675474,0.0034245983697474003,-0.00834292359650135
1772525825773729000,7.94772900390625,-0.005492963828146458,0.0012860246933996677,-0.013224555179476738
1772525825783712300,7.957712158203125,-0.003235668409615755,-0.0033526693005114794,-0.019032111391425133
1772525825793696300,7.9676962890625,0.0012462963350117207,-0.013439638540148735,-0.024071702733635902
1772525825803679200,7.97767919921875,0.004109460394829512,-0.020657069981098175,-0.02880627103149891
1772525825813662200,7.987662109375,0.005077843554317951,-0.015717945992946625,-0.024334019050002098
1772525825823646000,7.99764599609375,-0.005256553180515766,-0.011228654533624649,-0.02223704755306244
1772525825833627100,8.007627197265625,-0.010420423001050949,-0.0060133859515190125,-0.0195911955088377
1772525825843610400,8.0176103515625,-0.013714771717786789,-0.011121761985123158,-0.02277480810880661
1772525825853594000,8.027593994140625,-0.011297078803181648,-0.0071268100291490555,-0.023036500439047813
1772525825863577000,8.0375771484375,-0.008289836347103119,-0.0008318966720253229,-0.01927505061030388
1772525825873560000,8.04756005859375,-0.008307775482535362,0.0020404383540153503,-0.014220844954252243
1772525825883544300,8.05754443359375,-0.0007377397269010544,-0.0017127546016126871,-0.0045141554437577724
1772525825893527300,8.06752734375,0.006974813062697649,0.003951381891965866,0.007120331283658743
1772525825903510000,8.077510009765625,0.006423272658139467,-0.004002681002020836,-0.0006244075484573841
1772525825913494000,8.087493896484375,0.017803339287638664,-0.02251024916768074,-0.007335806265473366
1772525825923477200,8.097477294921875,0.021828440949320793,-0.024148892611265182,-0.008791224099695683
1772525825933460200,8.107460205078125,0.009235018864274025,-0.010950274765491486,0.000626368448138237
1772525825943444200,8.1174443359375,-0.001719894353300333,0.007273470051586628,0.007909847423434258
1772525825953427200,8.12742724609375,-0.0011334470473229885,0.02536078169941902,0.01124714408069849
1772525825963410200,8.13741015625,-0.009878735058009624,0.030682308599352837,0.01639183796942234
1772525825973394200,8.147394287109375,-0.007539300713688135,0.07434465736150742,0.02524930238723755
1772525825983377200,8.157377197265625,-0.004595176316797733,0.07610660791397095,0.03053860366344452
1772525825993360400,8.1673603515625,-0.004958696663379669,0.07274145632982254,0.035913147032260895
1772525826003344100,8.17734423828125,-0.011808080598711967,0.05438056215643883,0.025378478690981865
1772525826013327000,8.1873271484375,-0.00532275065779686,0.06987190246582031,-0.00234635965898633
1772525826023310000,8.19731005859375,-0.0024891472421586514,0.08333471417427063,-0.0279084462672472
1772525826033293300,8.207293212890624,-0.004625230561941862,0.10358360409736633,-0.05392046645283699
1772525826043277300,8.21727734375,-0.00048641208559274673,0.12799173593521118,-0.07216658443212509
1772525826053260000,8.227260009765626,-0.001282375305891037,0.13419269025325775,-0.07776342332363129
1772525826063243300,8.2372431640625,-0.00150980893522501,0.12611453235149384,-0.08282369375228882
1772525826073227300,8.247227294921874,0.003072238527238369,0.11948852241039276,-0.08049044758081436
1772525826083210200,8.257210205078126,0.0028932737186551094,0.11542666703462601,-0.0834774449467659
1772525826093193200,8.267193115234376,0.0023034573532640934,0.10353537648916245,-0.09495815634727478
1772525826103177000,8.277177001953126,0.0015820073895156384,0.1166519820690155,-0.11214513331651688
1772525826113160200,8.28716015625,0.003035200759768486,0.16377031803131104,-0.12676694989204407
1772525826123143200,8.29714306640625,0.005400354042649269,0.21815605461597443,-0.14557792246341705
1772525826133127200,8.307127197265626,0.00788532942533493,0.2478323131799698,-0.16453087329864502
1772525826143110400,8.3171103515625,0.010386835783720016,0.23969022929668427,-0.18252532184123993
1772525826153093000,8.327093017578125,0.013850200921297073,0.20096708834171295,-0.1647310107946396
1772525826163077000,8.3370771484375,0.0021288301795721054,0.1094675213098526,-0.12213695049285889
1772525826173059600,8.3470595703125,0.012508350424468517,0.009619281627237797,-0.08200125396251678
1772525826183042300,8.357042236328125,0.03137977793812752,-0.0685729905962944,-0.06240624934434891
1772525826193026300,8.3670263671875,0.03640085831284523,-0.10846003144979477,-0.026779137551784515
1772525826203012400,8.377012451171876,0.027989264577627182,-0.12772266566753387,0.0020839357748627663
1772525826212995300,8.386995361328125,0.027810432016849518,-0.12990836799144745,0.0046491920948028564
1772525826222978300,8.396978271484375,0.02631373703479767,-0.10204876214265823,-0.022738223895430565
1772525826232962300,8.40696240234375,0.009428689256310463,-0.0655977800488472,-0.06620219349861145
1772525826242945500,8.416945556640625,-0.02506483905017376,-0.05156664922833443,-0.1327042579650879
1772525826252928300,8.42692822265625,-0.06158201023936272,0.026591436937451363,-0.19453169405460358
1772525826262912300,8.436912353515625,-0.07953864336013794,0.11347626149654388,-0.230887308716774
1772525826272895200,8.446895263671875,-0.06714600324630737,0.15354345738887787,-0.21634170413017273
1772525826282878500,8.45687841796875,-0.06287109851837158,0.05168100818991661,-0.18806079030036926
