time,seconds_elapsed,z,y,x
1772526270390131700,0.086131591796875,-0.15287410146296024,-0.470270656606555,-1.2130414726622403
1772526270400114700,0.09611474609375,-0.2730471258074045,-0.5099766440510749,-1.3972151138827205
1772526270410097000,0.106096923828125,-0.4038835829854011,-0.4987900641262531,-1.6423619869820774
1772526270420079600,0.11607958984375,-0.6502683273166417,-0.4759411034584045,-1.8554153934672475
1772526270430062800,0.126062744140625,-0.9678916769534349,-0.46089024932086464,-1.927853876081854
1772526270440044800,0.136044921875,-1.2376333314746617,-0.4102034336566925,-1.8591092795491218
1772526270450027800,0.14602783203125,-1.4388982466191051,-0.4498240809053182,-1.517553850182891
1772526270460009700,0.156009765625,-1.366922559210658,-0.6705883540287614,-0.9123281951636075
1772526270469993000,0.165992919921875,-1.05244159925282,-0.749316438306868,-0.5375256721686571
1772526270479975700,0.1759755859375,-0.6682125648081302,-0.755521430426836,-0.4923166303284466
1772526270489958000,0.1859580078125,-0.36111762344837184,-0.810488699889183,-0.6050069707673043
1772526270499940900,0.19594091796875,-0.1780593961238861,-0.9875807122856378,-0.8431116702701896
1772526270509923800,0.205923828125,-0.14217092114090918,-1.227412673972547,-1.1107102483481168
1772526270519905800,0.21590576171875,-0.43094694647789,-1.395599203118682,-1.432958919698
1772526270529888800,0.225888671875,-1.0964514213711023,-1.2585063158944247,-1.6907362879201768
1772526270539870700,0.23587060546875,-1.8274030586868524,-0.6800625770777463,-1.9160393735170362
1772526270549853700,0.245853759765625,-2.562378544691205,0.13080576977878808,-2.004027453571558
1772526270559837000,0.2558369140625,-3.1701328414052723,0.9760258835703134,-1.862657181289047
1772526270569818600,0.265818603515625,-3.5021313378751278,1.8097104578688739,-1.5533182603947817
1772526270579801900,0.2758017578125,-3.602531740257144,2.5424068930253383,-1.1429327481694518
1772526270589783800,0.28578369140625,-3.4849317812711,3.074296385937929,-0.6559689501110464
1772526270599766800,0.295766845703125,-3.164260734501481,3.2875697187840935,-0.18864874080792068
1772526270609749800,0.305749755859375,-2.6449597972661256,3.239424112035334,0.11767653135359286
1772526270619732700,0.315732666015625,-1.8736381556391715,2.990653933872282,0.23224347931928932
1772526270629715700,0.3257158203125,-1.0417278975367545,2.580516843450069,0.21458938388079404
1772526270639697700,0.33569775390625,-0.29424247404932974,2.170159972797334,0.12746712687537073
1772526270649680600,0.3456806640625,0.32110768462121486,1.8055021925240755,0.025996464913338423
1772526270659663600,0.35566357421875,0.774941585689783,1.3641738450244068,-0.010000731141120194
1772526270669645600,0.3656455078125,1.1390636516511439,0.843435860723257,-0.0066582888454198835
1772526270679628500,0.375628662109375,1.3925976832151412,0.3043225540369749,0.008159414123371242
1772526270689610800,0.38561083984375,1.6004291172683238,-0.1975964557647705,-0.0999942327339202
1772526270699593500,0.395593505859375,1.75558577671051,-0.6013359541043639,-0.39986959810368716
1772526270709576700,0.40557666015625,1.834615474283695,-0.8777788598299026,-0.8158528572708368
1772526270719558700,0.41555859375,1.8144786951839922,-1.103328321403265,-1.2468024340972303
1772526270729541600,0.425541748046875,1.6986632815271614,-1.3074427807599305,-1.6313143771365284
1772526270739523600,0.435523681640625,1.5027128394037483,-1.3996996241748332,-1.9086372805669902
1772526270749506800,0.4455068359375,1.2395575775355099,-1.310562374085188,-2.0436206282913685
1772526270759489500,0.455489501953125,0.9310334801554679,-0.9970400300264358,-2.166183031990379
1772526270769471700,0.4654716796875,0.689707188257575,-0.5239420410394668,-2.2246979109317064
1772526270779454700,0.475454833984375,0.5597977827966213,-0.017974632629752157,-2.138594329449534
1772526270789436700,0.485436767578125,0.45264732163250443,0.43377486338019366,-1.9519047598853707
1772526270799419600,0.495419677734375,0.3855231659084558,0.7691635868102311,-1.7136273341640829
1772526270809402600,0.505402587890625,0.45521337272822854,1.0329323044016956,-1.4105596024937928
1772526270819384600,0.515384521484375,0.5446224254965781,1.2285530761793255,-1.0743637273993343
1772526270829367600,0.525367431640625,0.6551432398766279,1.3607146444812417,-0.7661673276036978
1772526270839349500,0.535349609375,0.7540466816991567,1.4038839241221546,-0.5117625045545399
1772526270849332500,0.54533251953125,0.8238193061053752,1.4133242449015377,-0.3823604640938341
1772526270859315700,0.555315673828125,0.9387053299576044,1.3658587293714284,-0.2999454349312931
1772526270869297400,0.56529736328125,1.044462875458598,1.270160805591941,-0.2668202141165733
1772526270879280600,0.57528076171875,1.1485726537525653,1.0983365044653415,-0.2829619322307408
1772526270889263600,0.585263671875,1.2298796486079693,0.9080448187559843,-0.2841539184942841
1772526270899245600,0.59524560546875,1.2832149329543112,0.7529653162032366,-0.29973434946388006
1772526270909228500,0.605228515625,1.2845868058294057,0.6117305068686604,-0.3214874777190387
1772526270919210800,0.615210693359375,1.2284224355369806,0.5032955588519573,-0.3342028746463358
1772526270929193500,0.625193359375,1.136482402986288,0.3977411347076297,-0.28608342525213953
1772526270939176400,0.635176513671875,0.9571241992235183,0.3139695033043623,-0.2071902135401964
1772526270949158700,0.64515869140625,0.686587010410428,0.2845595766857266,-0.10482464856505394
1772526270959141400,0.655141357421875,0.3462199140459299,0.3263467543184757,-0.02506882867440581
1772526270969123600,0.66512353515625,-0.0777560243755579,0.39070466019958255,0.009136661657691001
1772526270979106600,0.6751064453125,-0.4938654672056436,0.46480245432853695,0.00040200492963194843
1772526270989089500,0.685089599609375,-0.8931938711047172,0.569341563950479,-0.0071678458027541634
1772526270999071500,0.695071533203125,-1.2538760257452726,0.6537745818719267,-0.019027941074967383
1772526271009054700,0.7050546875,-1.5503490353256464,0.6718801474049687,0.005662263545393943
1772526271019036400,0.715036376953125,-1.7204554266184566,0.5234978044033051,0.21459493683874606
1772526271029019600,0.72501953125,-1.7364543752610682,0.31341946820616723,0.41782201890163123
1772526271039002600,0.735002685546875,-1.6099351967602966,0.2326820899322629,0.3448676957193762
1772526271048984600,0.744984619140625,-1.2899515477329493,0.25005846440792084,0.028294293526932596
1772526271058967600,0.754967529296875,-0.9082154991477728,0.2599421450406313,-0.37848946787938476
1772526271068949800,0.76494970703125,-0.6278185950994492,0.12980828317403792,-0.6925599473401903
1772526271078932500,0.774932373046875,-0.37044250115454197,-0.0027349779218435286,-0.8953136397376656
1772526271088915700,0.784915771484375,-0.10479600699245929,0.01193476794362068,-1.1152275065768509
1772526271098897700,0.794897705078125,0.0840174228578806,0.158419168369472,-1.27675508929044
1772526271108880600,0.804880615234375,0.08799275622963905,0.36598844435513017,-1.290055446498841
1772526271118862600,0.814862548828125,-0.15709727211594582,0.6077022742658853,-1.217139920957014
1772526271128845600,0.824845458984375,-0.49206864691674707,0.900393134959042,-1.1670111045017837
1772526271138828500,0.83482861328125,-0.7878805622398852,1.2073568511545658,-1.1424725102465598
1772526271148810800,0.844810791015625,-1.0258511139690876,1.492592427405715,-1.135143555597961
1772526271158793700,0.854793701171875,-1.1848334691792726,1.7146707057371735,-1.1022770587846635
1772526271168775700,0.864775634765625,-1.261850073364377,1.8507526623532176,-1.0189791823729872
1772526271178758700,0.874758544921875,-1.2455699696928262,1.854015463541448,-0.850950912528485
1772526271188741600,0.88474169921875,-1.0550456442713736,1.6660221179023385,-0.6229807996794581
1772526271198723600,0.8947236328125,-0.7042126834720372,1.332947808894515,-0.43210795308127997
1772526271208706600,0.90470654296875,-0.2873293336600065,0.9797165547817945,-0.2803111254610121
1772526271218688800,0.914688720703125,0.16748773322701452,0.7241130234673618,-0.30198870426192875
1772526271228671500,0.92467138671875,0.6244266145735978,0.46124359280318017,-0.3220888046130538
1772526271238654700,0.93465478515625,0.9697820207446813,0.05477496176064014,-0.29439503426253794
1772526271248636700,0.94463671875,1.1943413022369145,-0.31454671867042777,-0.3939771059989929
1772526271258619600,0.95461962890625,1.2701496996760369,-0.5743161374926566,-0.6532203089900315
1772526271268601600,0.9646015625,1.0407985077321529,-0.7396019767612219,-1.09611999745965
1772526271278584800,0.974584716796875,0.4541127180099487,-0.8745882470950483,-1.6139692745819687
1772526271288567600,0.984567626953125,-0.3404091819405555,-0.9385980701908468,-2.12122482310608
1772526271298549800,0.9945498046875,-1.0956529644697903,-0.8669581906080246,-2.593805364090204
1772526271308532700,1.00453271484375,-1.6284721394479273,-0.6351745108202099,-2.906410008782148
1772526271318514700,1.0145146484375,-1.969821232587099,-0.28583763379752636,-3.0476316663742065
1772526271328497700,1.02449755859375,-2.1217454859793183,0.11044833366572857,-3.0460289073526856
1772526271338480600,1.034480712890625,-2.067851398706436,0.517158664509654,-2.9342376346454024
1772526271348462600,1.044462646484375,-1.8223317467719315,0.9107935329422354,-2.727447818599641
1772526271358445600,1.054445556640625,-1.438113233721256,1.2122215345814824,-2.448445876041055
1772526271368427500,1.064427490234375,-0.9924304904043674,1.3600003587320446,-2.161297744166851
1772526271378410500,1.074410400390625,-0.5522878455579281,1.3863307317748665,-1.949581139243394
1772526271388393700,1.084393798828125,-0.12905249637067318,1.3706985706180332,-1.8034755090020596
1772526271398375400,1.09437548828125,0.2431307109713554,1.3548779011517762,-1.6740315290957688
1772526271408358700,1.104358642578125,0.4813303952813148,1.310873631991446,-1.549156026148796
1772526271418340600,1.114340576171875,0.6254238089174032,1.2117603468105196,-1.438123901245743
1772526271428323600,1.124323486328125,0.6691214963465929,1.0732526243522762,-1.3400427355915308
1772526271438306600,1.134306640625,0.6039905602663755,0.9239403070241212,-1.2990350178986787
1772526271448288800,1.144288818359375,0.5156172802865505,0.7672866870224475,-1.340146780487895
1772526271458271500,1.154271484375,0.38815351441204543,0.6007718904808164,-1.4162430549576879
1772526271468253700,1.164253662109375,0.2854384053468704,0.46147214086204763,-1.5170204739585518
1772526271478236700,1.174236572265625,0.24345044444501399,0.3890443257719278,-1.6075557542778551
1772526271488219400,1.184219482421875,0.28393092339336873,0.3679538992092013,-1.6419490222670137
1772526271498201600,1.19420166015625,0.34389468596875666,0.33591859252303835,-1.603930257257074
1772526271508184600,1.2041845703125,0.42920565576851366,0.31565906382650133,-1.4959537205323576
1772526271518166500,1.21416650390625,0.45792204716503615,0.2912435844942927,-1.4113435924783349
1772526271528149500,1.2241494140625,0.4569178385585546,0.28699644844383,-1.3524759545765817
1772526271538132700,1.2341328125,0.36574645229279995,0.2440419805973768,-1.2779131732843816
1772526271548114400,1.244114501953125,0.2274900742471218,0.1704363538995385,-1.1661758227214216
1772526271558097700,1.25409765625,0.10484335326552391,0.0789279907643795,-0.9729188574656844
1772526271568079600,1.26407958984375,0.017827917635440824,-0.062279346041381356,-0.7240890580698848
1772526271578062600,1.2740625,0.0018067571610212326,-0.3410445572346449,-0.3789740365259349
1772526271588045600,1.284045654296875,0.14114040904939174,-0.7024608713686465,-0.07331248897016047
1772526271598027800,1.29402783203125,0.3997469215720892,-0.8516191671788692,0.02296659569814801
1772526271608010500,1.304010498046875,0.6207774444162846,-0.9448062771812081,-0.03423208607807755
1772526271617992700,1.31399267578125,0.6773918965637683,-1.0931292912110686,-0.23336101210713386
1772526271627975200,1.32397509765625,0.5585433988213538,-1.2818421832963824,-0.5206286787077784
1772526271637958100,1.333958251953125,0.3660989189922809,-1.3329744046404957,-0.8981457944236695
1772526271647940000,1.343940185546875,0.061413376861810684,-1.1367720335826277,-1.2456526795402167
1772526271657923300,1.35392333984375,-0.4366530491650104,-0.7753980972856283,-1.4553452312901616
1772526271667905000,1.363905029296875,-0.9893781170964241,-0.3466799327731132,-1.4667964535005389
1772526271677888300,1.37388818359375,-1.4981886399775743,0.06944120049476624,-1.2321949398130179
1772526271687871200,1.383871337890625,-1.87992585760653,0.5030012520805001,-0.8960156505271792
1772526271697853200,1.393853271484375,-2.067486072525382,0.8916074786961078,-0.5207897144883871
1772526271707836200,1.403836181640625,-2.0452964525491,1.173544013401866,-0.13450813142806292
1772526271717818000,1.413818115234375,-1.8353864586561917,1.3270704412937164,0.16060878736823797
1772526271727801000,1.423801025390625,-1.444331377583742,1.3645473545119167,0.3494444290503859
1772526271737784000,1.4337841796875,-1.0066372949331999,1.2465762241259217,0.46163960638344287
1772526271747766000,1.44376611328125,-0.6977326738029718,1.0162085486158727,0.5000526314079761
1772526271757749000,1.4537490234375,-0.4813444238066673,0.7940624657452106,0.5334371607460081
1772526271767731200,1.463731201171875,-0.23915187046825884,0.6341939753502607,0.5546105894170701
1772526271777714000,1.4737138671875,0.04806289690136909,0.5272103951856494,0.5781678444847465
1772526271787697200,1.483697265625,0.3317009748280048,0.3956877093091607,0.601262158215791
1772526271797679000,1.49367919921875,0.45654199098348613,0.18739567200690507,0.6465475532278419
1772526271807662000,1.503662109375,0.47917643211781974,-0.012132920864224433,0.652338849980384
1772526271817644000,1.51364404296875,0.45879941452145573,-0.1673605997160077,0.6596966653972863
1772526271827627300,1.523627197265625,0.40620121227800843,-0.325318580314517,0.6980835330672561
1772526271837610000,1.53360986328125,0.36032559628784655,-0.34466274773180483,0.6050174190960824
1772526271847592200,1.54359228515625,0.2973147211015224,-0.25680676962435245,0.4589033132873475
1772526271857575200,1.5535751953125,0.12297697584927081,-0.12937106080055236,0.332848537427932
1772526271867557000,1.56355712890625,-0.12428805844783783,0.06726064158529042,0.17693769861757755
1772526271877540000,1.5735400390625,-0.38095629638433454,0.3078305621579289,-0.01267784139588475
1772526271887523000,1.583523193359375,-0.65198740619421,0.5129015915870666,-0.19710238863751292
1772526271897505000,1.593505126953125,-0.9293389511972665,0.6530544509038329,-0.3172476481921971
1772526271907488000,1.603488037109375,-1.2220160756260157,0.7497817177310585,-0.30935864850804207
1772526271917470200,1.61347021484375,-1.4364958616524934,0.8540767894640564,-0.2306393320582807
1772526271927453000,1.623452880859375,-1.4998533583194016,0.9988494175359606,-0.1478532045610249
1772526271937436200,1.633436279296875,-1.3933523009747266,1.1127195423439145,-0.07143558918237686
1772526271947418000,1.643418212890625,-1.1393149960637092,1.145820140174031,-0.018736703043431044
1772526271957401000,1.653401123046875,-0.7400982358455658,1.1096093013688921,0.02214373500794172
1772526271967383000,1.663383056640625,-0.27999592203199863,1.003982981032133,0.01773936256915331
1772526271977366300,1.6733662109375,0.08506547060608863,0.8422004737094044,-0.06124561907947063
1772526271987349000,1.683348876953125,0.4157148905545473,0.6665370328113436,-0.18326383289918302
1772526271997331200,1.693331298828125,0.692025402072072,0.49589025103151796,-0.34380613090246914
1772526272007314200,1.703314208984375,0.9317454278171062,0.32236411442309615,-0.4581745606213808
1772526272017296100,1.713296142578125,1.0842904434561729,0.15316870049536227,-0.5368741494573652
1772526272027279000,1.723279052734375,1.209292203131318,-0.005260404746234417,-0.6236081377975642
1772526272037262000,1.733261962890625,1.300813718008995,-0.08999094430953264,-0.7248455755256116
1772526272047244000,1.743244140625,1.3187293139278888,-0.1530675782084465,-0.8088071765430271
1772526272057227000,1.75322705078125,1.2872487185150383,-0.24097996267825364,-0.8426808045722544
1772526272067209000,1.763208984375,1.2275830621033905,-0.3308487419128418,-0.8047866888552904
1772526272077192200,1.773192138671875,1.0973498315155505,-0.43133857614398,-0.7458443782821297
1772526272087175200,1.783175048828125,0.8403928397655487,-0.4768392213419079,-0.660173050737381
1772526272097157000,1.7931572265625,0.37607320051789284,-0.4307429483383894,-0.6354086118370295
1772526272107140000,1.80314013671875,-0.1375730719566345,-0.2739621948257088,-0.7016634373806416
1772526272117122000,1.8131220703125,-0.5805570777088404,-0.09455196861475705,-0.7642546258501708
1772526272127105000,1.82310498046875,-0.9974503643929957,0.09716039754748344,-0.7684035622231662
1772526272137088000,1.833087890625,-1.3302730367273092,0.2863634112372994,-0.7638269019573927
1772526272147070200,1.8430703125,-1.595428532502055,0.47714258820265526,-0.7594824430122971
1772526272157053000,1.853052978515625,-1.7336662058472632,0.6444166786789893,-0.7511920229203999
1772526272167035100,1.86303515625,-1.748998799535632,0.7335293788492679,-0.6473385574750602
1772526272177018000,1.87301806640625,-1.6306769560158252,0.815326495309174,-0.5614801829256117
1772526272187000000,1.883,-1.3740461274802684,0.743665572938323,-0.33307489352971315
1772526272196983000,1.892983154296875,-0.9727578216850757,0.4493067790329456,-0.010085048423707485
1772526272206966300,1.90296630859375,-0.47804070608615873,0.17731734558492898,0.13057926754653454
1772526272216948000,1.912947998046875,-0.07344517543911934,-0.015608780281245708,0.1051950162474066
1772526272226931200,1.92293115234375,0.22120529488921165,-0.19386019184589384,-0.06247077696025371
1772526272236914200,1.9329140625,0.4689963988870382,-0.35755116313844915,-0.3168666129853576
1772526272246896000,1.942896240234375,0.6464420470267533,-0.48440556494295595,-0.6044581777781248
1772526272256879000,1.952879150390625,0.6975351054042578,-0.6468126339048147,-0.8708831089667975
1772526272266861300,1.962861328125,0.6018956338137388,-0.7228148003503679,-1.087425891937688
1772526272276844000,1.972843994140625,0.4065910883784294,-0.588375934766233,-1.3015475852414964
1772526272286826200,1.982826171875,0.13271160340011118,-0.24026392336338756,-1.4364718962550163
1772526272296809200,1.992809326171875,-0.14173545233309268,0.11477701051980256,-1.4399623687192797
1772526272306792000,2.0027919921875,-0.5244979213565588,0.32390462186336516,-1.3537883523494005
1772526272316774100,2.012774169921875,-1.0021873297870159,0.5120473128452897,-1.247187341761589
1772526272326757000,2.022757080078125,-1.4052677796959876,0.7205489012449979,-1.1016108499608934
1772526272336739000,2.032739013671875,-1.5516852523654698,0.9980518374174833,-0.9387631245594471
1772526272346722000,2.04272216796875,-1.3600567650943993,1.235691257496178,-0.7156617867905646
1772526272356705300,2.052705322265625,-0.9065852675974369,1.34900550198704,-0.44843233428597445
1772526272366687000,2.06268701171875,-0.2910299417436123,1.2935396353527904,-0.14329013442918656
1772526272376670200,2.072670166015625,0.31178865213394164,1.057935812754929,0.1548174175504595
1772526272386652000,2.08265185546875,0.7479232303828001,0.6917620749607681,0.4126105678636581
1772526272396635100,2.09263525390625,1.0797855332523583,0.2583908239454031,0.5236008263863623
1772526272406618000,2.1026181640625,1.3165461246699095,-0.09705372230261564,0.4303657855890691
1772526272416600300,2.112600341796875,1.4772119029223918,-0.3716165133699775,0.15025566259287296
1772526272426583000,2.1225830078125,1.5284312180280684,-0.6004337445676327,-0.21131576903760432
1772526272436565200,2.132565185546875,1.4491805711805819,-0.8007078951090574,-0.550329697227478
1772526272446548200,2.14254833984375,1.3281822019279002,-0.9213263251334428,-0.8586925396312027
1772526272456531000,2.152531005859375,1.2006997313529253,-0.9129889971598982,-1.131586739899218
1772526272466513200,2.16251318359375,1.0719804124593735,-0.8251423714026809,-1.3201456104665994
1772526272476496100,2.17249609375,0.9899006796658039,-0.6910954277455806,-1.3931690533623098
1772526272486478000,2.18247802734375,0.8867577005773782,-0.5616881265878677,-1.3467856339804827
1772526272496461000,2.1924609375,0.7950912242710589,-0.4119283577531576,-1.2011438949238509
1772526272506444300,2.2024443359375,0.7553285382032394,-0.20776567534059284,-1.0060483891293406
1772526272516426000,2.212426025390625,0.7656400888592004,0.00056903205960989,-0.786745786056295
1772526272526409200,2.2224091796875,0.7489256854236126,0.13086919040381909,-0.558952052687481
1772526272536391000,2.232390869140625,0.7060095037609339,0.17896511279195546,-0.3415468807335943
1772526272546374100,2.2423740234375,0.6174626207798719,0.18089228146225214,-0.17766133671700954
1772526272556357000,2.252357177734375,0.5193745869934558,0.16591215447336435,-0.08614464414492248
1772526272566339000,2.262339111328125,0.4707938036978245,0.15862199746519326,-0.08512896429635584
1772526272576322000,2.272322021484375,0.48522448011040686,0.09630553428381682,-0.09613967619761823
1772526272586304300,2.28230419921875,0.4846633390963077,-0.060709027984738345,-0.10337671477906406
1772526272596287000,2.292286865234375,0.4749281270235777,-0.2345724337235093,-0.11886581420339644
1772526272606270000,2.30227001953125,0.48080958627760406,-0.37462007910013195,-0.19354549987353384
1772526272616252200,2.312252197265625,0.5114607451289892,-0.4852221420228481,-0.2691113937936723
1772526272626235000,2.32223486328125,0.5924842468678951,-0.5975993979245424,-0.32093649277277286
1772526272636216600,2.332216552734375,0.6954723276555538,-0.6666358170107006,-0.3910387144595384
1772526272646199800,2.34219970703125,0.726126993638277,-0.7410147661685943,-0.4452654677528888
1772526272656181800,2.352181640625,0.6692769791692494,-0.8127110521137714,-0.4886383071418851
1772526272666164700,2.362164794921875,0.5253975005447864,-0.824457604008913,-0.5276571160398423
1772526272676147700,2.372147705078125,0.33328210653960705,-0.8132534884274005,-0.5352850536350161
1772526272686130000,2.3821298828125,0.12473054151833057,-0.847649094504118,-0.49309265620224174
1772526272696112600,2.392112548828125,-0.04646890570819378,-0.9556728313714266,-0.4001359939549118
1772526272706094800,2.4020947265625,-0.22380524825453757,-1.1895327329114078,-0.22616408634036778
1772526272716077800,2.412077880859375,-0.35228783578276635,-1.5479539568826555,-0.06727350106686353
1772526272726060500,2.422060546875,-0.4288198713213205,-1.7158736517861484,-0.0907393515240401
1772526272736042800,2.432042724609375,-0.49060968028008933,-1.6551596553653478,-0.2971134263757616
1772526272746025700,2.442025634765625,-0.5090168591082096,-1.588871365943551,-0.5114730200886726
1772526272756007700,2.452007568359375,-0.478538134214282,-1.5313681482627988,-0.6985514428399503
1772526272765990700,2.46199072265625,-0.4139087179154157,-1.41345050162971,-0.8419257484212517
1772526272775974000,2.471973876953125,-0.3791431094825268,-1.2202514040410517,-0.9118705145239829
1772526272785955600,2.48195556640625,-0.45974400189518927,-0.942600291569531,-0.9027294689521193
1772526272795938800,2.491938720703125,-0.5793839422762393,-0.6280044730603694,-0.8365103723090141
1772526272805920800,2.501920654296875,-0.680482848316431,-0.4125330456480384,-0.6982831472925841
1772526272815903700,2.51190380859375,-0.7421820563822984,-0.25601503472477194,-0.5005336563905701
1772526272825886700,2.52188671875,-0.7125269228309392,-0.13803981268554924,-0.3028034547109157
1772526272835869000,2.531868896484375,-0.6969780560433865,-0.03429565283358097,-0.14604082137681543
1772526272845851600,2.5418515625,-0.7810381489992141,0.0003369768694043159,-0.03553038226030767
1772526272855833900,2.551833740234375,-0.9535305586457252,0.04068739969730377,0.02204082262273878
1772526272865816800,2.56181689453125,-1.1314444088190794,0.11620762784481048,-0.01691536936778575
1772526272875799600,2.571799560546875,-1.2719950352817773,0.2675470670863986,-0.12333386299554258
1772526272885781800,2.58178173828125,-1.326748369732499,0.4902873164579272,-0.2342498507056385
1772526272895764700,2.5917646484375,-1.2744435974776744,0.7106608366981149,-0.31480504081305116
1772526272905746700,2.60174658203125,-1.1349240676283836,0.8505109136760234,-0.3035886502718553
1772526272915729700,2.611729736328125,-0.9130097476869821,0.8719508843287825,-0.14980181787814945
1772526272925711600,2.621711669921875,-0.5417144290953875,0.8206643492057919,0.053366848528385157
1772526272935694600,2.631694580078125,-0.07911269968152046,0.817480458472669,0.20838884874023497
1772526272945677800,2.641677734375,0.3522363978564739,0.8504661977514624,0.31348544611446555
1772526272955659500,2.651659423828125,0.669995941093564,0.83030048481822,0.38654330273643134
1772526272965642800,2.661642822265625,0.8822071976661682,0.7086240701735019,0.4810810966953635
1772526272975624700,2.671624755859375,0.9864619373887776,0.47795039745420215,0.6279735664654523
1772526272985607700,2.681607666015625,0.9575509002029895,0.22919658590406178,0.7011915820851922
1772526272995590700,2.691590576171875,0.8579097917556762,0.05079261412620544,0.670262483075261
1772526273005572900,2.70157275390625,0.6936299146592617,0.028285306502878665,0.47283466187566514
1772526273015555600,2.7115556640625,0.44397769296467304,0.09491057279407977,0.18955661290045828
1772526273025537800,2.721537841796875,0.1381657771527767,0.16874357850700616,-0.1035896999426186
1772526273035520800,2.731520751953125,-0.20530045427083968,0.22271803753972053,-0.35675036814957856
1772526273045503700,2.741503662109375,-0.5819289505839348,0.2753749842330813,-0.5052655072180554
1772526273055485700,2.751485595703125,-0.9393599944740533,0.3327408392697572,-0.5806840650893748
1772526273065468700,2.76146875,-1.2521411647766827,0.43804888743758197,-0.5914661923991515
1772526273075450600,2.77145068359375,-1.4304934063673018,0.6075733871892094,-0.5469628511428832
1772526273085433600,2.78143359375,-1.4103928676247597,0.8376601999312638,-0.4216724837847054
1772526273095416800,2.791416748046875,-1.1836363683491944,1.0338035342782734,-0.24088338870229198
1772526273105398500,2.8013984375,-0.7721855649799108,1.102405069078505,-0.05545518084345385
1772526273115381800,2.8113818359375,-0.2271890454739332,1.0275327834457157,0.13927446904703975
1772526273125363700,2.82136376953125,0.3743137896299362,0.8850853834509849,0.2688519574061967
1772526273135346700,2.8313466796875,0.9069184450745582,0.7447498610436916,0.305271854118444
1772526273145329700,2.84132958984375,1.3151426876127719,0.5634221107736229,0.26076854939479377
1772526273155311900,2.851311767578125,1.5782102711975574,0.3382613562569022,0.15149820999987423
1772526273165294600,2.861294677734375,1.7376362785220145,0.11963818681538105,0.05064272079411894
1772526273175276800,2.87127685546875,1.8310837930262087,-0.04322480922043323,-0.053132893642038104
1772526273185259800,2.881259765625,1.8314754226922987,-0.16558482221513984,-0.14906871783062814
1772526273195241700,2.89124169921875,1.8120950149178503,-0.245138251401484,-0.1918818775102496
1772526273205224700,2.901224609375,1.788714139330387,-0.27953444200009103,-0.1907381508352235
1772526273215208000,2.9112080078125,1.6843325583577156,-0.31170389645993707,-0.1504686842890456
1772526273225189600,2.921189697265625,1.4856202503055334,-0.33177871623933314,-0.04670271446406841
1772526273235172900,2.9311728515625,1.2186474759757517,-0.28659517416656016,0.08782854211125522
1772526273245154600,2.941154541015625,0.8740180459916591,-0.14286679445058106,0.1538527007041499
1772526273255137800,2.9511376953125,0.4976017311245203,0.0007458499312400817,0.19187530163899064
1772526273265120800,2.961120849609375,0.06703647744059563,0.08935060057938099,0.19402378490976988
1772526273275102700,2.971102783203125,-0.3605442074745893,0.1855056204766035,0.15665197603385894
1772526273285085700,2.981085693359375,-0.727898679485917,0.2761433382570743,0.07382686823308468
1772526273295068000,2.99106787109375,-1.0087094250321387,0.36521482963413,-0.016852378001017496
1772526273305051000,3.00105078125,-1.2232546775102615,0.4156938477665186,-0.12546460054707712
1772526273315033600,3.01103369140625,-1.4021978707313536,0.44298751288354393,-0.2252259287074208
1772526273325015800,3.021015869140625,-1.5501234098762273,0.4408320884153247,-0.30614761403966695
1772526273334998800,3.030998779296875,-1.6862030284047125,0.39525545537173745,-0.31216267307810486
1772526273344980700,3.040980712890625,-1.7135148137003182,0.12651917850077152,-0.0734005599792581
1772526273354963700,3.050963623046875,-1.433152396443486,-0.3473796054750681,0.1884767817744985
1772526273364947000,3.060947021484375,-1.0110562804192305,-0.5186787136837839,0.11039994621304794
1772526273374928600,3.0709287109375,-0.7354460261255502,-0.46670361177474257,-0.15812215818427502
1772526273384912000,3.080911865234375,-0.6524035857796668,-0.5632631208196283,-0.34118221213966604
1772526273394893600,3.0908935546875,-0.603439356124401,-0.802170953398943,-0.47594614495970305
1772526273404876800,3.100876708984375,-0.468735702124238,-0.9220718828037381,-0.7160196603175252
1772526273414858800,3.110858642578125,-0.3009329115986824,-0.9281550021097064,-0.9676325145605951
1772526273424841700,3.120841796875,-0.26669980260729786,-0.9633511109143496,-1.1263817186020315
1772526273434824700,3.13082470703125,-0.3072580229669809,-1.0050529483512043,-1.1672182444464414
1772526273444807000,3.140806884765625,-0.382339275175333,-0.9170973092615604,-1.154442422568798
1772526273454789600,3.15078955078125,-0.48092415256798265,-0.7152005259543657,-1.1351627717550843
1772526273464771800,3.160771728515625,-0.6088046825498342,-0.5004556592509151,-1.0467882496662437
1772526273474754800,3.1707548828125,-0.7493693375378847,-0.2975838934317231,-0.8709776553824543
1772526273484737500,3.180737548828125,-0.8340554534375667,0.02958820579499006,-0.7799570026990026
1772526273494719700,3.1907197265625,-0.8482815471887588,0.36108985865861176,-0.667800769136846
1772526273504702700,3.20070263671875,-0.8222223923027515,0.5714280148357153,-0.4358199593417346
1772526273514684700,3.2106845703125,-0.6764613377153873,0.6973734851017593,-0.16589774235552177
1772526273524667600,3.220667724609375,-0.3786088564753532,0.7455170460239052,0.09018191857067867
1772526273534651000,3.23065087890625,0.03814472947716713,0.681892715114355,0.2827962568076327
1772526273544632600,3.240632568359375,0.46398821533620355,0.5684729644224047,0.3648917716922238
1772526273554615800,3.25061572265625,0.801176681664586,0.4383513775154948,0.39492187603581697
1772526273564597800,3.26059765625,1.0282686965048313,0.27947686659395693,0.3657504343481734
1772526273574580700,3.270580810546875,1.1515624832183122,0.10235913523435593,0.32070874843150377
1772526273584563700,3.280563720703125,1.2020014616012573,-0.09013239860683679,0.25267332308143375
1772526273594546000,3.2905458984375,1.191748363134265,-0.23519991797208784,0.10849071505824104
1772526273604528600,3.300528564453125,1.0885679746448993,-0.3383551720201969,-0.1196605265113525
1772526273614510800,3.3105107421875,0.8765554555147885,-0.42300621660649773,-0.38198976761791853
1772526273624494600,3.32049462890625,0.6407680930435657,-0.44601592079401015,-0.6302680340781808
1772526273634476500,3.3304765625,0.4418307440638542,-0.38924978521615267,-0.8930321777369826
1772526273644459500,3.34045947265625,0.3469318617075681,-0.23413667265474794,-1.0996358235608785
1772526273654442500,3.3504423828125,0.3156552644342184,-0.0691001319721341,-1.186860737223178
1772526273664424400,3.360424560546875,0.3145318133622408,0.082356796169281,-1.167766745174676
1772526273674407400,3.370407470703125,0.33395664480030535,0.26637480843663214,-1.065495580484718
1772526273684389400,3.380389404296875,0.36202830855250356,0.42366584955900904,-0.9095046621754765
1772526273694372400,3.390372314453125,0.40797815882265565,0.5364753593981265,-0.6919006797138602
1772526273704355600,3.40035546875,0.4967027364581823,0.607497691604495,-0.47506775468997653
1772526273714337300,3.410337158203125,0.6335843190193176,0.6362044383898378,-0.28084797228407116
1772526273724320500,3.420320556640625,0.8397668168216943,0.627988690969348,-0.12202914620568044
1772526273734302500,3.430302490234375,1.0777321078538895,0.5835609356999397,-0.0018664879916235803
1772526273744285400,3.440285400390625,1.340637194353342,0.48607583624273537,0.09336738020638004
1772526273754267400,3.450267333984375,1.5831816298693417,0.3405018286600709,0.2180317976859398
1772526273764250600,3.460250732421875,1.7841624673753975,0.1551280178695917,0.30012141255270686
1772526273774233300,3.4702333984375,1.9335621707260608,0.01464841081649065,0.31869770087003707
1772526273784215600,3.480215576171875,2.0119991631031033,-0.09225070593506098,0.2668911969935521
1772526273794198500,3.490198486328125,1.9522838223308323,-0.21209727480411528,0.15796371621955185
1772526273804180500,3.500180419921875,1.8158207574427128,-0.3389122213810682,0.032772352256439624
1772526273814163500,3.51016357421875,1.6309470051288604,-0.4313081810057163,-0.0723073670482263
1772526273824146400,3.520146484375,1.4146902725577353,-0.5177566304028034,-0.1490662701452151
1772526273834128400,3.53012841796875,1.1922604043096303,-0.637518735858798,-0.20895433713588862
1772526273844111400,3.540111328125,1.0232307023376226,-0.6874146934062242,-0.2680465410411358
1772526273854093600,3.550093505859375,0.890907805994153,-0.6902776816219091,-0.35464404352009293
1772526273864076300,3.560076171875,0.7647410941928625,-0.651153877979517,-0.4484994447054341
1772526273874059500,3.5700595703125,0.6403624348521232,-0.5858820721238851,-0.5205694593338296
1772526273884041500,3.58004150390625,0.44447687465846536,-0.5432403234884142,-0.5451322747148573
1772526273894024400,3.5900244140625,0.1981061588525772,-0.5744657750964164,-0.45706933932583776
1772526273904006400,3.60000634765625,-0.07097381688952445,-0.6492375229641795,-0.30036621762663124
1772526273913989600,3.60998974609375,-0.2818780825167894,-0.6921101577460765,-0.1352041143355891
1772526273923971300,3.619971435546875,-0.4193436024457216,-0.5962322012245654,-0.027658297178335487
1772526273933954600,3.62995458984375,-0.5689747764647006,-0.4619835975155234,0.10337872407305986
1772526273943937500,3.6399375,-0.7449152807384729,-0.6382640012681484,0.5044496242579073
1772526273953919500,3.64991943359375,-0.7257850483328103,-1.0821961015254258,0.9584368161920458
1772526273963902500,3.65990234375,-0.5617009860694409,-1.1774421898841858,0.9826640064105391
1772526273973884400,3.669884521484375,-0.44047289971411224,-1.1679483853518962,0.8015022603571414
1772526273983867400,3.679867431640625,-0.4293441874563694,-1.288278938345611,0.5477793186249211
1772526273993850400,3.689850341796875,-0.515750551277399,-1.399642341029644,0.16987981599532068
1772526274003832300,3.699832275390625,-0.6636778439879417,-1.3498425373330711,-0.3433575468847528
1772526274013815300,3.709815185546875,-1.0004553914278744,-1.181093113607168,-0.8704926483444869
1772526274023797500,3.719797607421875,-1.4968290420621633,-0.9649646835908293,-1.2455167782008647
1772526274033780200,3.7297802734375,-1.9302970314502714,-0.7599751949653029,-1.372935243628919
1772526274043763500,3.739763427734375,-2.1292694517433643,-0.5431123131945729,-1.2722457951724528
1772526274053745400,3.749745361328125,-2.071607536369562,-0.3139806092202663,-0.9471616081357002
1772526274063728400,3.759728271484375,-1.7913216914802788,-0.09701660516262053,-0.515178012086451
1772526274073710300,3.76971044921875,-1.3865712625324724,0.12235153742730617,-0.05124817587397992
1772526274083693600,3.779693603515625,-0.9871212780803441,0.35172172633260484,0.2869444990608841
1772526274093675300,3.78967529296875,-0.6340531055748462,0.4350520437091589,0.6727458973888307
1772526274103658500,3.799658447265625,-0.43912733032405377,0.4164832445785403,1.0011684350680559
1772526274113641500,3.809641357421875,-0.41255438069701195,0.39083632375523447,1.1324922373715787
1772526274123623400,3.81962353515625,-0.5095107801049947,0.48060193487629294,1.0481383491009473
1772526274133606400,3.8296064453125,-0.6751075850188731,0.6306009192943572,0.8256386304870247
1772526274143588600,3.839588623046875,-0.8227513846129179,0.7125232695691287,0.5675291807662696
1772526274153571300,3.8495712890625,-0.8630261118561029,0.6501742192924023,0.41594753026664255
1772526274163554300,3.85955419921875,-0.7414987502932548,0.5253416787043214,0.31655425910055635
1772526274173536500,3.86953662109375,-0.4548001157522201,0.42512496232613917,0.21565993572175501
1772526274183519500,3.87951953125,-0.19562427890896797,0.33223464331328867,0.11311492252647876
1772526274193501400,3.88950146484375,-0.08592237969636916,0.24725758164301515,-0.062140814353525635
1772526274203484400,3.899484375,-0.052984571212530134,0.2175581705585122,-0.2739006738968193
1772526274213466400,3.90946630859375,-0.06360065777301788,0.2546466689810157,-0.47995413849204777
1772526274223449300,3.919449462890625,-0.10578384898602962,0.36128041279464956,-0.7065135808255523
1772526274233432600,3.9294326171875,-0.21356500926911828,0.5030328162625431,-0.9144530052978544
1772526274243414500,3.93941455078125,-0.44542263107597824,0.5592927558839321,-1.0369067609906195
1772526274253397500,3.9493974609375,-0.7926409085094929,0.5545403006598353,-1.1084926453638821
1772526274263379500,3.95937939453125,-1.1324480329036712,0.5652782600343227,-1.1926823560487478
1772526274273362400,3.969362548828125,-1.3938017983078956,0.6690647977232933,-1.3466260595045982
1772526274283345400,3.979345458984375,-1.5657915191292762,0.8358101881504059,-1.5010057432249189
1772526274293327400,3.989327392578125,-1.5931950743615626,1.0232567135617137,-1.5397848250828683
1772526274303310300,3.999310302734375,-1.4540478849560021,1.2043638068184255,-1.5015692223265766
1772526274313292500,4.00929248046875,-1.1211492247760295,1.3422136498898267,-1.390003867329657
1772526274323275300,4.019275146484375,-0.6304845994383096,1.4202017294555902,-1.2310036842018366
1772526274333257500,4.029257568359375,-0.03129471745193004,1.4611924960136413,-1.065800920106843
1772526274343240400,4.039240478515625,0.5305395396083593,1.4834645335763692,-0.8984903700776398
1772526274353223400,4.049223388671875,1.0616887355476616,1.4918731732204555,-0.8124474327415228
1772526274363205400,4.059205322265625,1.5355021793276071,1.4682865459278225,-0.7760969662699848
1772526274373188600,4.069188720703125,1.9248247375190257,1.4115867535844444,-0.7930726509902626
1772526274383170300,4.07917041015625,2.2238035924404858,1.3040341413602232,-0.7757683919027447
1772526274393153500,4.089153564453125,2.4556337417185303,1.1927563711330293,-0.7426203747343272
1772526274403136500,4.099136474609375,2.665722014787793,1.1274828117117286,-0.7071061398912221
1772526274413118500,4.109118408203125,2.914174213042855,1.0761673427551983,-0.6737887575052678
1772526274423101400,4.119101318359375,3.1432951033622025,1.0237921356126665,-0.6291150646507739
1772526274433083600,4.129083740234375,3.2916099340856073,0.9378788160055875,-0.5387989800401032
1772526274443066400,4.13906640625,3.3751275907278058,0.8440574997529386,-0.486808022974804
1772526274453048600,4.149048583984375,3.413626540470123,0.7287839378878473,-0.5376764057509601
1772526274463031600,4.159031494140625,3.4008541526585816,0.5553486944332718,-0.6445962730295955
1772526274473014300,4.16901416015625,3.3282238007336855,0.31306612472385165,-0.7936178637828677
1772526274482996500,4.17899658203125,3.2574931449502706,0.12119973704367876,-1.0597415470026432
1772526274492979500,4.1889794921875,3.130293582969904,-0.13363485572487116,-1.191763341507688
1772526274502961400,4.19896142578125,2.8840725047677753,-0.4162804154828191,-1.30057567146942
1772526274512944400,4.2089443359375,2.5697803453803063,-0.641642245529592,-1.4438820263810455
1772526274522927600,4.218927734375,2.166956500580907,-0.7566732308104633,-1.6030675029478967
1772526274532909300,4.228909423828125,1.6079215188503264,-0.7668988567486404,-1.7500386639773844
1772526274542892500,4.238892578125,0.9233388339996338,-0.6732695559367537,-1.9211198916517196
1772526274552874200,4.248874267578125,0.23593115485608576,-0.48940410388261074,-2.070393046013266
1772526274562857500,4.258857421875,-0.4734685758650303,-0.22922084356248376,-2.1045782242096958
1772526274572840400,4.26884033203125,-1.2407844889819621,-0.00845306330770254,-1.982175102725625
1772526274582822400,4.278822509765625,-1.955790953668952,0.20288082590848205,-1.761972701268643
1772526274592805400,4.288805419921875,-2.5199428400218484,0.42847324984073637,-1.3870626993112265
1772526274602787600,4.29878759765625,-2.796619846764207,0.5069520355328917,-0.8816239178854972
1772526274612770600,4.3087705078125,-2.702326529085636,0.5230877622976898,-0.4190572963176295
1772526274622752500,4.31875244140625,-2.3601322172939776,0.5869868184953928,-0.15566625293213873
1772526274632735200,4.3287353515625,-1.9637591560691594,0.4879293551549315,0.06270275908522308
1772526274642718200,4.33871826171875,-1.595471787121892,0.21297858768329023,0.19508531319405883
1772526274652700200,4.3487001953125,-1.2353490199297665,-0.030621055974066256,0.13842398969754577
1772526274662683100,4.35868310546875,-0.9230991800248622,-0.10632087847217916,-0.1193219239404425
1772526274672665000,4.3686650390625,-0.6909726781487464,-0.13585910764560102,-0.4224611864769831
1772526274682648000,4.37864794921875,-0.6358253759443759,-0.22463804581686853,-0.686058456491679
1772526274692630300,4.38863037109375,-0.6491974832147359,-0.32633827875107524,-0.860013047645241
1772526274702613000,4.398613037109375,-0.697728582149744,-0.32593539703860874,-1.00590050509125
1772526274712596200,4.40859619140625,-0.8298375434815883,-0.18807123318091035,-1.1316248799525201
1772526274722578200,4.418578125,-1.0283002606868743,0.05724573578834533,-1.237951603643596
1772526274732561400,4.4285615234375,-1.2331985638976097,0.28265184336826205,-1.2733512721963227
1772526274742543000,4.438543212890625,-1.36949270195961,0.4546779506772756,-1.2544263531044124
1772526274752526300,4.4485263671875,-1.4126573054254055,0.5800749932803213,-1.24655138194561
1772526274762509300,4.45850927734375,-1.3317565532833338,0.674429978018254,-1.2031770081866533
1772526274772491300,4.4684912109375,-1.2088573188453913,0.6637479866147041,-1.0570477778740226
1772526274782474200,4.47847412109375,-1.0945295133978128,0.6385565544739366,-0.8371361760571598
1772526274792456200,4.488456298828125,-0.9572200608134269,0.6415962144307792,-0.5941758532166481
1772526274802439200,4.498439208984375,-0.7409709270268678,0.6373933559134602,-0.3418778662536293
1772526274812421400,4.50842138671875,-0.452946596840024,0.6219145586874336,-0.09612818668922408
1772526274822404000,4.518404052734375,-0.09234861335158348,0.5930810437172651,0.06927249286435544
1772526274832387300,4.52838720703125,0.26674539531469343,0.5458096625197678,0.16867513464698566
1772526274842369300,4.538369384765625,0.5506190355628728,0.3910518662020564,0.29896807779911905
1772526274852352300,4.548352294921875,0.7191752748042345,0.16078699347935616,0.42793380920179186
1772526274862334200,4.558334228515625,0.7269786420315504,-0.10166998392641544,0.48792530003432183
1772526274872317400,4.5683173828125,0.5863882680803537,-0.341879839015007,0.4306805506266653
1772526274882300200,4.578300048828125,0.3990256215602159,-0.4897513098850846,0.2427915056122467
1772526274892282400,4.588282470703125,0.19579145216941832,-0.5694865253791213,-0.08142123235221951
1772526274902265300,4.598265380859375,-0.02158990051746368,-0.6225543909609318,-0.4690994574027136
1772526274912247300,4.608247314453125,-0.22370587953329085,-0.6741242730699479,-0.8318012447699904
1772526274922230300,4.618230224609375,-0.35293548603653907,-0.6774762138463556,-1.1410856589980423
1772526274932212200,4.628212158203125,-0.4662994148880243,-0.6423121806804091,-1.3524791694469749
1772526274942195200,4.6381953125,-0.5989274316579103,-0.5735616658635437,-1.426319627813995
1772526274952178200,4.64817822265625,-0.7318424486756324,-0.4337479753732681,-1.340623019697517
1772526274962160400,4.658160400390625,-0.8449567866802216,-0.22346797912418842,-1.1220713080570102
1772526274972143000,4.66814306640625,-0.932085035035014,-0.0023222324024885894,-0.7753149490468204
1772526274982125300,4.678125244140625,-0.9664847327649593,0.18043635438829658,-0.3617441578488797
1772526274992108300,4.6881083984375,-0.9372732513278722,0.31277364458329976,0.0363449409130495
1772526275002091300,4.69809130859375,-0.8188543771743774,0.4437124661572277,0.3437731784809381
1772526275012073200,4.7080732421875,-0.5984066226541995,0.4955522512488067,0.578301809595339
1772526275022056400,4.718056396484375,-0.3330120574265718,0.4456942876242101,0.762539857821539
1772526275032038100,4.7280380859375,-0.04264145637452602,0.3215516289964318,0.8792655181910842
1772526275042021400,4.738021484375,0.24773206728696823,0.20520963418222962,0.8713022111617028
1772526275052003000,4.748003173828125,0.5610527512937784,0.10730630931295454,0.7227072483226656
1772526275061986300,4.757986328125,0.8595552208751439,0.0005412672698497772,0.4809177958924323
1772526275071969300,4.76796923828125,1.0943792912721633,-0.13205233577378092,0.20605856089545413
1772526275081951200,4.777951171875,1.2712281425625085,-0.3187547648195177,-0.018049670627340673
1772526275091934200,4.787934326171875,1.407273858821392,-0.5280463345531374,-0.18954006362445652
1772526275101916400,4.79791650390625,1.504116276460886,-0.7092034044314175,-0.3446532492510974
1772526275111899100,4.807899169921875,1.5476087967067955,-0.857747879192233,-0.4361474377304315
1772526275121881300,4.81788134765625,1.5518442423194645,-0.9357048329673707,-0.47072577996291215
1772526275131864300,4.8278642578125,1.53586984359622,-0.928071707740426,-0.4783296060301363
1772526275141847000,4.837846923828125,1.5027046560972928,-0.8403074995696544,-0.42711880302447824
1772526275151829200,4.847829345703125,1.5040952336728572,-0.6884997121639549,-0.2973867268918082
1772526275161812200,4.857812255859375,1.5146283181250095,-0.5436056496694683,-0.08963518967442213
1772526275171794200,4.867794189453125,1.4771166258543729,-0.4762374560564756,0.21375152655085547
1772526275181777200,4.877777099609375,1.4280167871207,-0.5005139653094113,0.5955849162969737
1772526275191760400,4.887760498046875,1.436308230125904,-0.6408303446248174,1.0378122584629803
1772526275201742000,4.8977421875,1.42755033865273,-0.8410222237102687,1.4508151866450905
1772526275211725300,4.907725341796875,1.424013981220126,-0.9833082956634461,1.7204878675833344
1772526275221707300,4.917707275390625,1.4385709143608807,-0.9283300664156675,1.873714874137193
1772526275231690200,4.927690185546875,1.3682079228460788,-0.4305700759895146,1.6106792931258678
1772526275241672200,4.937672119140625,1.010570542728901,0.17750205450206993,1.1321306375175715
1772526275251655400,4.947655517578125,0.2726671865791082,0.539313943824917,0.7526530353836715
1772526275261638100,4.95763818359375,-0.6083937636613845,0.6146718210175633,0.5781573961559683
1772526275271620400,4.967620361328125,-1.579589158335328,0.6297641762092709,0.5032938418189064
1772526275281603300,4.977603271484375,-2.590883339163661,0.6737864194177091,0.45416302342507986
1772526275291585300,4.987585205078125,-3.3986452444374557,0.7130787845600396,0.47794484449625013
1772526275301568300,4.997568359375,-3.7715836540609597,0.8636596605192869,0.5882579344097525
1772526275311550200,5.00755029296875,-3.626297231248021,1.069334939451888,0.739613813329488
1772526275321533200,5.017533203125,-2.9993279464542866,1.1284043835360555,1.0104451627835631
1772526275331516200,5.02751611328125,-2.201267935505509,0.9669682054329662,1.2942489526659249
1772526275341498000,5.037498046875,-1.5270879867255687,0.6825997674051671,1.3626350911498069
1772526275351481000,5.047481201171875,-1.05141576333642,0.3183686150461435,1.2149315241925418
1772526275361463300,5.05746337890625,-0.8247919505298137,-0.09208630915358662,0.8488970487385987
1772526275371446000,5.067446044921875,-0.8170487890571355,-0.44558395911753174,0.2786651483522728
1772526275381429200,5.07742919921875,-0.9882973361223936,-0.7833060939311981,-0.3632936157805845
1772526275391411200,5.0874111328125,-1.3320733641475437,-1.0851476448073982,-1.015438514091447
1772526275401394200,5.097394287109375,-1.7051549816340208,-1.37733493989259,-1.5678222943045197
1772526275411376000,5.107376220703125,-2.0270465101093054,-1.4804428476676343,-2.106136413437128
1772526275421359400,5.117359375,-2.2929461022496223,-1.4411987786464393,-2.6016633841142056
1772526275431341000,5.127341064453125,-2.402915127965808,-1.3209490358039735,-2.9936902328282593
1772526275441324300,5.13732421875,-2.2911516200482844,-1.1232833141952752,-3.180381848219037
1772526275451307300,5.147307373046875,-1.9642735353320835,-0.9215420137107372,-3.0827815979495643
1772526275461289200,5.157289306640625,-1.4312906942248345,-0.8180759401477873,-2.6187942593961955
1772526275471272200,5.167272216796875,-0.7369102534592151,-0.7479393047347664,-2.046298030807078
1772526275481254400,5.17725439453125,-0.06798223385810852,-0.6119803899765014,-1.5788598211474716
1772526275491237000,5.187237060546875,0.5057739316642285,-0.40868016961216924,-1.1742362334497272
1772526275501219300,5.19721923828125,0.8631412626683711,-0.26107757881134747,-0.7295039227254688
1772526275511202300,5.207202392578125,0.928785993489623,-0.2058108880110085,-0.24868352279290556
1772526275521185300,5.217185302734375,0.7258785718351602,-0.19841975484639404,0.18713249102607368
1772526275531167200,5.227167236328125,0.3358060720592737,-0.14328063594847917,0.43611857696212825
1772526275541150200,5.237150146484375,-0.1145820724695921,0.01847805210724473,0.471823658202216
1772526275551132200,5.247132080078125,-0.4963105222702026,0.2100841814160347,0.4108092175301164
1772526275561115400,5.257115478515625,-0.8462462419688701,0.28745456747487186,0.3806089442513883
1772526275571098400,5.267098388671875,-1.1841285357803106,0.26905162643045183,0.3262205341229215
1772526275581080300,5.277080322265625,-1.4498907652765511,0.2415507483035326,0.1385830161841586
1772526275591063300,5.287063232421875,-1.5435972229778765,0.2510613578401506,-0.15236160362986848
1772526275601045200,5.297045166015625,-1.4845879846483467,0.2615413969308138,-0.48934842817261814
1772526275611028200,5.3070283203125,-1.3143208498358725,0.2800432683050632,-0.810856437223032
1772526275621010200,5.31701025390625,-0.9953501772433518,0.3009370032519102,-1.0524844154812394
1772526275630993000,5.326992919921875,-0.592823854085803,0.3086152827948332,-1.1815854271687567
1772526275640976000,5.336975830078125,-0.1259831719279289,0.30059388890266414,-1.2001239042263476
1772526275650958000,5.3469580078125,0.36762452112436295,0.265489257773757,-1.1204090008679777
1772526275660940800,5.35694091796875,0.8748129957616329,0.2274097024872899,-1.0246790745150298
1772526275670923000,5.366923095703125,1.3231015376627444,0.17844108891785143,-0.9428364384129643
1772526275680906000,5.376906005859375,1.7561966020852326,0.11477759504169226,-0.9551098637264221
1772526275690888000,5.386887939453125,2.110153832384944,-0.032386312080919744,-1.2052156013421713
1772526275700871000,5.396870849609375,2.3126304614067075,-0.349412572607398,-1.8588538434833286
1772526275710854100,5.406854248046875,2.465627312466502,-0.821881908302009,-2.702232713322341
1772526275720835800,5.4168359375,2.7624136257797476,-1.18923959518373,-3.445581475396454
1772526275730819000,5.426819091796875,3.2148727313637733,-1.2968798856914043,-3.9469001812174915
1772526275740801000,5.436801025390625,3.665068568190932,-1.2743980047702788,-4.044878909410536
1772526275750784000,5.446783935546875,3.9477760872691867,-1.1640472862601279,-3.792968971917033
1772526275760767000,5.45676708984375,4.03167719027102,-0.9661717212930321,-3.4026188242435453
1772526275770749200,5.466749267578125,4.016353948932886,-0.6702224433258176,-2.90764714936167
1772526275780732000,5.47673193359375,3.8950142188966272,-0.28603549445718524,-2.2631609125778076
1772526275790714000,5.486714111328125,3.700499947056174,0.2023039028033614,-1.6636197329357265
1772526275800697000,5.496697021484375,3.377382091656327,0.6518994356498122,-1.089824550577253
1772526275810679000,5.506678955078125,2.9153426723003384,0.9775511934414506,-0.4653592844936996
1772526275820662000,5.516662109375,2.3444418962091205,1.2199103355184198,0.035261063799634576
1772526275830645000,5.52664501953125,1.6964982124477623,1.39412913056612,0.3602136603459716
1772526275840627000,5.536626953125,1.1146107629179953,1.5297984147280455,0.48022542971409854
1772526275850610000,5.54660986328125,0.6181809981822968,1.6649559499755502,0.48127314866874366
1772526275860591900,5.556591796875,0.2240600997984409,1.7741946155905723,0.4848306584872305
1772526275870574800,5.566574951171875,-0.06429916143119335,1.8722791422456502,0.538925054105185
1772526275880557000,5.57655712890625,-0.29073358914554115,1.9835075203731656,0.6365894191194326
1772526275890539800,5.586539794921875,-0.5022966109424829,2.116102511656284,0.6571355096723884
1772526275900523000,5.59652294921875,-0.7174129413068294,2.2121458878725764,0.5489346261398866
1772526275910505000,5.6065048828125,-0.9185855019927024,2.2755410862013696,0.4432377247849479
1772526275920488000,5.616488037109375,-1.0847165599137545,2.28154529505223,0.43313068372514096
1772526275930470000,5.626469970703125,-1.2515297548800706,2.1768901578351856,0.559545378938131
1772526275940453000,5.636453125,-1.3344728265047072,1.7946128419801592,0.9317732656721025
1772526275950434800,5.646434814453125,-1.1015157190233469,1.3614052570939064,1.2240313609711826
1772526275960418000,5.65641796875,-0.8019289613366126,1.3289473410815,1.2544947421655057
1772526275970401000,5.666401123046875,-0.6968348481804132,1.3341384799838065,1.2140233233064412
1772526275980383000,5.676383056640625,-0.6958727251499891,1.0711407467648386,1.343065590544045
1772526275990366000,5.686365966796875,-0.6792559368699789,0.8855170528665185,1.308109720236063
1772526276000348200,5.69634814453125,-0.6219587631553412,0.8232248473435639,1.1479454617649316
1772526276010331000,5.706330810546875,-0.6300538068056106,0.6785946964822709,1.0801809623107312
1772526276020313900,5.71631396484375,-0.6861024417638778,0.5015927004568278,1.01249303522408
1772526276030296000,5.726296142578125,-0.8862684557557106,0.3733068045444786,0.813223823941499
1772526276040278800,5.73627880859375,-1.286031743940711,0.23991627896949647,0.5670537818068638
1772526276050261000,5.746260986328125,-1.7606500743627547,0.16584318089038133,0.2724725773224607
1772526276060244000,5.756243896484375,-2.2186481093734503,0.15082359867393968,-0.008493724111653864
1772526276070226000,5.766225830078125,-2.7166303642481564,0.08186360582485795,-0.13559800902400165
1772526276080209000,5.776208984375,-3.1649569000720974,-0.03217690711393952,-0.07175561491698026
1772526276090192100,5.786192138671875,-3.381933179089427,-0.1232502398326993,0.09915420171320438
1772526276100173800,5.796173828125,-3.1977140912920237,-0.20485329502522945,0.21173987620119003
1772526276110157000,5.806156982421875,-2.634205179017782,-0.3404160500727594,0.24179032921306787
1772526276120139000,5.816138916015625,-1.9028794476926325,-0.5484435912199318,0.2344706538494676
1772526276130122000,5.8261220703125,-1.2030360653460026,-0.7687189117826521,0.2824375795630738
1772526276140104000,5.83610400390625,-0.7189601707488298,-0.9501606438212096,0.2992686681808904
1772526276150087000,5.8460869140625,-0.4132569760084152,-1.1167293625071644,0.22773893444165585
1772526276160070000,5.85606982421875,-0.23184885397851465,-1.2377500897221267,0.02211570079012308
1772526276170052000,5.866052001953125,-0.03440262033939361,-1.2471738977581261,-0.2622286850752309
1772526276180034800,5.876034912109375,0.2128933936178684,-1.1859313474185764,-0.482580541472882
1772526276190017000,5.88601708984375,0.454423683655262,-1.1674473039619624,-0.5574520964533091
1772526276200000000,5.896,0.6913105318009853,-1.166059502865374,-0.537837879922986
1772526276209982000,5.90598193359375,0.916085501870513,-1.0952550511933863,-0.43751854342054575
1772526276219965000,5.91596484375,1.1327893936872482,-0.9425048683710395,-0.24400380401145666
1772526276229948200,5.9259482421875,1.2914087608039377,-0.7421309107169508,-0.00633577889278531
1772526276239929900,5.935929931640625,1.409860368183255,-0.5225647613368928,0.2454542220154777
1772526276249913000,5.9459130859375,1.4732289707660675,-0.32440862586274744,0.4648784787068143
1772526276259895000,5.95589501953125,1.4796838459938764,-0.22268165105208754,0.6237199276089668
1772526276269878000,5.9658779296875,1.4474527244746684,-0.12395312740504741,0.6972367069795727
1772526276279860000,5.97585986328125,1.3445733647584914,-0.032148703932762146,0.6736478877298534
1772526276289843200,5.98584326171875,1.1778770741701126,0.004299743020534515,0.6046493529686704
1772526276299826000,5.995825927734375,1.0078601147264241,0.006451368096470832,0.5050721766030416
1772526276309808000,6.00580810546875,0.8572545427173376,-0.02665156782120466,0.387806783333607
1772526276319791000,6.015791015625,0.7372884391218424,-0.09949746219292283,0.24011782942358403
1772526276329773000,6.02577294921875,0.6567758095145225,-0.15994184789210558,0.07411386848092079
1772526276339756000,6.035756103515625,0.6781219644039869,-0.1812558540776372,-0.026894107872806487
1772526276349738000,6.045738037109375,0.7912684511125088,-0.17497545863389968,-0.0652183221027255
1772526276359721000,6.055720947265625,0.8879442800134419,-0.2070949364721775,-0.02363870453974232
1772526276369704000,6.065703857421875,0.95188045335114,-0.3036225890740752,0.07040255634021013
1772526276379686000,6.075685791015625,1.0471791486799715,-0.3865279590368271,0.10178100655283778
1772526276389668900,6.0856689453125,1.095543658876419,-0.4498908625312149,0.06221237261923961
1772526276399651000,6.095651123046875,1.0551368296861647,-0.5354259964756667,-0.041456584838358686
1772526276409633800,6.1056337890625,0.8925836302518844,-0.5846586678087711,-0.17841474890019743
1772526276419617000,6.115616943359375,0.6648878042995929,-0.5608719878993929,-0.31933512199074027
1772526276429599000,6.125598876953125,0.4571574925333261,-0.45394349892288444,-0.49761491939965635
1772526276439582000,6.13558203125,0.2695914323955774,-0.3591238192826509,-0.6437881715171039
1772526276449564000,6.14556396484375,0.11040683261156081,-0.31185017306283114,-0.6955551836334168
1772526276459547100,6.155547119140625,-0.071938862529397,-0.2983648146763444,-0.7130098109770566
1772526276469528800,6.16552880859375,-0.25834347767233845,-0.34584830425456164,-0.6775625769555569
1772526276479512000,6.175511962890625,-0.420323845654726,-0.5067582665264606,-0.5584054151227698
1772526276489495000,6.1854951171875,-0.5140992769390345,-0.7796491788588463,-0.38636107803732156
1772526276499477000,6.19547705078125,-0.554837530040741,-0.9809684545390307,-0.3232819599203765
1772526276509460000,6.2054599609375,-0.7274433369338512,-0.938962373458594,-0.4918999758189544
1772526276519442200,6.215442138671875,-1.1826081943452358,-0.910660992603749,-0.7541387438967824
1772526276529425000,6.2254248046875,-1.7028373523414133,-1.0140884877219796,-0.9499467088095843
1772526276539407000,6.235406982421875,-2.025312818184495,-1.1063983764983714,-1.0901423843547702
1772526276549390000,6.24539013671875,-2.104182356759906,-1.0848816873475908,-1.212483108127117
1772526276559372800,6.255372802734375,-2.025715553766489,-0.9921908364295959,-1.2946497885517776
1772526276569355000,6.26535498046875,-1.8092419635742902,-0.8343187805488705,-1.2687719815820455
1772526276579338000,6.275337890625,-1.523508374673128,-0.6593269553020596,-1.1493815589826553
1772526276589320000,6.28531982421875,-1.199762158241868,-0.5330220040738582,-0.9899320246521383
1772526276599303000,6.295302978515625,-0.8237818967044352,-0.4137213786497712,-0.8744077759616077
1772526276609284900,6.305284912109375,-0.482450923743844,-0.30458763471394773,-0.7693077445212751
1772526276619267800,6.315267822265625,-0.22999650411009787,-0.2364694995164871,-0.6555760052707046
1772526276629251800,6.325251953125,-0.05942249530553818,-0.15351766006350517,-0.5105964564498514
1772526276639233500,6.335233642578125,0.020644728621840476,-0.035353637453913685,-0.41164508383236825
1772526276649216800,6.345216796875,0.04342003953158855,0.17220248678922653,-0.3913348478619009
1772526276659198700,6.35519873046875,0.04559738357067108,0.4413885532543063,-0.37417598859444257
1772526276669181700,6.365181640625,0.06564180821180343,0.6429878149196505,-0.2311919427060522
1772526276679163600,6.37516357421875,0.17964695757627486,0.7156149519741535,0.06719910239009186
1772526276689147000,6.38514697265625,0.3903291048854589,0.7457298119917511,0.40396490459330375
1772526276699129600,6.395129638671875,0.6905377938628197,0.8844877098187803,0.6707613725081085
1772526276709111800,6.40511181640625,0.9708891052037477,1.0718959490463138,0.9232728560913354
1772526276719094800,6.4150947265625,1.1346908433943985,1.148759700757265,1.1854482400767505
1772526276729076700,6.42507666015625,1.1976403437823055,1.125812540411949,1.4202639810368418
1772526276739059700,6.435059814453125,1.2038228318095205,1.1169248850792646,1.5588545594729482
1772526276749042000,6.4450419921875,1.1203490143090487,1.1693360403180122,1.6080306783132254
1772526276759024600,6.455024658203125,0.9437591062158346,1.2412941920697689,1.5940135511375964
1772526276769007600,6.465007568359375,0.6768266638964414,1.3088915182635188,1.4410533788263797
1772526276778989800,6.47498974609375,0.3814356043338775,1.3213497255593538,1.1743871862277389
1772526276788972500,6.48497265625,0.1185334404438734,1.2366925434932112,0.8737044499978422
1772526276798954800,6.494954833984375,-0.06979132910668849,1.117694115886092,0.581974470226094
1772526276808937700,6.504937744140625,-0.11601356657743453,1.0449956671610474,0.31269794899858533
1772526276818919700,6.514919677734375,-0.12602642654776572,1.0372036981105803,0.13566440705740823
1772526276828902700,6.524902587890625,-0.17188626044690608,1.0741177167490124,0.017635445536952465
1772526276838886000,6.534885986328125,-0.26136720940768715,1.1046244986936449,-0.009790960847958921
1772526276848867600,6.54486767578125,-0.3879121068716049,1.1229384462803602,0.09056037822794169
1772526276858850800,6.554850830078125,-0.5026549228608608,1.0993842599526047,0.28165950786266475
1772526276868832500,6.56483251953125,-0.5384791004359721,1.1495648796603084,0.38541038971636443
1772526276878815700,6.574815673828125,-0.4058826478481293,1.2256617386519908,0.41820699963122604
1772526276888797700,6.584797607421875,-0.17889818503558635,1.168687513281405,0.4241619990454986
1772526276898780700,6.59478076171875,0.12820377058684826,1.0283227647796274,0.3445020407447591
1772526276908763600,6.604763671875,0.5429436786293983,0.8396247780025005,0.2413670988323167
1772526276918745900,6.614745849609375,0.9667828389286994,0.6549693446144461,0.007366948571428656
1772526276928728600,6.624728515625,1.244794309145212,0.4696744442790746,-0.28314945415947584
1772526276938710800,6.634710693359375,1.403008602592349,0.2461293082654476,-0.5677829728642478
1772526276948693800,6.64469384765625,1.457252233955264,-0.017943360708653926,-0.8760681103892624
1772526276958675700,6.65467578125,1.3782996932715177,-0.2474836454838514,-1.1856589602179826
1772526276968658700,6.66465869140625,1.1712620399445295,-0.410234121055901,-1.4768003995120524
1772526276978641700,6.6746416015625,0.8433633800089358,-0.4993406837463379,-1.7695894598826765
1772526276988623600,6.68462353515625,0.39332711765766143,-0.5409983897805214,-2.035281985143572
1772526276998606600,6.694606689453125,-0.16964228091239927,-0.5302890719786286,-2.2781739189229904
1772526277008588800,6.7045888671875,-0.7196282792687415,-0.4745458497077226,-2.5173893561467526
1772526277018571500,6.714571533203125,-1.2506670005708933,-0.3970972838461399,-2.7545786943703887
1772526277028553700,6.7245537109375,-1.7031635155558584,-0.28097821106761695,-2.8635660155728457
1772526277038536700,6.73453662109375,-2.1192449013352395,-0.11508534581661224,-2.881393056425452
1772526277048519700,6.744519775390625,-2.483611881968379,0.031230712305009362,-2.8021251661822197
1772526277058501600,6.754501708984375,-2.728300343775749,0.13247457977384328,-2.6137925055861473
1772526277068484900,6.76448486328125,-2.8315093738377093,0.14010288269519805,-2.3633562939070165
1772526277078466600,6.774466552734375,-2.6386761869519946,0.0772024821460247,-2.184571067726612
1772526277088449800,6.78444970703125,-2.1824270414352416,0.08651040871739386,-2.195688381807506
1772526277098431500,6.794431396484375,-1.710644811221957,0.1116191310107708,-2.2698932895727455
1772526277108414700,6.804414794921875,-1.3956675921797752,0.04182224894613027,-2.270015746908635
1772526277118397700,6.814397705078125,-1.0787421616792678,-0.017935761924088,-2.2277689889401198
1772526277128379600,6.824379638671875,-0.7002431953191757,0.029120003761351106,-2.1683593531161547
1772526277138362600,6.834362548828125,-0.29599779328405856,0.1309901864349842,-2.0517210787691176
1772526277148344800,6.8443447265625,0.09101531892120837,0.27596798169016834,-1.8246039294876157
1772526277158327600,6.85432763671875,0.42532852207422256,0.49868601922988887,-1.4884569350361823
1772526277168309800,6.864309814453125,0.6230366215199232,0.7235171034008264,-1.038343442730233
1772526277178292700,6.874292724609375,0.6875234144777059,0.8868041700676083,-0.5191575832419097
1772526277188275500,6.884275390625,0.7157850478440523,1.0379401956915855,-0.06624982970808632
1772526277198257700,6.894257568359375,0.7951496764600277,1.1228376162543892,0.31709158084765077
1772526277208240600,6.90424072265625,0.9409072239160537,1.0793532793149352,0.6633974926766008
1772526277218222600,6.91422265625,1.2105021634429693,0.9026806613743305,0.9388425464712082
1772526277228205600,6.92420556640625,1.4920838933616876,0.6467100503131746,1.0856252722565085
1772526277238187800,6.934187744140625,1.6393074217170476,0.3833922913596034,1.1143442940015345
1772526277248170500,6.94417041015625,1.596219390618801,0.116570323677361,1.0395005768761039
1772526277258153700,6.95415380859375,1.4276374324142933,-0.09122370097488164,0.9370207378715276
1772526277268135700,6.9641357421875,1.2013766077011823,-0.1865560063123703,0.8515310505039989
1772526277278118700,6.97411865234375,0.9771645322114229,-0.16522183412164448,0.7813242724642158
1772526277288100600,6.9841005859375,0.7429056944817304,-0.0275496857047081,0.7305860188737511
1772526277298083800,6.994083740234375,0.5054144507020711,0.1329135557129979,0.725608157395944
1772526277308065500,7.0040654296875,0.2758317880898714,0.2495046299174428,0.8226120492074638
1772526277318048800,7.014048828125,0.10945230836570262,0.3138286335289478,0.9955427772060036
1772526277328031700,7.02403173828125,-0.013440496331453323,0.4017981550134718,1.1422248190958053
1772526277338013700,7.034013671875,-0.09796879132091998,0.5196589568927884,1.1936995702672748
1772526277347996700,7.04399658203125,-0.10448094969391822,0.640418841214478,1.2082150754190981
1772526277357978600,7.053978515625,-0.05664017111063003,0.6710461807988584,1.212668839957565
1772526277367961600,7.063961669921875,0.04903729489147663,0.6057844579458236,1.1974985241588205
1772526277377943800,7.07394384765625,0.1790910772591829,0.4996270994722843,1.1485019996691495
1772526277387926500,7.083926513671875,0.36025136200785635,0.4043567534551024,1.0519017932876944
1772526277397909800,7.09390966796875,0.5622030903726816,0.3516241111770272,0.9358039094276726
1772526277407891700,7.1038916015625,0.7463982127726078,0.3159071933686733,0.8399634353723376
1772526277417874700,7.113874755859375,0.8981044394999742,0.2963701337277889,0.7865870883632451
1772526277427856600,7.123856689453125,1.017073348751664,0.28612521856725215,0.7607743825189769
1772526277437840000,7.13383984375,1.1021206991791725,0.29376521192640065,0.7303088093675673
1772526277447821600,7.143821533203125,1.146193649661541,0.3026505291715264,0.7134246753882616
1772526277457804800,7.1538046875,1.196095452427864,0.33493484218269587,0.7205233284123241
1772526277467786800,7.163786865234375,1.2118740363180636,0.3752627609178424,0.7513806773602962
1772526277477769700,7.173769775390625,1.2241887434899805,0.38524902514219284,0.8266974188249557
1772526277487752700,7.183752685546875,1.3050918337196111,0.36941754202097654,0.942060339473933
1772526277497735000,7.19373486328125,1.4239520218998194,0.2928799535244703,1.0489510537233202
1772526277507717600,7.203717529296875,1.525082492122054,0.15743863289952278,1.1625366625014693
1772526277517699800,7.213699951171875,1.6018752244234085,-0.03157148856669664,1.2643399904839694
1772526277527682800,7.223682861328125,1.6117542288810014,-0.19425240603387356,1.3618994703516363
1772526277537664800,7.233664794921875,1.5550556055814027,-0.3167576727181673,1.473897663807869
1772526277547647700,7.243647705078125,1.3971546158671377,-0.43532735351920127,1.5677506903730332
1772526277557630700,7.253630615234375,1.092242863765359,-0.5679148921482264,1.6474008579321204
1772526277567612700,7.26361279296875,0.6149053375124931,-0.750339497744292,1.6015611900381743
1772526277577595600,7.273595703125,0.01685001251399517,-0.9468294535718857,1.4213748648881912
1772526277587577600,7.28357763671875,-0.6880757876634598,-1.150446484800428,1.216981588590145
1772526277597560600,7.293560546875,-1.3935446086764334,-1.3080652965724469,1.0722231351740659
1772526277607542800,7.303542724609375,-2.0029741451263425,-1.5149781544759868,1.1099633755035698
1772526277617525500,7.313525390625,-2.424951603206992,-1.7384049248069524,1.1980488515179604
1772526277627508700,7.3235087890625,-2.64144506714344,-1.8996397351190446,1.2447463783502577
1772526277637490700,7.33349072265625,-2.6276713933348654,-1.9826788144640624,1.1886891947593539
1772526277647474000,7.343473876953125,-2.361794597548246,-2.057198779527843,1.0747883094869553
1772526277657455600,7.35345556640625,-2.0197095913499594,-2.188690485744178,0.9537996579106897
1772526277667438800,7.36343896484375,-1.6614859357774256,-2.374333761125803,0.8733051484819501
1772526277677420500,7.373420654296875,-1.3340087161242962,-2.5103414834618567,0.7784316197626292
1772526277687403800,7.38340380859375,-1.0774515373468398,-2.602216049560904,0.6060816873267293
1772526277697386800,7.39338671875,-0.9734966573536395,-2.6670103010326622,0.2479305124685168
1772526277707369000,7.403368896484375,-0.9486638293921947,-2.6490079036131498,-0.29092034388929605
1772526277717351700,7.4133515625,-1.003977720335126,-2.6394448332369325,-0.930978388967365
1772526277727334000,7.423333984375,-1.0563713399171828,-2.6175521503806114,-1.6384953746818005
1772526277737316900,7.43331689453125,-1.0527683469891547,-2.603167943458259,-2.211809495525062
1772526277747298800,7.443298828125,-0.9940326649039983,-2.8721880057066675,-2.279808095996082
1772526277757281800,7.45328173828125,-0.6546668545365333,-3.5021538419678806,-1.8800187965869903
1772526277767264800,7.4632646484375,-0.138183897331357,-3.684080434913933,-1.622353656567633
1772526277777246700,7.473246826171875,0.5374550180852413,-3.1908821994453667,-1.8676966367609797
1772526277787229700,7.483229736328125,1.1996996143996714,-2.3890827097073197,-2.108210881623626
1772526277797211600,7.493211669921875,1.48340725043118,-1.7830547983944416,-1.9608266097486018
1772526277807194600,7.503194580078125,1.173586683499813,-1.4074115137264132,-1.3432811329908667
1772526277817176800,7.5131767578125,0.2307230648189783,-0.8422595104202628,-0.5644818489596247
1772526277827159600,7.52315966796875,-0.9044844959259033,-0.0047357963502407075,-0.13741072100177407
1772526277837141800,7.533141845703125,-1.9211925184965133,0.8347875671043992,0.07694353894889354
1772526277847124700,7.543124755859375,-2.6567390823870896,1.543111485287547,0.057682665900886054
1772526277857107700,7.553107666015625,-3.0193238557785747,2.1364158163666724,-0.22949366915449498
1772526277867089700,7.563089599609375,-2.944902528783679,2.639205179262161,-0.6309102775044739
1772526277877073000,7.573072998046875,-2.5500807886540886,2.8447505482047792,-0.8697738325506448
1772526277887054600,7.5830546875,-1.9682108747810123,2.7140149210527538,-0.8542829795606434
1772526277897037800,7.593037841796875,-1.320515612822771,2.500838618840277,-0.8402861645206808
1772526277907019500,7.60301953125,-0.7820505409121513,2.3692548504263162,-0.9337022609733044
1772526277917002800,7.613002685546875,-0.37920799141228195,2.3085464069634676,-1.0980011350311338
1772526277926985700,7.62298583984375,-0.0973585504680872,2.2570701944872735,-1.249769321078807
1772526277936968000,7.632968017578125,-0.021423896300792694,2.0510048933237788,-1.4219799911744893
1772526277946950700,7.64295068359375,-0.04467793063819408,1.7791423011258243,-1.701697680786997
1772526277956932900,7.652932861328125,-0.06206862590014934,1.675870142699778,-2.073932033794373
1772526277966915800,7.662915771484375,-0.056496378725767134,1.7812284597501158,-2.4487314149841666
1772526277976897800,7.672897705078125,-0.06999357368052006,1.9268331547319888,-2.6284254265725613
1772526277986880800,7.682880859375,-0.17845044126808643,1.9506401467770338,-2.4797522839307784
1772526277996863700,7.69286376953125,-0.29900048223137854,1.889700524906814,-2.0990106532104313
1772526278006845700,7.702845703125,-0.34820670394897457,1.8229899184197187,-1.6698742632858454
1772526278016828700,7.71282861328125,-0.2678220846354961,1.7868612049400805,-1.273630089137703
1772526278026810600,7.722810546875,-0.1151344456553459,1.7571467424169183,-0.863580676998943
1772526278036793600,7.732793701171875,0.1240969197899103,1.7182812974497674,-0.3754378252238035
1772526278046775800,7.74277587890625,0.39965047546029087,1.6596280329510569,0.17835326450392602
1772526278056758500,7.752758544921875,0.6768401078999042,1.6225257982641457,0.6654698419712484
1772526278066740700,7.76274072265625,0.928774887573719,1.6100854188859461,1.038897642546892
1772526278076723700,7.7727236328125,1.1488245826870203,1.555221025276184,1.372381409138441
1772526278086706700,7.782706787109375,1.2955892613589763,1.3861860626071691,1.6561217783957718
1772526278096688600,7.792688720703125,1.3876479518532752,1.1558499512791633,1.880285192438215
1772526278106671900,7.802671875,1.4680162045538425,0.9739841486096381,2.0291592644795773
1772526278116653600,7.812653564453125,1.4361860650509595,0.8422884442538022,2.1084663176894187
1772526278126636800,7.82263671875,1.3095172489464282,0.7725131894990801,2.1983920878082515
1772526278136618500,7.832618408203125,1.0998521697252988,0.7919707541629671,2.3486995536535975
1772526278146601700,7.842601806640625,0.8351005785763264,0.7870189769744873,2.5312825646817685
1772526278156584700,7.852584716796875,0.5126011473357677,0.7700383238181472,2.6368989481464027
1772526278166567000,7.86256689453125,0.14008067086338996,0.7800359862193464,2.575211138257384
1772526278176549600,7.872549560546875,-0.2803933969169855,0.8082204626962542,2.392474982494116
1772526278186531800,7.88253173828125,-0.6650953095704317,0.8249670148357748,2.0878794567346572
1772526278196514800,7.892514892578125,-0.9241226778537034,0.8503826111212373,1.7535291364416479
1772526278206496800,7.902496826171875,-0.9696195236593484,0.8738605173423886,1.4768097518622874
1772526278216479700,7.912479736328125,-0.8222276529997586,0.8721268254175781,1.2654682638615369
1772526278226462700,7.922462646484375,-0.4855921443790197,0.8464829733341932,0.9967856899391859
1772526278236444700,7.932444580078125,-0.10070084663331508,0.7882087712809444,0.8101991423580795
1772526278246427600,7.942427734375,0.23216391127705574,0.7283104751572013,0.7797652795191854
1772526278256409600,7.95240966796875,0.4515875834465027,0.7059221177384257,0.770860307725519
1772526278266392800,7.962392822265625,0.6391980672478675,0.7565604180857539,0.6554780247889459
1772526278276374800,7.972374755859375,0.829250683504343,0.8403636136710644,0.4397114868875593
1772526278286357800,7.982357666015625,1.078842699444294,0.9157593386560678,0.25678528844490645
1772526278296339700,7.992339599609375,1.2607476650804281,0.9630115036964416,0.10640563414618372
1772526278306322700,8.00232275390625,1.3249398590058088,0.9079816903918981,-0.01729739095531404
1772526278316305700,8.0123056640625,1.3572048827946186,0.7848258508443832,-0.13679310056008398
1772526278326288000,8.022287841796874,1.3448662102252245,0.7013207614228129,-0.25726518091633915
1772526278336270800,8.032270751953124,1.3148884205907583,0.6438891476735472,-0.3752883337505162
1772526278346252800,8.042252685546876,1.350266023442149,0.5510229401886463,-0.48568230688050384
1772526278356235800,8.05223583984375,1.367718678024411,0.42421939178854223,-0.5534611271210015
1772526278366217700,8.0622177734375,1.2585463556438683,0.2500420977950096,-0.5420976562593132
1772526278376200700,8.07220068359375,1.1338479628294706,0.056687225122749804,-0.5359895486425608
1772526278386183700,8.08218359375,0.9708072721391916,-0.18456220214664934,-0.5911550440907478
1772526278396166000,8.092165771484375,0.7820973026633262,-0.43673020605444907,-0.6171000710777939
1772526278406148600,8.102148681640625,0.5756698901891708,-0.6698579939275979,-0.5530764751849696
1772526278416130800,8.112130859375,0.40705929041206834,-0.9232251444920897,-0.4956482224365696
1772526278426113800,8.12211376953125,0.28722762685120107,-1.1798472051993012,-0.41519565245341505
1772526278436095700,8.132095703125,0.1528016207486391,-1.4203691949769854,-0.372056146896258
1772526278446078700,8.14207861328125,0.006905541604757309,-1.6540949487432837,-0.3566284222703427
1772526278456060700,8.152060791015625,-0.12758651547133923,-1.7991528234973548,-0.3314410452501848
1772526278466043600,8.162043701171875,-0.29354513943493366,-1.8537199877262114,-0.26292788285315033
1772526278476027000,8.17202685546875,-0.537104889473319,-1.837258390007913,-0.10189308862518519
1772526278486008600,8.182008544921874,-0.820535462129116,-1.7761749757528305,0.06358100322447717
1772526278495991800,8.19199169921875,-1.1385849282234906,-1.8919512264430522,0.45942463374771175
1772526278505973800,8.201973876953126,-1.3733686666101217,-2.44762491504699,1.201125555549562
1772526278515956700,8.211956787109376,-1.3947230048060417,-2.8566595971852538,1.5884047713451086
1772526278525938700,8.221938720703125,-1.3001321654856204,-2.841817417362332,1.2890844095095992
1772526278535922000,8.231921875,-0.9735060097038746,-2.6878809473648664,0.4606827440500259
1772526278545904600,8.241904541015625,-0.5163017554193735,-2.4369036145463583,-0.4601535325441509
1772526278555886800,8.251886962890625,-0.1454413211137056,-2.2358543879792094,-0.8654691941592841
1772526278565869800,8.261869873046875,0.0810018744289875,-2.2028858920961616,-0.5414787206433713
1772526278575851800,8.271851806640624,0.023032500541210175,-1.9799287851035594,-0.0497378078436479
1772526278585834800,8.281834716796874,-0.3617050679475069,-1.4434218615233898,0.521117192877084
1772526278595817000,8.29181689453125,-0.9901216289401054,-0.8260732225120068,1.0941727358493953
1772526278605799700,8.301799560546876,-1.609393929490447,-0.10270838706344365,1.2763237121358513
1772526278615782000,8.311781982421875,-2.2604437625736,0.5995289046823978,1.313238315296173
1772526278625764900,8.321764892578125,-2.741692909312248,1.0273074502572417,1.3940997583411634
1772526278635747800,8.331747802734375,-2.8302275173336264,1.162420854102075,1.4185947326503694
1772526278645729800,8.341729736328125,-2.335284191763401,1.3091492924168706,1.1341221035957336
1772526278655712800,8.351712646484375,-1.5536305412143467,1.4860206477999687,0.7386907071352005
1772526278665694700,8.36169482421875,-0.8726543564230204,1.451743115144968,0.46869069393873214
1772526278675677700,8.371677734375,-0.34025486816167827,1.315069622376561,0.32804369442947207
1772526278685660000,8.381659912109376,0.022743162205815314,1.1388216595888137,0.35314416035115714
1772526278695642600,8.391642578125,0.2330266655862331,0.979335154248774,0.44851972030848264
1772526278705625900,8.4016259765625,0.3982154742211103,0.9005190994262695,0.5518592448823154
1772526278715607800,8.41160791015625,0.549292755395174,0.9643915598779916,0.5847221980316564
1772526278725590800,8.4215908203125,0.628098581084609,1.0726254323646425,0.5074025923119858
1772526278735572700,8.43157275390625,0.5329261424839496,1.146499354609847,0.32468375300969926
1772526278745556000,8.441555908203124,0.328977687343955,1.2393272759109735,0.14180662700631655
1772526278755537700,8.45153759765625,0.08271101643443107,1.377402159909904,-0.09574920644215308
1772526278765521000,8.46152099609375,-0.0776817900955677,1.5001377282187343,-0.38982429716847833
1772526278775502800,8.4715029296875,-0.15317980641126633,1.5787901169121263,-0.5212040674429387
1772526278785485800,8.48148583984375,-0.13193302024304865,1.6658824171707034,-0.5326968637727201
1772526278795468800,8.49146875,-0.062434536603093144,1.7032161225259304,-0.4175059386897832
1772526278805451000,8.501450927734375,0.11865034482181072,1.667932919959724,-0.2190742559435777
1772526278815433700,8.511433837890625,0.4788081833273172,1.6876675479993224,-0.02717245217344025
1772526278825416000,8.521416015625,0.8585323075681924,1.734948062351346,0.14625903070475904
1772526278835399000,8.53139892578125,1.1478297264307737,1.6708412086218594,0.338864655912295
1772526278845380900,8.541380859375,1.3635440226882696,1.5422177513182163,0.5021619517121464
1772526278855363800,8.55136376953125,1.5780565419405699,1.4024711347147822,0.5831175027813762
1772526278865345800,8.561345703125,1.7728122213214634,1.2693620564296841,0.5803607514191419
1772526278875328800,8.571328857421875,1.9773048663407562,1.1031468273565173,0.5432677960172295
1772526278885311700,8.581311767578125,2.1693939568608998,0.896950301028788,0.58207424080614
1772526278895293700,8.591293701171875,2.3434593149125575,0.6807450063839554,0.6783196789331734
1772526278905276700,8.601276611328124,2.489664021614194,0.4837316112041473,0.7810626989185809
1772526278915259000,8.6112587890625,2.576602300354838,0.3489209896981716,0.8979835895992815
1772526278925241600,8.62124169921875,2.588507257682085,0.2784139135375619,0.9244359085213393
1772526278935223800,8.631223876953126,2.4932751978486776,0.17883593345433474,0.8852196773551404
1772526278945206800,8.641206787109375,2.2696885607808825,0.010012275448441505,0.9834930045805871
1772526278955189800,8.651189697265625,1.965050364923477,-0.08454524612426757,1.1705812911387532
1772526278965171700,8.661171630859375,1.5955056893914936,-0.13381985690295695,1.3007304236397146
1772526278975155000,8.671155029296875,1.131430380293727,-0.186224582400918,1.1133263491306453
1772526278985136600,8.68113671875,0.6260913329154253,-0.18927987831830978,0.7544474445197731
1772526278995119900,8.691119873046874,0.17247428946793078,-0.15201953046023844,0.5448716510172933
1772526279005101800,8.701101806640626,-0.25081132860183714,-0.1460506851837039,0.6633330491382629
1772526279015084800,8.711084716796876,-0.7409469616293907,-0.33969138906002044,0.980919354700297
1772526279025066800,8.721066650390625,-1.2622843731284141,-0.4903635965645313,0.8888235470660031
1772526279035050000,8.731050048828125,-1.7511615305274724,-0.15539076045900582,0.1925693665840663
1772526279045032700,8.74103271484375,-2.303523025843501,0.1536488852277398,-0.3466799327731132
1772526279055015000,8.751014892578125,-2.822656205296516,-0.03498684996813536,-0.286512281656079
1772526279064998000,8.760997802734375,-3.005447306117415,-0.3524681607857346,0.026524050717707724
1772526279074979800,8.770979736328124,-2.6966180883109567,-0.34852029994279143,0.1401086548488587
1772526279084962800,8.780962890625,-2.1922136914342643,-0.16306728643625973,0.168251045749709
1772526279094944800,8.79094482421875,-1.7099311099946497,-0.05029372469335794,0.38699557654857636
1772526279104927700,8.800927734375,-1.2831804461628198,0.07443243291079997,0.6665918317385018
1772526279114910000,8.810909912109375,-0.7858177844911813,0.2336354451343417,0.8726308294169605
1772526279124892700,8.820892578125,-0.35210254234373567,0.2833934555158019,1.003401381751895
1772526279134875600,8.830875732421875,-0.11781623208522796,0.2782730437621474,1.0203785277768969
1772526279144857900,8.84085791015625,-0.16846856095790863,0.2806993941262364,0.996680037607625
1772526279154840800,8.8508408203125,-0.31584406500458717,0.5213669298544525,0.9478840041261166
1772526279164822800,8.86082275390625,-0.5063280584156513,0.9975596699863671,0.973670479550585
1772526279174805800,8.8708056640625,-0.5819412255436182,0.9982087815448641,0.9156340317759663
1772526279184787700,8.88078759765625,-0.30846389162540433,1.1608622264832258,0.8891725066341459
1772526279194770700,8.890770751953125,0.07123042199909686,1.833289778637886,1.1235182919949291
1772526279204753000,8.9007529296875,0.4862035542756319,2.2910192258402704,1.3569415556833146
1772526279214736000,8.91073583984375,1.0653542723178864,2.3358541006058453,1.2646417499095202
1772526279224718800,8.92071875,1.6228472853034734,2.119536285497248,0.998984003701061
1772526279234700800,8.93070068359375,2.021245130354166,1.7431722853392362,0.6913873233642429
1772526279244683800,8.940683837890624,2.2814444650262593,1.4140581121340394,0.4414682674270123
1772526279254665700,8.950665771484376,2.4161457809388636,1.4248779045730828,0.2938154808089137
1772526279264649000,8.96064892578125,2.3663199660182,2.1710250651940703,0.3584848637919873
1772526279274631000,8.970630859375,2.1388088489830492,2.231056047786772,0.7663652613285928
