time,seconds_elapsed,z,y,x
1772526270390131700,0.086131591796875,-0.2869274616241455,-0.7144463658332825,0.36012473702430725
1772526270400114700,0.09611474609375,-0.3366795778274536,-0.6841377019882202,0.4023933708667755
1772526270410097000,0.106096923828125,-0.413716584444046,-0.6518541574478149,0.42752087116241455
1772526270420079600,0.11607958984375,-0.5065050721168518,-0.5810787677764893,0.4485108256340027
1772526270430062800,0.126062744140625,-0.6016834378242493,-0.40988266468048096,0.47979384660720825
1772526270440044800,0.136044921875,-0.6757243871688843,-0.11901618540287018,0.5091437101364136
1772526270450027800,0.14602783203125,-0.66901695728302,0.22991061210632324,0.5516571402549744
1772526270460009700,0.156009765625,-0.5955525636672974,0.4501170217990875,0.5861051082611084
1772526270469993000,0.165992919921875,-0.4957215189933777,0.4517013430595398,0.5880432724952698
1772526270479975700,0.1759755859375,-0.4150967001914978,0.26229092478752136,0.5421090722084045
1772526270489958000,0.1859580078125,-0.38673028349876404,-0.032941389828920364,0.42749595642089844
1772526270499940900,0.19594091796875,-0.45541292428970337,-0.3792511522769928,0.2326657474040985
1772526270509923800,0.205923828125,-0.6241939663887024,-0.7296887040138245,-0.024388980120420456
1772526270519905800,0.21590576171875,-0.8475484848022461,-0.9585967063903809,-0.27412664890289307
1772526270529888800,0.225888671875,-1.0739262104034424,-0.9727354645729065,-0.45860618352890015
1772526270539870700,0.23587060546875,-1.2667276859283447,-0.865176260471344,-0.5623307228088379
1772526270549853700,0.245853759765625,-1.3879010677337646,-0.6997837424278259,-0.5712888836860657
1772526270559837000,0.2558369140625,-1.4202313423156738,-0.5229008197784424,-0.48787254095077515
1772526270569818600,0.265818603515625,-1.3518389463424683,-0.3549457788467407,-0.3093354403972626
1772526270579801900,0.2758017578125,-1.1741195917129517,-0.17692546546459198,-0.056342869997024536
1772526270589783800,0.28578369140625,-0.9024317264556885,0.04712694138288498,0.2661437690258026
1772526270599766800,0.295766845703125,-0.5723366141319275,0.2879938781261444,0.6230208873748779
1772526270609749800,0.305749755859375,-0.23926390707492828,0.45417141914367676,0.9670182466506958
1772526270619732700,0.315732666015625,0.017585208639502525,0.4665524363517761,1.2537083625793457
1772526270629715700,0.3257158203125,0.18681350350379944,0.3677680790424347,1.4693801403045654
1772526270639697700,0.33569775390625,0.30180642008781433,0.21671810746192932,1.6210192441940308
1772526270649680600,0.3456806640625,0.37356364727020264,0.06824150681495667,1.705906629562378
1772526270659663600,0.35566357421875,0.4099850356578827,-0.048433709889650345,1.732651710510254
1772526270669645600,0.3656455078125,0.4214351177215576,-0.16684438288211823,1.7001954317092896
1772526270679628500,0.375628662109375,0.42106547951698303,-0.3111858665943146,1.6034560203552246
1772526270689610800,0.38561083984375,0.38179725408554077,-0.4849623441696167,1.44696044921875
1772526270699593500,0.395593505859375,0.29357340931892395,-0.6763749122619629,1.230880618095398
1772526270709576700,0.40557666015625,0.14939022064208984,-0.8611555099487305,0.9735413193702698
1772526270719558700,0.41555859375,-0.05864740535616875,-0.9892951250076294,0.7023841142654419
1772526270729541600,0.425541748046875,-0.3231011629104614,-1.0442602634429932,0.4354616105556488
1772526270739523600,0.435523681640625,-0.6041650772094727,-1.0286909341812134,0.18820415437221527
1772526270749506800,0.4455068359375,-0.8875575661659241,-0.9789729118347168,-0.017745941877365112
1772526270759489500,0.455489501953125,-1.1516989469528198,-0.8985611796379089,-0.1853911280632019
1772526270769471700,0.4654716796875,-1.368406891822815,-0.7701175808906555,-0.31271716952323914
1772526270779454700,0.475454833984375,-1.5341717004776,-0.6253196597099304,-0.4007312059402466
1772526270789436700,0.485436767578125,-1.6328052282333374,-0.4668336510658264,-0.4508569538593292
1772526270799419600,0.495419677734375,-1.6670840978622437,-0.3094112277030945,-0.4734671711921692
1772526270809402600,0.505402587890625,-1.6540110111236572,-0.20678682625293732,-0.46838507056236267
1772526270819384600,0.515384521484375,-1.5998233556747437,-0.13939526677131653,-0.4507397711277008
1772526270829367600,0.525367431640625,-1.520495057106018,-0.09010187536478043,-0.4162580370903015
1772526270839349500,0.535349609375,-1.4224615097045898,-0.05787789821624756,-0.3710399568080902
1772526270849332500,0.54533251953125,-1.3343361616134644,-0.03711558133363724,-0.3203323483467102
1772526270859315700,0.555315673828125,-1.2648948431015015,-0.030237970873713493,-0.272010862827301
1772526270869297400,0.56529736328125,-1.214935064315796,-0.049391116946935654,-0.24032139778137207
1772526270879280600,0.57528076171875,-1.1781996488571167,-0.07652579993009567,-0.2242521494626999
1772526270889263600,0.585263671875,-1.1515429019927979,-0.11080189049243927,-0.2282276600599289
1772526270899245600,0.59524560546875,-1.1340672969818115,-0.15611398220062256,-0.2460191696882248
1772526270909228500,0.605228515625,-1.1243823766708374,-0.2023877203464508,-0.2719433307647705
1772526270919210800,0.615210693359375,-1.1173526048660278,-0.25110384821891785,-0.30413269996643066
1772526270929193500,0.625193359375,-1.1134023666381836,-0.3412316143512726,-0.3392579257488251
1772526270939176400,0.635176513671875,-1.1047359704971313,-0.4610706567764282,-0.3612785339355469
1772526270949158700,0.64515869140625,-1.0938762426376343,-0.5924352407455444,-0.351617693901062
1772526270959141400,0.655141357421875,-1.0840153694152832,-0.73160320520401,-0.3059120178222656
1772526270969123600,0.66512353515625,-1.0839966535568237,-0.8573444485664368,-0.23042012751102448
1772526270979106600,0.6751064453125,-1.0837448835372925,-0.9751126766204834,-0.12610357999801636
1772526270989089500,0.685089599609375,-1.0855053663253784,-1.0850467681884766,-0.012511462904512882
1772526270999071500,0.695071533203125,-1.0812101364135742,-1.126800775527954,0.1037011668086052
1772526271009054700,0.7050546875,-1.0500036478042603,-1.0575497150421143,0.21424803137779236
1772526271019036400,0.715036376953125,-0.9844094514846802,-0.9503815770149231,0.3078805208206177
1772526271029019600,0.72501953125,-0.909822940826416,-0.8771412968635559,0.3640088438987732
1772526271039002600,0.735002685546875,-0.8608897924423218,-0.8056662678718567,0.36861130595207214
1772526271048984600,0.744984619140625,-0.8642134666442871,-0.7469289898872375,0.3101324439048767
1772526271058967600,0.754967529296875,-0.9172937273979187,-0.6906076669692993,0.19784319400787354
1772526271068949800,0.76494970703125,-1.003842830657959,-0.6180233359336853,0.04511576145887375
1772526271078932500,0.774932373046875,-1.118322730064392,-0.5499968528747559,-0.14362061023712158
1772526271088915700,0.784915771484375,-1.2610872983932495,-0.5116307139396667,-0.35717007517814636
1772526271098897700,0.794897705078125,-1.3993561267852783,-0.505772054195404,-0.5771679878234863
1772526271108880600,0.804880615234375,-1.5006054639816284,-0.47647732496261597,-0.7640464901924133
1772526271118862600,0.814862548828125,-1.5466084480285645,-0.3958871364593506,-0.8885058760643005
1772526271128845600,0.824845458984375,-1.55842125415802,-0.3354259729385376,-0.9424923658370972
1772526271138828500,0.83482861328125,-1.5490919351577759,-0.27862632274627686,-0.9223918914794922
1772526271148810800,0.844810791015625,-1.5079174041748047,-0.20552241802215576,-0.8272364139556885
1772526271158793700,0.854793701171875,-1.4432744979858398,-0.09612881392240524,-0.6661303639411926
1772526271168775700,0.864775634765625,-1.346632719039917,0.055458784103393555,-0.4542882442474365
1772526271178758700,0.874758544921875,-1.2392778396606445,0.22752214968204498,-0.2185489535331726
1772526271188741600,0.88474169921875,-1.1228375434875488,0.4111271798610687,0.005029519088566303
1772526271198723600,0.8947236328125,-0.998729407787323,0.539217472076416,0.18647147715091705
1772526271208706600,0.90470654296875,-0.8787049055099487,0.5819803476333618,0.3111744225025177
1772526271218688800,0.914688720703125,-0.7700117230415344,0.5391578078269958,0.3763584792613983
1772526271228671500,0.92467138671875,-0.6788907051086426,0.42284709215164185,0.38296744227409363
1772526271238654700,0.93465478515625,-0.6115401983261108,0.21333621442317963,0.34251800179481506
1772526271248636700,0.94463671875,-0.5874353647232056,-0.12510207295417786,0.2520062327384949
1772526271258619600,0.95461962890625,-0.6104525327682495,-0.5734156370162964,0.13069073855876923
1772526271268601600,0.9646015625,-0.6948143243789673,-1.027192234992981,0.010411061346530914
1772526271278584800,0.974584716796875,-0.8405632972717285,-1.3340398073196411,-0.06343840062618256
1772526271288567600,0.984567626953125,-1.0239534378051758,-1.4466592073440552,-0.08431494981050491
1772526271298549800,0.9945498046875,-1.2390649318695068,-1.4097539186477661,-0.07503676414489746
1772526271308532700,1.00453271484375,-1.4561846256256104,-1.2888530492782593,-0.043662179261446
1772526271318514700,1.0145146484375,-1.6523501873016357,-1.0738976001739502,0.004432646557688713
1772526271328497700,1.02449755859375,-1.8103989362716675,-0.7788580656051636,0.06007062643766403
1772526271338480600,1.034480712890625,-1.9107143878936768,-0.444278746843338,0.11009997129440308
1772526271348462600,1.044462646484375,-1.9431384801864624,-0.14463771879673004,0.14416314661502838
1772526271358445600,1.054445556640625,-1.9048664569854736,0.09020567685365677,0.16323964297771454
1772526271368427500,1.064427490234375,-1.8245084285736084,0.2538098096847534,0.15626798570156097
1772526271378410500,1.074410400390625,-1.7359716892242432,0.3628910183906555,0.128899484872818
1772526271388393700,1.084393798828125,-1.640777826309204,0.4149790108203888,0.09507626295089722
1772526271398375400,1.09437548828125,-1.5553570985794067,0.4234127104282379,0.08004165440797806
1772526271408358700,1.104358642578125,-1.4745266437530518,0.3856312036514282,0.08561154454946518
1772526271418340600,1.114340576171875,-1.3974332809448242,0.2872532308101654,0.12404654920101166
1772526271428323600,1.124323486328125,-1.3273712396621704,0.15283584594726562,0.18972674012184143
1772526271438306600,1.134306640625,-1.272777795791626,0.007667722180485725,0.28674596548080444
1772526271448288800,1.144288818359375,-1.2417696714401245,-0.12202334403991699,0.3972945213317871
1772526271458271500,1.154271484375,-1.2473431825637817,-0.20928367972373962,0.5173317790031433
1772526271468253700,1.164253662109375,-1.273274540901184,-0.25886404514312744,0.6277744770050049
1772526271478236700,1.174236572265625,-1.3117388486862183,-0.2868906259536743,0.7218719720840454
1772526271488219400,1.184219482421875,-1.3513753414154053,-0.32295921444892883,0.7778497934341431
1772526271498201600,1.19420166015625,-1.3764886856079102,-0.37205350399017334,0.7902166843414307
1772526271508184600,1.2041845703125,-1.3792750835418701,-0.427298903465271,0.7810953259468079
1772526271518166500,1.21416650390625,-1.3667261600494385,-0.47300779819488525,0.7404032945632935
1772526271528149500,1.2241494140625,-1.3557119369506836,-0.4941916763782501,0.6878317594528198
1772526271538132700,1.2341328125,-1.3357528448104858,-0.46618321537971497,0.6317533254623413
1772526271548114400,1.244114501953125,-1.295493483543396,-0.39147326350212097,0.5904027819633484
1772526271558097700,1.25409765625,-1.2380129098892212,-0.27957016229629517,0.5681845545768738
1772526271568079600,1.26407958984375,-1.1738238334655762,-0.1366494596004486,0.552033543586731
1772526271578062600,1.2740625,-1.092753529548645,-0.026722434908151627,0.5400139093399048
1772526271588045600,1.284045654296875,-1.000365138053894,-0.05630966275930405,0.48988935351371765
1772526271598027800,1.29402783203125,-0.931235671043396,-0.24901440739631653,0.4000857174396515
1772526271608010500,1.304010498046875,-0.8895913362503052,-0.5141810774803162,0.2761383354663849
1772526271617992700,1.31399267578125,-0.9105890393257141,-0.7602092027664185,0.1373828500509262
1772526271627975200,1.32397509765625,-1.0093395709991455,-0.9918538331985474,-0.017507698386907578
1772526271637958100,1.333958251953125,-1.1855943202972412,-1.2204591035842896,-0.2001611292362213
1772526271647940000,1.343940185546875,-1.3900995254516602,-1.3892930746078491,-0.3715358376502991
1772526271657923300,1.35392333984375,-1.5677156448364258,-1.427710771560669,-0.5072899460792542
1772526271667905000,1.363905029296875,-1.68328857421875,-1.3346863985061646,-0.5759338736534119
1772526271677888300,1.37388818359375,-1.7196505069732666,-1.1507235765457153,-0.5660431385040283
1772526271687871200,1.383871337890625,-1.6610627174377441,-0.9284382462501526,-0.4807819426059723
1772526271697853200,1.393853271484375,-1.5282641649246216,-0.7114776968955994,-0.3406416177749634
1772526271707836200,1.403836181640625,-1.3484184741973877,-0.5437502861022949,-0.17418444156646729
1772526271717818000,1.413818115234375,-1.166534423828125,-0.4470844566822052,-0.012215513736009598
1772526271727801000,1.423801025390625,-1.0271728038787842,-0.42636820673942566,0.13130953907966614
1772526271737784000,1.4337841796875,-0.936941921710968,-0.44870707392692566,0.24024002254009247
1772526271747766000,1.44376611328125,-0.8785595297813416,-0.4372563064098358,0.3361673653125763
1772526271757749000,1.4537490234375,-0.8270015716552734,-0.37886038422584534,0.4159577786922455
1772526271767731200,1.463731201171875,-0.7788264751434326,-0.3316989541053772,0.4700356721878052
1772526271777714000,1.4737138671875,-0.7387147545814514,-0.3493351936340332,0.4916416108608246
1772526271787697200,1.483697265625,-0.704353928565979,-0.40956151485443115,0.4784584641456604
1772526271797679000,1.49367919921875,-0.6873318552970886,-0.477638840675354,0.44575828313827515
1772526271807662000,1.503662109375,-0.6940359473228455,-0.5269879698753357,0.3990591764450073
1772526271817644000,1.51364404296875,-0.7141625285148621,-0.5741786360740662,0.3485773801803589
1772526271827627300,1.523627197265625,-0.7500833868980408,-0.6300473213195801,0.28184446692466736
1772526271837610000,1.53360986328125,-0.8080308437347412,-0.6977674961090088,0.19859352707862854
1772526271847592200,1.54359228515625,-0.8657148480415344,-0.7551161646842957,0.10859977453947067
1772526271857575200,1.5535751953125,-0.904608428478241,-0.7954912781715393,0.01619740203022957
1772526271867557000,1.56355712890625,-0.9379863142967224,-0.8165691494941711,-0.07232832908630371
1772526271877540000,1.5735400390625,-0.96835857629776,-0.8152540922164917,-0.1567460149526596
1772526271887523000,1.583523193359375,-0.9984273314476013,-0.7803125381469727,-0.22731593251228333
1772526271897505000,1.593505126953125,-1.0162006616592407,-0.7084457874298096,-0.2606171667575836
1772526271907488000,1.603488037109375,-1.0163202285766602,-0.6021624207496643,-0.2418115884065628
1772526271917470200,1.61347021484375,-0.9971984624862671,-0.44824421405792236,-0.18199272453784943
1772526271927453000,1.623452880859375,-0.952265739440918,-0.26726680994033813,-0.10276922583580017
1772526271937436200,1.633436279296875,-0.8875290751457214,-0.08549939841032028,-0.020123079419136047
1772526271947418000,1.643418212890625,-0.8009835481643677,0.07751940190792084,0.04214639589190483
1772526271957401000,1.653401123046875,-0.7069084644317627,0.1936872899532318,0.08568347990512848
1772526271967383000,1.663383056640625,-0.6064346432685852,0.26610538363456726,0.10443942248821259
1772526271977366300,1.6733662109375,-0.5143750309944153,0.32267627120018005,0.11710727959871292
1772526271987349000,1.683348876953125,-0.44957709312438965,0.34935861825942993,0.1068062111735344
1772526271997331200,1.693331298828125,-0.4136124551296234,0.3416346609592438,0.09563212096691132
1772526272007314200,1.703314208984375,-0.39481016993522644,0.30784735083580017,0.07003238797187805
1772526272017296100,1.713296142578125,-0.38640522956848145,0.2583487629890442,0.05383211374282837
1772526272027279000,1.723279052734375,-0.3955880105495453,0.18296346068382263,0.03464630991220474
1772526272037262000,1.733261962890625,-0.4216499626636505,0.09883446246385574,0.009851479902863503
1772526272047244000,1.743244140625,-0.4622083306312561,0.017598159611225128,-0.02256663143634796
1772526272057227000,1.75322705078125,-0.5052484273910522,-0.06977562606334686,-0.06901136040687561
1772526272067209000,1.763208984375,-0.5492033362388611,-0.17713673412799835,-0.11628871411085129
1772526272077192200,1.773192138671875,-0.5808570981025696,-0.32738375663757324,-0.16284316778182983
1772526272087175200,1.783175048828125,-0.6040128469467163,-0.49920371174812317,-0.1871766299009323
1772526272097157000,1.7931572265625,-0.6271091103553772,-0.6464141607284546,-0.1747061014175415
1772526272107140000,1.80314013671875,-0.6541593670845032,-0.7521204352378845,-0.13163769245147705
1772526272117122000,1.8131220703125,-0.6892542243003845,-0.817388117313385,-0.06346237659454346
1772526272127105000,1.82310498046875,-0.7168075442314148,-0.8348734378814697,0.030429791659116745
1772526272137088000,1.833087890625,-0.729198694229126,-0.8174779415130615,0.12992362678050995
1772526272147070200,1.8430703125,-0.7324590682983398,-0.7663130760192871,0.24226859211921692
1772526272157053000,1.853052978515625,-0.7138411998748779,-0.6727921962738037,0.34888291358947754
1772526272167035100,1.86303515625,-0.6810646653175354,-0.5479891300201416,0.4482620656490326
1772526272177018000,1.87301806640625,-0.6292240619659424,-0.4130696952342987,0.5337236523628235
1772526272187000000,1.883,-0.5576683878898621,-0.32218703627586365,0.5906727313995361
1772526272196983000,1.892983154296875,-0.4985734224319458,-0.3312439024448395,0.5971889495849609
1772526272206966300,1.90296630859375,-0.46696195006370544,-0.3875125050544739,0.560121476650238
1772526272216948000,1.912947998046875,-0.4622243642807007,-0.43550485372543335,0.48889461159706116
1772526272226931200,1.92293115234375,-0.4909875690937042,-0.4846777021884918,0.3825322389602661
1772526272236914200,1.9329140625,-0.5654056072235107,-0.5679776668548584,0.2355494350194931
1772526272246896000,1.942896240234375,-0.6775441765785217,-0.6673582196235657,0.05898502096533775
1772526272256879000,1.952879150390625,-0.8146250247955322,-0.7766996026039124,-0.13676132261753082
1772526272266861300,1.962861328125,-0.9587527513504028,-0.8733009696006775,-0.32121145725250244
1772526272276844000,1.972843994140625,-1.0867749452590942,-0.9556943774223328,-0.47372564673423767
1772526272286826200,1.982826171875,-1.1957933902740479,-1.0078823566436768,-0.5879884958267212
1772526272296809200,1.992809326171875,-1.278268814086914,-1.0391652584075928,-0.6457202434539795
1772526272306792000,2.0027919921875,-1.3377184867858887,-0.9950580596923828,-0.6235491633415222
1772526272316774100,2.012774169921875,-1.3601585626602173,-0.8230040073394775,-0.5135723352432251
1772526272326757000,2.022757080078125,-1.3410327434539795,-0.544196367263794,-0.3323655426502228
1772526272336739000,2.032739013671875,-1.282650351524353,-0.2176227867603302,-0.1066376119852066
1772526272346722000,2.04272216796875,-1.1853822469711304,0.06394844502210617,0.11151135712862015
1772526272356705300,2.052705322265625,-1.0542958974838257,0.22743244469165802,0.28400883078575134
1772526272366687000,2.06268701171875,-0.9034492373466492,0.22346413135528564,0.3967294991016388
1772526272376670200,2.072670166015625,-0.7466859817504883,0.11811427772045135,0.45977583527565
1772526272386652000,2.08265185546875,-0.5842915177345276,-0.007657685317099094,0.5016152262687683
1772526272396635100,2.09263525390625,-0.45264267921447754,-0.1333266645669937,0.5219489932060242
1772526272406618000,2.1026181640625,-0.37354403734207153,-0.29936155676841736,0.49990755319595337
1772526272416600300,2.112600341796875,-0.3566364347934723,-0.4901983439922333,0.4414895176887512
1772526272426583000,2.1225830078125,-0.39079609513282776,-0.6408064365386963,0.3607020676136017
1772526272436565200,2.132565185546875,-0.4695396423339844,-0.711883008480072,0.26525092124938965
1772526272446548200,2.14254833984375,-0.5738623142242432,-0.7240357995033264,0.1646963506937027
1772526272456531000,2.152531005859375,-0.6916014552116394,-0.697090744972229,0.05826445296406746
1772526272466513200,2.16251318359375,-0.8042039275169373,-0.6314315795898438,-0.046030785888433456
1772526272476496100,2.17249609375,-0.9024950861930847,-0.53496253490448,-0.1434532254934311
1772526272486478000,2.18247802734375,-0.9815027713775635,-0.4208082854747772,-0.227544903755188
1772526272496461000,2.1924609375,-1.0305180549621582,-0.3120221495628357,-0.28854596614837646
1772526272506444300,2.2024443359375,-1.0482851266860962,-0.23619015514850616,-0.340384304523468
1772526272516426000,2.212426025390625,-1.0334340333938599,-0.18012288212776184,-0.3712494969367981
1772526272526409200,2.2224091796875,-0.9831121563911438,-0.13449281454086304,-0.38128894567489624
1772526272536391000,2.232390869140625,-0.9150294661521912,-0.09890047460794449,-0.36477601528167725
1772526272546374100,2.2423740234375,-0.8386036157608032,-0.0700695738196373,-0.3140742778778076
1772526272556357000,2.252357177734375,-0.7713825106620789,-0.041425686329603195,-0.23337197303771973
1772526272566339000,2.262339111328125,-0.7115189433097839,-0.02658124640583992,-0.1368463784456253
1772526272576322000,2.272322021484375,-0.6638281345367432,-0.03848131373524666,-0.03381345793604851
1772526272586304300,2.28230419921875,-0.6308193802833557,-0.06848743557929993,0.0652974396944046
1772526272596287000,2.292286865234375,-0.606365442276001,-0.11006949841976166,0.1540219783782959
1772526272606270000,2.30227001953125,-0.5933361053466797,-0.15019090473651886,0.22342640161514282
1772526272616252200,2.312252197265625,-0.592644989490509,-0.17666353285312653,0.26714563369750977
1772526272626235000,2.32223486328125,-0.6052314043045044,-0.19217249751091003,0.27952152490615845
1772526272636216600,2.332216552734375,-0.617143988609314,-0.20045892894268036,0.2502504587173462
1772526272646199800,2.34219970703125,-0.6259608864784241,-0.20341478288173676,0.20158852636814117
1772526272656181800,2.352181640625,-0.6204896569252014,-0.20147787034511566,0.14559662342071533
1772526272666164700,2.362164794921875,-0.6101512312889099,-0.19172026216983795,0.09978649765253067
1772526272676147700,2.372147705078125,-0.5792593955993652,-0.1737244725227356,0.06999051570892334
1772526272686130000,2.3821298828125,-0.5474280714988708,-0.17713354527950287,0.070752814412117
1772526272696112600,2.392112548828125,-0.5198536515235901,-0.18800589442253113,0.07815906405448914
1772526272706094800,2.4020947265625,-0.493633508682251,-0.20791389048099518,0.08686976134777069
1772526272716077800,2.412077880859375,-0.4780247211456299,-0.27715450525283813,0.0936347246170044
1772526272726060500,2.422060546875,-0.48159855604171753,-0.3661978840827942,0.09749742597341537
1772526272736042800,2.432042724609375,-0.5177879333496094,-0.40963831543922424,0.0985214114189148
1772526272746025700,2.442025634765625,-0.5779843926429749,-0.42700037360191345,0.09033425152301788
1772526272756007700,2.452007568359375,-0.6580243706703186,-0.4731420576572418,0.05734647065401077
1772526272765990700,2.46199072265625,-0.7490171790122986,-0.5326690077781677,0.0019885138608515263
1772526272775974000,2.471973876953125,-0.8239960670471191,-0.556344747543335,-0.07557019591331482
1772526272785955600,2.48195556640625,-0.8637797236442566,-0.5240249037742615,-0.15284204483032227
1772526272795938800,2.491938720703125,-0.8713976740837097,-0.42106926441192627,-0.22857116162776947
1772526272805920800,2.501920654296875,-0.8440202474594116,-0.28022390604019165,-0.3044545352458954
1772526272815903700,2.51190380859375,-0.7834016680717468,-0.15977631509304047,-0.37884995341300964
1772526272825886700,2.52188671875,-0.7103032469749451,-0.10645909607410431,-0.44879263639450073
1772526272835869000,2.531868896484375,-0.6346700191497803,-0.10746364295482635,-0.4951084554195404
1772526272845851600,2.5418515625,-0.5645127892494202,-0.1281116008758545,-0.4936477243900299
1772526272855833900,2.551833740234375,-0.5165415406227112,-0.17214404046535492,-0.4442370533943176
1772526272865816800,2.56181689453125,-0.4858017861843109,-0.20621995627880096,-0.3394695222377777
1772526272875799600,2.571799560546875,-0.46612635254859924,-0.20954518020153046,-0.2107573300600052
1772526272885781800,2.58178173828125,-0.4506489932537079,-0.17661842703819275,-0.07862138003110886
1772526272895764700,2.5917646484375,-0.4316025972366333,-0.10845109075307846,0.04970889165997505
1772526272905746700,2.60174658203125,-0.3956047296524048,0.007528556045144796,0.16891396045684814
1772526272915729700,2.611729736328125,-0.3462217152118683,0.12191718071699142,0.2753903269767761
1772526272925711600,2.621711669921875,-0.2899128198623657,0.16598303616046906,0.3541836142539978
1772526272935694600,2.631694580078125,-0.2376842498779297,0.13447917997837067,0.3976096510887146
1772526272945677800,2.641677734375,-0.20324566960334778,0.07785540819168091,0.3971617817878723
1772526272955659500,2.651659423828125,-0.15872693061828613,0.01666742004454136,0.3628637194633484
1772526272965642800,2.661642822265625,-0.10720932483673096,-0.05357830971479416,0.3007318377494812
1772526272975624700,2.671624755859375,-0.05846656113862991,-0.14691704511642456,0.21696209907531738
1772526272985607700,2.681607666015625,-0.027609866112470627,-0.2583710849285126,0.1274918168783188
1772526272995590700,2.691590576171875,-0.022194061428308487,-0.37937846779823303,0.04234575480222702
1772526273005572900,2.70157275390625,-0.053625624626874924,-0.5018033385276794,-0.044393137097358704
1772526273015555600,2.7115556640625,-0.10873734951019287,-0.5995115637779236,-0.11430138349533081
1772526273025537800,2.721537841796875,-0.17519912123680115,-0.6480056643486023,-0.17568761110305786
1772526273035520800,2.731520751953125,-0.2558755874633789,-0.6604689955711365,-0.22100742161273956
1772526273045503700,2.741503662109375,-0.3364943265914917,-0.6354299187660217,-0.2437557429075241
1772526273055485700,2.751485595703125,-0.4063115119934082,-0.5725907683372498,-0.22538205981254578
1772526273065468700,2.76146875,-0.4566584825515747,-0.46104896068573,-0.15653543174266815
1772526273075450600,2.77145068359375,-0.48208022117614746,-0.3139130473136902,-0.04634714499115944
1772526273085433600,2.78143359375,-0.4742482900619507,-0.15563927590847015,0.0846903920173645
1772526273095416800,2.791416748046875,-0.4359768033027649,-0.02624986693263054,0.2022617608308792
1772526273105398500,2.8013984375,-0.37404489517211914,0.07532596588134766,0.2791399359703064
1772526273115381800,2.8113818359375,-0.2993006110191345,0.1389712542295456,0.30887570977211
1772526273125363700,2.82136376953125,-0.22557643055915833,0.17377756536006927,0.2895098328590393
1772526273135346700,2.8313466796875,-0.15789778530597687,0.17612726986408234,0.23764768242835999
1772526273145329700,2.84132958984375,-0.11018724739551544,0.18301627039909363,0.1680060625076294
1772526273155311900,2.851311767578125,-0.0908641517162323,0.1926199048757553,0.09476140141487122
1772526273165294600,2.861294677734375,-0.09845123440027237,0.19303615391254425,0.030615173280239105
1772526273175276800,2.87127685546875,-0.13233089447021484,0.15914583206176758,-0.03177203610539436
1772526273185259800,2.881259765625,-0.18568333983421326,0.1190444603562355,-0.07152131199836731
1772526273195241700,2.89124169921875,-0.24577011168003082,0.053871046751737595,-0.10319561511278152
1772526273205224700,2.901224609375,-0.313871294260025,-0.04454424977302551,-0.13680347800254822
1772526273215208000,2.9112080078125,-0.368225634098053,-0.15972037613391876,-0.16210724413394928
1772526273225189600,2.921189697265625,-0.4045368432998657,-0.2741589844226837,-0.173455148935318
1772526273235172900,2.9311728515625,-0.41844043135643005,-0.3829706907272339,-0.172127828001976
1772526273245154600,2.941154541015625,-0.4212248623371124,-0.5007461905479431,-0.15922662615776062
1772526273255137800,2.9511376953125,-0.41061481833457947,-0.5927024483680725,-0.13231804966926575
1772526273265120800,2.961120849609375,-0.39393144845962524,-0.652657687664032,-0.09579890221357346
1772526273275102700,2.971102783203125,-0.37187010049819946,-0.6752822995185852,-0.048185840249061584
1772526273285085700,2.981085693359375,-0.35151124000549316,-0.6643171310424805,0.006903303321450949
1772526273295068000,2.99106787109375,-0.3303806781768799,-0.6151101589202881,0.06316657364368439
1772526273305051000,3.00105078125,-0.3065282106399536,-0.5554311871528625,0.11545616388320923
1772526273315033600,3.01103369140625,-0.28842589259147644,-0.49207720160484314,0.17340494692325592
1772526273325015800,3.021015869140625,-0.2744655907154083,-0.40160202980041504,0.24164903163909912
1772526273334998800,3.030998779296875,-0.24915437400341034,-0.22909708321094513,0.33177947998046875
1772526273344980700,3.040980712890625,-0.21413636207580566,-0.09860736131668091,0.4123418629169464
1772526273354963700,3.050963623046875,-0.19744420051574707,-0.16981682181358337,0.4326047897338867
1772526273364947000,3.060947021484375,-0.2009422779083252,-0.3323734700679779,0.4000260531902313
1772526273374928600,3.0709287109375,-0.2224033623933792,-0.4038234353065491,0.35648655891418457
1772526273384912000,3.080911865234375,-0.24714486300945282,-0.3667740821838379,0.31609001755714417
1772526273394893600,3.0908935546875,-0.30407285690307617,-0.34902864694595337,0.2565188407897949
1772526273404876800,3.100876708984375,-0.3970423638820648,-0.3832472562789917,0.1575131118297577
1772526273414858800,3.110858642578125,-0.5121899843215942,-0.4166044294834137,0.04076680168509483
1772526273424841700,3.120841796875,-0.6208682060241699,-0.4124535322189331,-0.080766461789608
1772526273434824700,3.13082470703125,-0.7203050851821899,-0.3873066306114197,-0.19507040083408356
1772526273444807000,3.140806884765625,-0.8047695159912109,-0.3569765090942383,-0.2974919080734253
1772526273454789600,3.15078955078125,-0.8703668713569641,-0.30267438292503357,-0.37772446870803833
1772526273464771800,3.160771728515625,-0.9077458381652832,-0.23509125411510468,-0.41781890392303467
1772526273474754800,3.1707548828125,-0.9245144724845886,-0.15926866233348846,-0.42060351371765137
1772526273484737500,3.180737548828125,-0.9132034182548523,-0.06015303358435631,-0.3843388259410858
1772526273494719700,3.1907197265625,-0.8775074481964111,0.06894795596599579,-0.2967754304409027
1772526273504702700,3.20070263671875,-0.798397958278656,0.22593048214912415,-0.1695431023836136
1772526273514684700,3.2106845703125,-0.6982428431510925,0.3616715669631958,-0.02329455502331257
1772526273524667600,3.220667724609375,-0.5902147889137268,0.42924395203590393,0.12022639811038971
1772526273534651000,3.23065087890625,-0.4915659725666046,0.40755942463874817,0.23992402851581573
1772526273544632600,3.240632568359375,-0.4101138710975647,0.31097036600112915,0.32220661640167236
1772526273554615800,3.25061572265625,-0.3381006717681885,0.17787835001945496,0.3645436763763428
1772526273564597800,3.26059765625,-0.2759927809238434,0.03899931535124779,0.39287081360816956
1772526273574580700,3.270580810546875,-0.22265949845314026,-0.10628118366003036,0.40539857745170593
1772526273584563700,3.280563720703125,-0.1899438053369522,-0.26614660024642944,0.4020974934101105
1772526273594546000,3.2905458984375,-0.19366104900836945,-0.4498903155326843,0.3784923255443573
1772526273604528600,3.300528564453125,-0.23483431339263916,-0.597173810005188,0.342082142829895
1772526273614510800,3.3105107421875,-0.2998844087123871,-0.6516913771629333,0.29810401797294617
1772526273624494600,3.32049462890625,-0.3904639184474945,-0.6285287141799927,0.24534766376018524
1772526273634476500,3.3304765625,-0.4788627624511719,-0.5566875338554382,0.16901880502700806
1772526273644459500,3.34045947265625,-0.5676896572113037,-0.44139841198921204,0.08053910732269287
1772526273654442500,3.3504423828125,-0.6308515667915344,-0.30815380811691284,-0.020660215988755226
1772526273664424400,3.360424560546875,-0.675772488117218,-0.1603335440158844,-0.11311235278844833
1772526273674407400,3.370407470703125,-0.7022011280059814,-0.009207931347191334,-0.19290092587471008
1772526273684389400,3.380389404296875,-0.700378954410553,0.1479506939649582,-0.24520255625247955
1772526273694372400,3.390372314453125,-0.6775550842285156,0.2861884534358978,-0.2688911259174347
1772526273704355600,3.40035546875,-0.6334580779075623,0.39805933833122253,-0.2603611350059509
1772526273714337300,3.410337158203125,-0.584831714630127,0.4696195423603058,-0.22707641124725342
1772526273724320500,3.420320556640625,-0.5380349159240723,0.5060113668441772,-0.1780974119901657
1772526273734302500,3.430302490234375,-0.4895302355289459,0.5005420446395874,-0.12625738978385925
1772526273744285400,3.440285400390625,-0.4425077736377716,0.45490673184394836,-0.0785631611943245
1772526273754267400,3.450267333984375,-0.39540550112724304,0.3706802725791931,-0.03256664052605629
1772526273764250600,3.460250732421875,-0.3477896749973297,0.26789870858192444,0.007445921190083027
1772526273774233300,3.4702333984375,-0.3149885833263397,0.12969955801963806,0.034299105405807495
1772526273784215600,3.480215576171875,-0.29906076192855835,-0.007846851833164692,0.06056506559252739
1772526273794198500,3.490198486328125,-0.2943054139614105,-0.11341828107833862,0.08495509624481201
1772526273804180500,3.500180419921875,-0.30648329854011536,-0.18186591565608978,0.10873120278120041
1772526273814163500,3.51016357421875,-0.31773728132247925,-0.21208932995796204,0.12990866601467133
1772526273824146400,3.520146484375,-0.34003907442092896,-0.2108059674501419,0.13859975337982178
1772526273834128400,3.53012841796875,-0.36017656326293945,-0.17339228093624115,0.13576428592205048
1772526273844111400,3.540111328125,-0.3754936754703522,-0.14039666950702667,0.1193172037601471
1772526273854093600,3.550093505859375,-0.39718887209892273,-0.12212816625833511,0.08624394237995148
1772526273864076300,3.560076171875,-0.418178915977478,-0.1121462807059288,0.05699586123228073
1772526273874059500,3.5700595703125,-0.4461762011051178,-0.08333700150251389,0.026337286457419395
1772526273884041500,3.58004150390625,-0.46912881731987,-0.024865539744496346,0.006564829032868147
1772526273894024400,3.5900244140625,-0.47611722350120544,0.05921418219804764,0.005594905931502581
1772526273904006400,3.60000634765625,-0.4739592671394348,0.12678493559360504,0.013878686353564262
1772526273913989600,3.60998974609375,-0.46581587195396423,0.1465197503566742,0.03253226354718208
1772526273923971300,3.619971435546875,-0.44221073389053345,0.14487186074256897,0.04546920210123062
1772526273933954600,3.62995458984375,-0.38662442564964294,0.21185435354709625,0.07028001546859741
1772526273943937500,3.6399375,-0.2976057529449463,0.3172949552536011,0.08905958384275436
1772526273953919500,3.64991943359375,-0.2053687572479248,0.2802700996398926,0.0654863491654396
1772526273963902500,3.65990234375,-0.14356768131256104,0.1548932045698166,-0.0008212639950215816
1772526273973884400,3.669884521484375,-0.09980423003435135,0.05061899498105049,-0.09018789976835251
1772526273983867400,3.679867431640625,-0.09158758819103241,-0.020986441522836685,-0.1997668594121933
1772526273993850400,3.689850341796875,-0.13862086832523346,-0.13083623349666595,-0.33072248101234436
1772526274003832300,3.699832275390625,-0.23301315307617188,-0.2517712414264679,-0.46759510040283203
1772526274013815300,3.709815185546875,-0.3650529384613037,-0.295137882232666,-0.5799040198326111
1772526274023797500,3.719797607421875,-0.5096489787101746,-0.1922096163034439,-0.6415133476257324
1772526274033780200,3.7297802734375,-0.6437088251113892,0.029752064496278763,-0.6515691876411438
1772526274043763500,3.739763427734375,-0.748325765132904,0.28453055024147034,-0.6305656433105469
1772526274053745400,3.749745361328125,-0.8146411180496216,0.5131165981292725,-0.6010900139808655
1772526274063728400,3.759728271484375,-0.8282054662704468,0.6719017624855042,-0.5717073082923889
1772526274073710300,3.76971044921875,-0.7978332042694092,0.7578505277633667,-0.5477942228317261
1772526274083693600,3.779693603515625,-0.7262564301490784,0.7703459858894348,-0.5212439298629761
1772526274093675300,3.78967529296875,-0.6246823668479919,0.6897856593132019,-0.49394866824150085
1772526274103658500,3.799658447265625,-0.507197916507721,0.5428863167762756,-0.45390239357948303
1772526274113641500,3.809641357421875,-0.38518038392066956,0.39033591747283936,-0.3794627785682678
1772526274123623400,3.81962353515625,-0.281119167804718,0.2890278398990631,-0.26407310366630554
1772526274133606400,3.8296064453125,-0.1953936070203781,0.2463115155696869,-0.11882166564464569
1772526274143588600,3.839588623046875,-0.11571750044822693,0.26353347301483154,0.05216215178370476
1772526274153571300,3.8495712890625,-0.050048477947711945,0.28398841619491577,0.21478621661663055
1772526274163554300,3.85955419921875,-0.0013062511570751667,0.24267591536045074,0.3419486880302429
1772526274173536500,3.86953662109375,0.031219203025102615,0.13552096486091614,0.41737765073776245
1772526274183519500,3.87951953125,0.05096957087516785,0.01902218721807003,0.453968346118927
1772526274193501400,3.88950146484375,0.05774092674255371,-0.06025346368551254,0.4669312834739685
1772526274203484400,3.899484375,0.05112926661968231,-0.13973058760166168,0.4526293873786926
1772526274213466400,3.90946630859375,0.026108067482709885,-0.2497553527355194,0.4160380959510803
1772526274223449300,3.919449462890625,-0.013412963598966599,-0.378698468208313,0.3533441126346588
1772526274233432600,3.9294326171875,-0.05146927013993263,-0.4917925298213959,0.2714442014694214
1772526274243414500,3.93941455078125,-0.07939925789833069,-0.5453416705131531,0.19105622172355652
1772526274253397500,3.9493974609375,-0.10698108375072479,-0.5386736989021301,0.13241101801395416
1772526274263379500,3.95937939453125,-0.13521043956279755,-0.4795960783958435,0.09093631058931351
1772526274273362400,3.969362548828125,-0.17230907082557678,-0.3915383815765381,0.08128847926855087
1772526274283345400,3.979345458984375,-0.1989678293466568,-0.26245903968811035,0.1011061742901802
1772526274293327400,3.989327392578125,-0.22301989793777466,-0.12093120813369751,0.1423787772655487
1772526274303310300,3.999310302734375,-0.22446271777153015,0.02087193727493286,0.1965779960155487
1772526274313292500,4.00929248046875,-0.2083875983953476,0.13563421368598938,0.24840976297855377
1772526274323275300,4.019275146484375,-0.17346541583538055,0.2043103128671646,0.28686830401420593
1772526274333257500,4.029257568359375,-0.11719254404306412,0.22038036584854126,0.3150472044944763
1772526274343240400,4.039240478515625,-0.05183664709329605,0.19294582307338715,0.34051913022994995
1772526274353223400,4.049223388671875,0.008913252502679825,0.12630608677864075,0.35570794343948364
1772526274363205400,4.059205322265625,0.05775706470012665,0.03705170005559921,0.36089465022087097
1772526274373188600,4.069188720703125,0.08975280821323395,-0.05286087840795517,0.3690692186355591
1772526274383170300,4.07917041015625,0.11115352809429169,-0.12757328152656555,0.3811798393726349
1772526274393153500,4.089153564453125,0.12494790554046631,-0.181149423122406,0.3995519280433655
1772526274403136500,4.099136474609375,0.13524362444877625,-0.2221509963274002,0.42213010787963867
1772526274413118500,4.109118408203125,0.13332508504390717,-0.28090882301330566,0.4343215227127075
1772526274423101400,4.119101318359375,0.13038209080696106,-0.3636447489261627,0.4309850037097931
1772526274433083600,4.129083740234375,0.14395809173583984,-0.45130935311317444,0.4204617738723755
1772526274443066400,4.13906640625,0.1668512523174286,-0.5414990186691284,0.38817593455314636
1772526274453048600,4.149048583984375,0.18397751450538635,-0.6374923586845398,0.3368437588214874
1772526274463031600,4.159031494140625,0.19124606251716614,-0.7285867929458618,0.2693001329898834
1772526274473014300,4.16901416015625,0.1638285517692566,-0.8179342746734619,0.17988234758377075
1772526274482996500,4.17899658203125,0.09436791390180588,-0.9160416126251221,0.07207557559013367
1772526274492979500,4.1889794921875,-0.014012357220053673,-1.0348663330078125,-0.06306307017803192
1772526274502961400,4.19896142578125,-0.1617370992898941,-1.164920449256897,-0.21254387497901917
1772526274512944400,4.2089443359375,-0.343857079744339,-1.2994636297225952,-0.389445960521698
1772526274522927600,4.218927734375,-0.5447473526000977,-1.4122865200042725,-0.5705454349517822
1772526274532909300,4.228909423828125,-0.7406846284866333,-1.4873239994049072,-0.7548502683639526
1772526274542892500,4.238892578125,-0.9342027902603149,-1.4846348762512207,-0.9222996830940247
1772526274552874200,4.248874267578125,-1.125392198562622,-1.4136605262756348,-1.0496174097061157
1772526274562857500,4.258857421875,-1.286717414855957,-1.2763054370880127,-1.1238330602645874
1772526274572840400,4.26884033203125,-1.4173340797424316,-1.0777758359909058,-1.1121572256088257
1772526274582822400,4.278822509765625,-1.4871411323547363,-0.7999312877655029,-1.0199153423309326
1772526274592805400,4.288805419921875,-1.4863851070404053,-0.47642672061920166,-0.85752272605896
1772526274602787600,4.29878759765625,-1.4327139854431152,-0.23170872032642365,-0.6749258637428284
1772526274612770600,4.3087705078125,-1.3606659173965454,-0.17657116055488586,-0.528224527835846
1772526274622752500,4.31875244140625,-1.290626049041748,-0.23911966383457184,-0.4201420843601227
1772526274632735200,4.3287353515625,-1.234541416168213,-0.30690377950668335,-0.34074872732162476
1772526274642718200,4.33871826171875,-1.2071768045425415,-0.39705905318260193,-0.30310702323913574
1772526274652700200,4.3487001953125,-1.2175617218017578,-0.5208587646484375,-0.3180595934391022
1772526274662683100,4.35868310546875,-1.2744245529174805,-0.6197261810302734,-0.38552069664001465
1772526274672665000,4.3686650390625,-1.3482894897460938,-0.658985435962677,-0.5065062642097473
1772526274682648000,4.37864794921875,-1.4289113283157349,-0.6500099897384644,-0.6607719659805298
1772526274692630300,4.38863037109375,-1.5104870796203613,-0.619167149066925,-0.8462478518486023
1772526274702613000,4.398613037109375,-1.5788376331329346,-0.5826345086097717,-1.0348446369171143
1772526274712596200,4.40859619140625,-1.6227532625198364,-0.512006938457489,-1.1905772686004639
1772526274722578200,4.418578125,-1.6466374397277832,-0.40031930804252625,-1.2915971279144287
1772526274732561400,4.4285615234375,-1.6519302129745483,-0.25384998321533203,-1.3351762294769287
1772526274742543000,4.438543212890625,-1.661198377609253,-0.07839371263980865,-1.3427493572235107
1772526274752526300,4.4485263671875,-1.6733518838882446,0.06489686667919159,-1.3177473545074463
1772526274762509300,4.45850927734375,-1.689675211906433,0.1965062916278839,-1.2738786935806274
1772526274772491300,4.4684912109375,-1.704691767692566,0.32002827525138855,-1.200945258140564
1772526274782474200,4.47847412109375,-1.6972429752349854,0.44643333554267883,-1.1007134914398193
1772526274792456200,4.488456298828125,-1.6562867164611816,0.5919178128242493,-0.974385678768158
1772526274802439200,4.498439208984375,-1.5787687301635742,0.7294265627861023,-0.8258568644523621
1772526274812421400,4.50842138671875,-1.4792908430099487,0.8280066847801208,-0.6756224036216736
1772526274822404000,4.518404052734375,-1.3692727088928223,0.8576998710632324,-0.5417444705963135
1772526274832387300,4.52838720703125,-1.2587001323699951,0.7980000376701355,-0.4359320402145386
1772526274842369300,4.538369384765625,-1.1357648372650146,0.6524918675422668,-0.34871751070022583
1772526274852352300,4.548352294921875,-1.0209442377090454,0.432874858379364,-0.27260488271713257
1772526274862334200,4.558334228515625,-0.9179327487945557,0.1755906045436859,-0.18301096558570862
1772526274872317400,4.5683173828125,-0.8497185707092285,-0.06112099811434746,-0.08292138576507568
1772526274882300200,4.578300048828125,-0.8226979970932007,-0.2752591371536255,0.019687160849571228
1772526274892282400,4.588282470703125,-0.8369795083999634,-0.45831629633903503,0.1033724695444107
1772526274902265300,4.598265380859375,-0.8972203731536865,-0.5978356003761292,0.1598956435918808
1772526274912247300,4.608247314453125,-0.9847406148910522,-0.6708104610443115,0.17429350316524506
1772526274922230300,4.618230224609375,-1.097050666809082,-0.6978310346603394,0.1398981809616089
1772526274932212200,4.628212158203125,-1.224810242652893,-0.6736407279968262,0.05905153974890709
1772526274942195200,4.6381953125,-1.3405903577804565,-0.5690687894821167,-0.03827409818768501
1772526274952178200,4.64817822265625,-1.4295839071273804,-0.3920026421546936,-0.1354650855064392
1772526274962160400,4.658160400390625,-1.4708274602890015,-0.1838962286710739,-0.21604518592357635
1772526274972143000,4.66814306640625,-1.4610379934310913,0.02100951597094536,-0.258968710899353
1772526274982125300,4.678125244140625,-1.3935506343841553,0.21349377930164337,-0.2524041533470154
1772526274992108300,4.6881083984375,-1.286412239074707,0.3693622052669525,-0.19708363711833954
1772526275002091300,4.69809130859375,-1.16705322265625,0.47843167185783386,-0.10663015395402908
1772526275012073200,4.7080732421875,-1.0400819778442383,0.5311302542686462,0.011721529066562653
1772526275022056400,4.718056396484375,-0.9112952351570129,0.5264670252799988,0.1511746644973755
1772526275032038100,4.7280380859375,-0.7882651686668396,0.4635663330554962,0.29394590854644775
1772526275042021400,4.738021484375,-0.669276773929596,0.37397825717926025,0.44012385606765747
1772526275052003000,4.748003173828125,-0.5787050724029541,0.2641358971595764,0.5726446509361267
1772526275061986300,4.757986328125,-0.5118692517280579,0.13716831803321838,0.6817679405212402
1772526275071969300,4.76796923828125,-0.481894850730896,0.024393822997808456,0.7689552903175354
1772526275081951200,4.777951171875,-0.4819447994232178,-0.06367193907499313,0.8288258910179138
1772526275091934200,4.787934326171875,-0.5179116129875183,-0.1304650902748108,0.8490832448005676
1772526275101916400,4.79791650390625,-0.5747640132904053,-0.19213348627090454,0.8426163792610168
1772526275111899100,4.807899169921875,-0.6442964673042297,-0.22912879288196564,0.8173887729644775
1772526275121881300,4.81788134765625,-0.7239670753479004,-0.2333189845085144,0.7750340104103088
1772526275131864300,4.8278642578125,-0.80088871717453,-0.21040913462638855,0.7231026291847229
1772526275141847000,4.837846923828125,-0.8668431043624878,-0.17422835528850555,0.6610023975372314
1772526275151829200,4.847829345703125,-0.9192173480987549,-0.12382137775421143,0.592963695526123
1772526275161812200,4.857812255859375,-0.9437968730926514,-0.05375057831406593,0.5185748934745789
1772526275171794200,4.867794189453125,-0.940312922000885,0.050335343927145004,0.43939781188964844
1772526275181777200,4.877777099609375,-0.9146484136581421,0.1723577231168747,0.3559003472328186
1772526275191760400,4.887760498046875,-0.8712037205696106,0.2778013050556183,0.24224916100502014
1772526275201742000,4.8977421875,-0.8239516019821167,0.34808996319770813,0.10469484329223633
1772526275211725300,4.907725341796875,-0.7551589608192444,0.284470796585083,-0.0503072589635849
1772526275221707300,4.917707275390625,-0.6912438273429871,0.01752547174692154,-0.2375001162290573
1772526275231690200,4.927690185546875,-0.6538338661193848,-0.34203243255615234,-0.4418388605117798
1772526275241672200,4.937672119140625,-0.6154292821884155,-0.594120979309082,-0.6251274347305298
1772526275251655400,4.947655517578125,-0.5793170928955078,-0.6929492950439453,-0.7509127855300903
1772526275261638100,4.95763818359375,-0.5653925538063049,-0.7036290764808655,-0.815081000328064
1772526275271620400,4.967620361328125,-0.5535247325897217,-0.6238556504249573,-0.789297878742218
1772526275281603300,4.977603271484375,-0.5392270684242249,-0.38842537999153137,-0.6560839414596558
1772526275291585300,4.987585205078125,-0.5202847719192505,-0.021139277145266533,-0.4426441192626953
1772526275301568300,4.997568359375,-0.4795307219028473,0.35023871064186096,-0.20178751647472382
1772526275311550200,5.00755029296875,-0.4080086052417755,0.613584578037262,0.0016913185827434063
1772526275321533200,5.017533203125,-0.2857654094696045,0.7188986539840698,0.13261382281780243
1772526275331516200,5.02751611328125,-0.12972120940685272,0.7015705704689026,0.19538958370685577
1772526275341498000,5.037498046875,0.03881894797086716,0.6257119178771973,0.2024637907743454
1772526275351481000,5.047481201171875,0.1844150274991989,0.48453670740127563,0.16769568622112274
1772526275361463300,5.05746337890625,0.27974042296409607,0.29494041204452515,0.12930767238140106
1772526275371446000,5.067446044921875,0.3162616789340973,0.09496206045150757,0.1049908697605133
1772526275381429200,5.07742919921875,0.28934699296951294,-0.07724524289369583,0.09372575581073761
1772526275391411200,5.0874111328125,0.22359566390514374,-0.21283209323883057,0.10531929135322571
1772526275401394200,5.097394287109375,0.13454516232013702,-0.3156314492225647,0.15009848773479462
1772526275411376000,5.107376220703125,0.01586352102458477,-0.3612045347690582,0.23353132605552673
1772526275421359400,5.117359375,-0.13633693754673004,-0.31574490666389465,0.3476078510284424
1772526275431341000,5.127341064453125,-0.31975552439689636,-0.1866357922554016,0.48584234714508057
1772526275441324300,5.13732421875,-0.5100263357162476,-0.009987175464630127,0.6255314946174622
1772526275451307300,5.147307373046875,-0.6678004860877991,0.1865309476852417,0.7401973605155945
1772526275461289200,5.157289306640625,-0.7801451683044434,0.3488600254058838,0.8072392344474792
1772526275471272200,5.167272216796875,-0.8418396711349487,0.43170058727264404,0.7978081703186035
1772526275481254400,5.17725439453125,-0.8623089790344238,0.4471075236797333,0.724646806716919
1772526275491237000,5.187237060546875,-0.8365471363067627,0.38708174228668213,0.60733562707901
1772526275501219300,5.19721923828125,-0.7704250812530518,0.24935203790664673,0.48071953654289246
1772526275511202300,5.207202392578125,-0.6655322313308716,0.060185592621564865,0.3860396444797516
1772526275521185300,5.217185302734375,-0.5502308011054993,-0.1584092378616333,0.3475649058818817
1772526275531167200,5.227167236328125,-0.4417208433151245,-0.373088538646698,0.37752091884613037
1772526275541150200,5.237150146484375,-0.3571520447731018,-0.571715235710144,0.4516337215900421
1772526275551132200,5.247132080078125,-0.27525025606155396,-0.7428563833236694,0.5546583533287048
1772526275561115400,5.257115478515625,-0.1923210471868515,-0.8641627430915833,0.6687923669815063
1772526275571098400,5.267098388671875,-0.11180941760540009,-0.9209114909172058,0.7742980122566223
1772526275581080300,5.277080322265625,-0.05910105258226395,-0.9141796231269836,0.8633216619491577
1772526275591063300,5.287063232421875,-0.03126223385334015,-0.871570885181427,0.921814501285553
1772526275601045200,5.297045166015625,-0.029671331867575645,-0.7972217798233032,0.9494218230247498
1772526275611028200,5.3070283203125,-0.051925238221883774,-0.6842536926269531,0.9612638354301453
1772526275621010200,5.31701025390625,-0.08226839452981949,-0.5585651993751526,0.9552700519561768
1772526275630993000,5.326992919921875,-0.1123378798365593,-0.44341516494750977,0.9253560900688171
1772526275640976000,5.336975830078125,-0.1335967779159546,-0.3320891261100769,0.8725598454475403
1772526275650958000,5.3469580078125,-0.14045707881450653,-0.23999062180519104,0.8095731735229492
1772526275660940800,5.35694091796875,-0.14361180365085602,-0.17336492240428925,0.7324339747428894
1772526275670923000,5.366923095703125,-0.13582631945610046,-0.14272311329841614,0.657903790473938
1772526275680906000,5.376906005859375,-0.13717274367809296,-0.14870518445968628,0.5775766372680664
1772526275690888000,5.386887939453125,-0.17270250618457794,-0.18445518612861633,0.4806876480579376
1772526275700871000,5.396870849609375,-0.2784462571144104,-0.157772958278656,0.3787386417388916
1772526275710854100,5.406854248046875,-0.47320348024368286,-0.0045394571498036385,0.26160457730293274
1772526275720835800,5.4168359375,-0.7464048862457275,0.21915197372436523,0.12447533756494522
1772526275730819000,5.426819091796875,-1.0766361951828003,0.42995738983154297,-0.04428226128220558
1772526275740801000,5.436801025390625,-1.3950825929641724,0.5429375767707825,-0.22010473906993866
1772526275750784000,5.446783935546875,-1.6655577421188354,0.5489968061447144,-0.37186893820762634
1772526275760767000,5.45676708984375,-1.8841732740402222,0.5003076195716858,-0.48562365770339966
1772526275770749200,5.466749267578125,-2.0369980335235596,0.41666123270988464,-0.559563934803009
1772526275780732000,5.47673193359375,-2.111243963241577,0.3030596077442169,-0.5977005362510681
1772526275790714000,5.486714111328125,-2.1038005352020264,0.12666566669940948,-0.611900269985199
1772526275800697000,5.496697021484375,-2.0236165523529053,-0.10872051119804382,-0.5946506857872009
1772526275810679000,5.506678955078125,-1.886711597442627,-0.3582131564617157,-0.536813497543335
1772526275820662000,5.516662109375,-1.7104190587997437,-0.5470755100250244,-0.4352740943431854
1772526275830645000,5.52664501953125,-1.52204430103302,-0.6716963052749634,-0.3086029589176178
1772526275840627000,5.536626953125,-1.3568229675292969,-0.7665006518363953,-0.1850169152021408
1772526275850610000,5.54660986328125,-1.2252238988876343,-0.8427959680557251,-0.07855997234582901
1772526275860591900,5.556591796875,-1.1158950328826904,-0.9001048803329468,0.010816697031259537
1772526275870574800,5.566574951171875,-1.0242666006088257,-0.9608563780784607,0.07896752655506134
1772526275880557000,5.57655712890625,-0.9389696717262268,-1.0217735767364502,0.12142939120531082
1772526275890539800,5.586539794921875,-0.8673050999641418,-1.0539385080337524,0.13433799147605896
1772526275900523000,5.59652294921875,-0.7931348085403442,-1.0187703371047974,0.117484450340271
1772526275910505000,5.6065048828125,-0.7205657958984375,-0.9293869733810425,0.0902179479598999
1772526275920488000,5.616488037109375,-0.6488967537879944,-0.7953842282295227,0.05786685645580292
1772526275930470000,5.626469970703125,-0.5742377042770386,-0.5583956241607666,0.04121597483754158
1772526275940453000,5.636453125,-0.5137341618537903,-0.3783611059188843,0.013248741626739502
1772526275950434800,5.646434814453125,-0.4846732020378113,-0.4044475555419922,-0.07000353932380676
1772526275960418000,5.65641796875,-0.47126489877700806,-0.48044687509536743,-0.1845986247062683
1772526275970401000,5.666401123046875,-0.44850313663482666,-0.43465596437454224,-0.2730352580547333
1772526275980383000,5.676383056640625,-0.43856990337371826,-0.37480926513671875,-0.36284151673316956
1772526275990366000,5.686365966796875,-0.4620717763900757,-0.37959444522857666,-0.47371557354927063
1772526276000348200,5.69634814453125,-0.5039469599723816,-0.4056461453437805,-0.6020946502685547
1772526276010331000,5.706330810546875,-0.5426458716392517,-0.45353642106056213,-0.7443003058433533
1772526276020313900,5.71631396484375,-0.5705634355545044,-0.5557929277420044,-0.9248506426811218
1772526276030296000,5.726296142578125,-0.58545982837677,-0.614479660987854,-1.1170201301574707
1772526276040278800,5.73627880859375,-0.586542546749115,-0.5677804350852966,-1.2802302837371826
1772526276050261000,5.746260986328125,-0.5929330587387085,-0.4090363085269928,-1.3988125324249268
1772526276060244000,5.756243896484375,-0.5975714921951294,-0.18735161423683167,-1.4448689222335815
1772526276070226000,5.766225830078125,-0.5718693137168884,0.08781763911247253,-1.388360857963562
1772526276080209000,5.776208984375,-0.5076112151145935,0.40150609612464905,-1.2157031297683716
1772526276090192100,5.786192138671875,-0.40825745463371277,0.6949251294136047,-0.9585680961608887
1772526276100173800,5.796173828125,-0.3005940914154053,0.8772153258323669,-0.6608410477638245
1772526276110157000,5.806156982421875,-0.2073725461959839,0.9014639258384705,-0.3736758828163147
1772526276120139000,5.816138916015625,-0.11925378441810608,0.7348765134811401,-0.11507878452539444
1772526276130122000,5.8261220703125,-0.035459816455841064,0.4384099841117859,0.12980207800865173
1772526276140104000,5.83610400390625,0.04106088727712631,0.11890296638011932,0.3786272704601288
1772526276150087000,5.8460869140625,0.08122082054615021,-0.16501744091510773,0.630066990852356
1772526276160070000,5.85606982421875,0.07343382388353348,-0.40495288372039795,0.8566973209381104
1772526276170052000,5.866052001953125,0.01705816760659218,-0.6076610088348389,1.0403255224227905
1772526276180034800,5.876034912109375,-0.0660502091050148,-0.7659735083580017,1.167051076889038
1772526276190017000,5.88601708984375,-0.17816023528575897,-0.8620244264602661,1.2384430170059204
1772526276200000000,5.896,-0.31148508191108704,-0.8948173522949219,1.2405205965042114
1772526276209982000,5.90598193359375,-0.4379175901412964,-0.8743664026260376,1.1861891746520996
1772526276219965000,5.91596484375,-0.5394247770309448,-0.8034645318984985,1.0750336647033691
1772526276229948200,5.9259482421875,-0.5954284071922302,-0.7084759473800659,0.9288489818572998
1772526276239929900,5.935929931640625,-0.6093365550041199,-0.5990855097770691,0.7512502074241638
1772526276249913000,5.9459130859375,-0.5883276462554932,-0.4831687808036804,0.5587119460105896
1772526276259895000,5.95589501953125,-0.540732741355896,-0.3602127432823181,0.3612173795700073
1772526276269878000,5.9658779296875,-0.4845491051673889,-0.2384679615497589,0.17882412672042847
1772526276279860000,5.97585986328125,-0.4262564182281494,-0.1214250698685646,0.024376969784498215
1772526276289843200,5.98584326171875,-0.37456420063972473,0.00948341190814972,-0.08472874015569687
1772526276299826000,5.995825927734375,-0.3322780430316925,0.1422971785068512,-0.15856903791427612
1772526276309808000,6.00580810546875,-0.3096126914024353,0.27273935079574585,-0.19057384133338928
1772526276319791000,6.015791015625,-0.30050140619277954,0.3902565836906433,-0.19695168733596802
1772526276329773000,6.02577294921875,-0.2970885932445526,0.5069195628166199,-0.1691831797361374
1772526276339756000,6.035756103515625,-0.3003077208995819,0.5720383524894714,-0.12380782514810562
1772526276349738000,6.045738037109375,-0.3033786118030548,0.572446882724762,-0.06749821454286575
1772526276359721000,6.055720947265625,-0.29299867153167725,0.5428359508514404,-0.008134733885526657
1772526276369704000,6.065703857421875,-0.27805063128471375,0.5081993937492371,0.05158399045467377
1772526276379686000,6.075685791015625,-0.27367183566093445,0.4471280872821808,0.09035082161426544
1772526276389668900,6.0856689453125,-0.2747001051902771,0.37466052174568176,0.09586569666862488
1772526276399651000,6.095651123046875,-0.2823747992515564,0.3238367736339569,0.08701547235250473
1772526276409633800,6.1056337890625,-0.2917126417160034,0.30920323729515076,0.06139879673719406
1772526276419617000,6.115616943359375,-0.29946690797805786,0.3319694697856903,0.03359954431653023
1772526276429599000,6.125598876953125,-0.3083072602748871,0.3708670735359192,-0.004720148164778948
1772526276439582000,6.13558203125,-0.3068019151687622,0.4233083128929138,-0.0505971685051918
1772526276449564000,6.14556396484375,-0.29042109847068787,0.49181362986564636,-0.09440483152866364
1772526276459547100,6.155547119140625,-0.24749326705932617,0.5626691579818726,-0.1337774097919464
1772526276469528800,6.16552880859375,-0.1803070455789566,0.6320993900299072,-0.15477538108825684
1772526276479512000,6.175511962890625,-0.10210087895393372,0.6590333580970764,-0.15547436475753784
1772526276489495000,6.1854951171875,-0.034583620727062225,0.5530416965484619,-0.14333407580852509
1772526276499477000,6.19547705078125,0.014432374387979507,0.30413180589675903,-0.12977463006973267
1772526276509460000,6.2054599609375,0.04093588888645172,0.05002521723508835,-0.0862995982170105
1772526276519442200,6.215442138671875,0.05094660446047783,-0.08745259791612625,0.00957479141652584
1772526276529425000,6.2254248046875,0.02970390021800995,-0.1315569281578064,0.1406092345714569
1772526276539407000,6.235406982421875,-0.019661415368318558,-0.1533215045928955,0.2717522978782654
1772526276549390000,6.24539013671875,-0.09042266756296158,-0.1851406991481781,0.37860310077667236
1772526276559372800,6.255372802734375,-0.14428482949733734,-0.2014443427324295,0.44797953963279724
1772526276569355000,6.26535498046875,-0.16645698249340057,-0.19377124309539795,0.47029948234558105
1772526276579338000,6.275337890625,-0.16607721149921417,-0.1764545440673828,0.46205833554267883
1772526276589320000,6.28531982421875,-0.1485312432050705,-0.16289852559566498,0.4235764443874359
1772526276599303000,6.295302978515625,-0.14440849423408508,-0.1750458925962448,0.35903269052505493
1772526276609284900,6.305284912109375,-0.14489531517028809,-0.1968183070421219,0.27607229351997375
1772526276619267800,6.315267822265625,-0.15773485600948334,-0.21411246061325073,0.19748181104660034
1772526276629251800,6.325251953125,-0.1629866063594818,-0.2271909862756729,0.13329216837882996
1772526276639233500,6.335233642578125,-0.16801340878009796,-0.23417319357395172,0.09377362579107285
1772526276649216800,6.345216796875,-0.17842982709407806,-0.22031515836715698,0.08250472694635391
1772526276659198700,6.35519873046875,-0.1893053650856018,-0.1648665815591812,0.10483960062265396
1772526276669181700,6.365181640625,-0.1894339919090271,-0.0671251118183136,0.14931173622608185
1772526276679163600,6.37516357421875,-0.17515182495117188,0.0016306308098137379,0.2071591168642044
1772526276689147000,6.38514697265625,-0.15509715676307678,-0.0015609015244990587,0.25751498341560364
1772526276699129600,6.395129638671875,-0.12294571101665497,-0.08147349953651428,0.28274425864219666
1772526276709111800,6.40511181640625,-0.08046349883079529,-0.20337677001953125,0.2864159643650055
1772526276719094800,6.4150947265625,-0.028892287984490395,-0.3183947801589966,0.27447041869163513
1772526276729076700,6.42507666015625,0.02565271221101284,-0.44767314195632935,0.2410450577735901
1772526276739059700,6.435059814453125,0.07014019787311554,-0.577950656414032,0.192026749253273
1772526276749042000,6.4450419921875,0.12037353962659836,-0.6746782660484314,0.13558611273765564
1772526276759024600,6.455024658203125,0.18568356335163116,-0.7008142471313477,0.07399198412895203
1772526276769007600,6.465007568359375,0.2568584382534027,-0.6635475754737854,0.005791357718408108
1772526276778989800,6.47498974609375,0.3033711612224579,-0.5582961440086365,-0.05891313776373863
1772526276788972500,6.48497265625,0.32828769087791443,-0.3949498236179352,-0.10896910727024078
1772526276798954800,6.494954833984375,0.3212798237800598,-0.22859802842140198,-0.15048223733901978
1772526276808937700,6.504937744140625,0.2823563814163208,-0.1531408280134201,-0.19549471139907837
1772526276818919700,6.514919677734375,0.22710174322128296,-0.1460057497024536,-0.23181873559951782
1772526276828902700,6.524902587890625,0.1768745332956314,-0.15452200174331665,-0.2572186291217804
1772526276838886000,6.534885986328125,0.1402399241924286,-0.15647508203983307,-0.2553936243057251
1772526276848867600,6.54486767578125,0.12782587110996246,-0.14052355289459229,-0.21125945448875427
1772526276858850800,6.554850830078125,0.12753869593143463,-0.09827481210231781,-0.13451769948005676
1772526276868832500,6.56483251953125,0.13459740579128265,-0.017238544300198555,-0.03894111514091492
1772526276878815700,6.574815673828125,0.1504053920507431,0.06259611994028091,0.05176693946123123
1772526276888797700,6.584797607421875,0.18096570670604706,0.12193374335765839,0.13504904508590698
1772526276898780700,6.59478076171875,0.20539246499538422,0.16339391469955444,0.1950678676366806
1772526276908763600,6.604763671875,0.20616105198860168,0.1696198433637619,0.21196936070919037
1772526276918745900,6.614745849609375,0.17475181818008423,0.14817757904529572,0.17909573018550873
1772526276928728600,6.624728515625,0.12807166576385498,0.08760611712932587,0.10927058011293411
1772526276938710800,6.634710693359375,0.06386270374059677,0.008458361029624939,0.021976396441459656
1772526276948693800,6.64469384765625,-0.01558232307434082,-0.07383491098880768,-0.07608838379383087
1772526276958675700,6.65467578125,-0.10988050699234009,-0.1587517410516739,-0.17920127511024475
1772526276968658700,6.66465869140625,-0.2172224223613739,-0.23468032479286194,-0.2784764766693115
1772526276978641700,6.6746416015625,-0.3369622528553009,-0.30482327938079834,-0.3659175932407379
1772526276988623600,6.68462353515625,-0.4720548093318939,-0.34069791436195374,-0.4348790943622589
1772526276998606600,6.694606689453125,-0.6002779603004456,-0.3475237190723419,-0.4742710590362549
1772526277008588800,6.7045888671875,-0.7265530824661255,-0.31191620230674744,-0.49097999930381775
1772526277018571500,6.714571533203125,-0.8471269011497498,-0.25067785382270813,-0.4636169373989105
1772526277028553700,6.7245537109375,-0.9643190503120422,-0.2129078507423401,-0.3943323791027069
1772526277038536700,6.73453662109375,-1.0710868835449219,-0.20232348144054413,-0.28341782093048096
1772526277048519700,6.744519775390625,-1.1547048091888428,-0.18206827342510223,-0.11892928183078766
1772526277058501600,6.754501708984375,-1.208277940750122,-0.14422805607318878,0.08607333153486252
1772526277068484900,6.76448486328125,-1.2439805269241333,-0.12006174772977829,0.2943727374076843
1772526277078466600,6.774466552734375,-1.3044676780700684,-0.1918027400970459,0.4335213899612427
1772526277088449800,6.78444970703125,-1.3873354196548462,-0.33577242493629456,0.4908914864063263
1772526277098431500,6.794431396484375,-1.481345772743225,-0.4318394958972931,0.48129892349243164
1772526277108414700,6.804414794921875,-1.575128436088562,-0.39549002051353455,0.42966315150260925
1772526277118397700,6.814397705078125,-1.6731739044189453,-0.29387953877449036,0.33763790130615234
1772526277128379600,6.824379638671875,-1.7730976343154907,-0.1824590116739273,0.21869684755802155
1772526277138362600,6.834362548828125,-1.870874285697937,-0.07591159641742706,0.0765133872628212
1772526277148344800,6.8443447265625,-1.95425546169281,0.000677458243444562,-0.07567934691905975
1772526277158327600,6.85432763671875,-1.989943265914917,0.0440763384103775,-0.20611073076725006
1772526277168309800,6.864309814453125,-1.9682902097702026,0.078950434923172,-0.2967652678489685
1772526277178292700,6.874292724609375,-1.8957033157348633,0.11764334887266159,-0.32634609937667847
1772526277188275500,6.884275390625,-1.797251582145691,0.16660502552986145,-0.29826492071151733
1772526277198257700,6.894257568359375,-1.6771526336669922,0.22760741412639618,-0.22447583079338074
1772526277208240600,6.90424072265625,-1.544617772102356,0.2776111960411072,-0.13452382385730743
1772526277218222600,6.91422265625,-1.4311853647232056,0.2279088795185089,-0.08503922820091248
1772526277228205600,6.92420556640625,-1.3274555206298828,0.08598291128873825,-0.08233985304832458
1772526277238187800,6.934187744140625,-1.2375903129577637,-0.05586036667227745,-0.1228676363825798
1772526277248170500,6.94417041015625,-1.165834665298462,-0.1493663489818573,-0.17744193971157074
1772526277258153700,6.95415380859375,-1.105090618133545,-0.20165503025054932,-0.22386102378368378
1772526277268135700,6.9641357421875,-1.0583937168121338,-0.23702873289585114,-0.2630217373371124
1772526277278118700,6.97411865234375,-1.0272998809814453,-0.2755657732486725,-0.2849138379096985
1772526277288100600,6.9841005859375,-0.9838249087333679,-0.29024699330329895,-0.2963925898075104
1772526277298083800,6.994083740234375,-0.9218088388442993,-0.29353851079940796,-0.29280537366867065
1772526277308065500,7.0040654296875,-0.832237958908081,-0.28639647364616394,-0.2671697735786438
1772526277318048800,7.014048828125,-0.7293667197227478,-0.2704145610332489,-0.23221658170223236
1772526277328031700,7.02403173828125,-0.6133710741996765,-0.2568489611148834,-0.1795383244752884
1772526277338013700,7.034013671875,-0.49124854803085327,-0.24692881107330322,-0.11328309029340744
1772526277347996700,7.04399658203125,-0.3716265559196472,-0.2306201308965683,-0.041352707892656326
1772526277357978600,7.053978515625,-0.2567102313041687,-0.22984103858470917,0.02763109654188156
1772526277367961600,7.063961669921875,-0.16303277015686035,-0.23852960765361786,0.0872827097773552
1772526277377943800,7.07394384765625,-0.08011402189731598,-0.23900265991687775,0.13576532900333405
1772526277387926500,7.083926513671875,-0.026301391422748566,-0.23566359281539917,0.17498144507408142
1772526277397909800,7.09390966796875,0.018791325390338898,-0.2391558289527893,0.20219562947750092
1772526277407891700,7.1038916015625,0.0530206672847271,-0.2509480118751526,0.2151830643415451
1772526277417874700,7.113874755859375,0.08161631226539612,-0.25532737374305725,0.22159691154956818
1772526277427856600,7.123856689453125,0.10813606530427933,-0.25856366753578186,0.2282865047454834
1772526277437840000,7.13383984375,0.12921777367591858,-0.2592821717262268,0.23283012211322784
1772526277447821600,7.143821533203125,0.14533495903015137,-0.24644839763641357,0.23851224780082703
1772526277457804800,7.1538046875,0.1561739295721054,-0.23722738027572632,0.2372630387544632
1772526277467786800,7.163786865234375,0.16506117582321167,-0.2027128040790558,0.22722452878952026
1772526277477769700,7.173769775390625,0.17913104593753815,-0.13518781960010529,0.20173674821853638
1772526277487752700,7.183752685546875,0.18275614082813263,-0.06495946645736694,0.1405506134033203
1772526277497735000,7.19373486328125,0.17990431189537048,-0.0027437976095825434,0.044695742428302765
1772526277507717600,7.203717529296875,0.163706436753273,0.05305368825793266,-0.08265581727027893
1772526277517699800,7.213699951171875,0.1293339878320694,0.1037994846701622,-0.22751383483409882
1772526277527682800,7.223682861328125,0.09011149406433105,0.13279332220554352,-0.3819659948348999
1772526277537664800,7.233664794921875,0.06080944091081619,0.12857574224472046,-0.5381525754928589
1772526277547647700,7.243647705078125,0.05455980449914932,0.09839067608118057,-0.6897591352462769
1772526277557630700,7.253630615234375,0.05831221491098404,0.05254882946610451,-0.8308536410331726
1772526277567612700,7.26361279296875,0.05234966427087784,0.0371517613530159,-0.9486135840415955
1772526277577595600,7.273595703125,0.017421942204236984,0.1127702072262764,-1.016968011856079
1772526277587577600,7.28357763671875,-0.01708729937672615,0.26892200112342834,-1.024389386177063
1772526277597560600,7.293560546875,-0.03157437592744827,0.4755846858024597,-0.9616835713386536
1772526277607542800,7.303542724609375,0.009386105462908745,0.6980928778648376,-0.8322193026542664
1772526277617525500,7.313525390625,0.09871192276477814,0.9156755208969116,-0.6513670682907104
1772526277627508700,7.3235087890625,0.21644361317157745,1.101900577545166,-0.4299526512622833
1772526277637490700,7.33349072265625,0.3464590907096863,1.2047622203826904,-0.21147549152374268
1772526277647474000,7.343473876953125,0.4714585542678833,1.2096869945526123,-0.0023872656747698784
1772526277657455600,7.35345556640625,0.6167925596237183,1.1703245639801025,0.19655078649520874
1772526277667438800,7.36343896484375,0.7887027859687805,1.0845692157745361,0.3822258412837982
1772526277677420500,7.373420654296875,0.9844525456428528,0.9441888332366943,0.5626370906829834
1772526277687403800,7.38340380859375,1.170932412147522,0.7694324851036072,0.7252952456474304
1772526277697386800,7.39338671875,1.3239107131958008,0.6255728602409363,0.8751656413078308
1772526277707369000,7.403368896484375,1.4177922010421753,0.5301411151885986,1.0154953002929688
1772526277717351700,7.4133515625,1.4505072832107544,0.4892943501472473,1.148964524269104
1772526277727334000,7.423333984375,1.413154125213623,0.5372248291969299,1.2692222595214844
1772526277737316900,7.43331689453125,1.3289347887039185,0.7446771264076233,1.368575930595398
1772526277747298800,7.443298828125,1.228400468826294,1.0414317846298218,1.427427053451538
1772526277757281800,7.45328173828125,1.1309255361557007,1.2358839511871338,1.4138329029083252
1772526277767264800,7.4632646484375,0.9615500569343567,1.2297922372817993,1.2914561033248901
1772526277777246700,7.473246826171875,0.6836822032928467,1.0264817476272583,1.0461390018463135
1772526277787229700,7.483229736328125,0.3288252651691437,0.7085774540901184,0.6954011917114258
1772526277797211600,7.493211669921875,0.00036082183942198753,0.3458592891693115,0.3076592683792114
1772526277807194600,7.503194580078125,-0.1903449445962906,0.05287295952439308,0.0028114914894104004
1772526277817176800,7.5131767578125,-0.2367064207792282,-0.12473311275243759,-0.15969453752040863
1772526277827159600,7.52315966796875,-0.19621732831001282,-0.17302235960960388,-0.16406399011611938
1772526277837141800,7.533141845703125,-0.09232867509126663,-0.0914185419678688,-0.034802548587322235
1772526277847124700,7.543124755859375,0.047556523233652115,0.0854148268699646,0.1759786754846573
1772526277857107700,7.553107666015625,0.1820812076330185,0.2777692675590515,0.3799821436405182
1772526277867089700,7.563089599609375,0.305874228477478,0.42751190066337585,0.5132227540016174
1772526277877073000,7.573072998046875,0.41903209686279297,0.5253246426582336,0.5721340775489807
1772526277887054600,7.5830546875,0.5266581773757935,0.5481796264648438,0.5538474917411804
1772526277897037800,7.593037841796875,0.616233229637146,0.4794832468032837,0.4740089178085327
1772526277907019500,7.60301953125,0.694832444190979,0.3784264028072357,0.37555184960365295
1772526277917002800,7.613002685546875,0.7540279030799866,0.2687509059906006,0.2770903408527374
1772526277926985700,7.62298583984375,0.7963559031486511,0.14066432416439056,0.17348456382751465
1772526277936968000,7.632968017578125,0.8178877830505371,0.040491458028554916,0.08766229450702667
1772526277946950700,7.64295068359375,0.7884561419487,-0.026603957638144493,0.016340984031558037
1772526277956932900,7.652932861328125,0.6991438865661621,-0.08980000764131546,-0.049095530062913895
1772526277966915800,7.662915771484375,0.5700511336326599,-0.14659909904003143,-0.10413827747106552
1772526277976897800,7.672897705078125,0.4390755295753479,-0.1910984367132187,-0.13435953855514526
1772526277986880800,7.682880859375,0.33355334401130676,-0.19946981966495514,-0.12744517624378204
1772526277996863700,7.69286376953125,0.25769728422164917,-0.184841126203537,-0.08778229355812073
1772526278006845700,7.702845703125,0.18588995933532715,-0.15147410333156586,-0.031822092831134796
1772526278016828700,7.71282861328125,0.11425554007291794,-0.11323389410972595,0.024938318878412247
1772526278026810600,7.722810546875,0.057197317481040955,-0.06754577159881592,0.07577620446681976
1772526278036793600,7.732793701171875,0.032077573239803314,-0.03009875863790512,0.10570452362298965
1772526278046775800,7.74277587890625,0.043943021446466446,-0.023864299058914185,0.11938571184873581
1772526278056758500,7.752758544921875,0.08135777711868286,-0.01935400441288948,0.11843790858983994
1772526278066740700,7.76274072265625,0.12994582951068878,-0.03412788733839989,0.10354764759540558
1772526278076723700,7.7727236328125,0.17690400779247284,-0.05031827464699745,0.06644286960363388
1772526278086706700,7.782706787109375,0.2179960459470749,-0.053578782826662064,0.010181992314755917
1772526278096688600,7.792688720703125,0.24455790221691132,-0.06455725431442261,-0.0821731686592102
1772526278106671900,7.802671875,0.2637539505958557,-0.1051076129078865,-0.20334061980247498
1772526278116653600,7.812653564453125,0.28587353229522705,-0.15311914682388306,-0.3339611887931824
1772526278126636800,7.82263671875,0.3110944628715515,-0.1904420107603073,-0.4460166096687317
1772526278136618500,7.832618408203125,0.34462082386016846,-0.22251290082931519,-0.536153256893158
1772526278146601700,7.842601806640625,0.38751715421676636,-0.2616767883300781,-0.595094621181488
1772526278156584700,7.852584716796875,0.4499214291572571,-0.2936353087425232,-0.6184590458869934
1772526278166567000,7.86256689453125,0.5142151713371277,-0.28797316551208496,-0.5917419791221619
1772526278176549600,7.872549560546875,0.5666713118553162,-0.2095586359500885,-0.5207019448280334
1772526278186531800,7.88253173828125,0.595513105392456,-0.07486819475889206,-0.4109983444213867
1772526278196514800,7.892514892578125,0.6034359931945801,0.05570878088474274,-0.275394082069397
1772526278206496800,7.902496826171875,0.6002452969551086,0.15448860824108124,-0.1379251629114151
1772526278216479700,7.912479736328125,0.5848998427391052,0.2142527550458908,-0.028359053656458855
1772526278226462700,7.922462646484375,0.56541508436203,0.22813953459262848,0.03640050068497658
1772526278236444700,7.932444580078125,0.5708125233650208,0.2066255360841751,0.06481612473726273
1772526278246427600,7.942427734375,0.6008908152580261,0.1602575033903122,0.07192303240299225
1772526278256409600,7.95240966796875,0.6351725459098816,0.127723827958107,0.061273571103811264
1772526278266392800,7.962392822265625,0.6750597953796387,0.12184517085552216,0.03857704624533653
1772526278276374800,7.972374755859375,0.7161965370178223,0.08884256333112717,0.006792045198380947
1772526278286357800,7.982357666015625,0.7551963925361633,0.01797451265156269,-0.039883580058813095
1772526278296339700,7.992339599609375,0.8034650087356567,-0.06668297946453094,-0.09458484500646591
1772526278306322700,8.00232275390625,0.8523569107055664,-0.1206551343202591,-0.14595189690589905
1772526278316305700,8.0123056640625,0.8924915790557861,-0.138694167137146,-0.18891608715057373
1772526278326288000,8.022287841796874,0.9135699272155762,-0.12056868523359299,-0.2205541729927063
1772526278336270800,8.032270751953124,0.9179990291595459,-0.06790592521429062,-0.250184029340744
1772526278346252800,8.042252685546876,0.9033207297325134,0.012490649707615376,-0.3030621409416199
1772526278356235800,8.05223583984375,0.8957058191299438,0.09904450178146362,-0.35109415650367737
1772526278366217700,8.0622177734375,0.8904532790184021,0.1689857840538025,-0.39015233516693115
1772526278376200700,8.07220068359375,0.8689969778060913,0.2224850356578827,-0.4194929599761963
1772526278386183700,8.08218359375,0.8375738263130188,0.252267986536026,-0.4253250062465668
1772526278396166000,8.092165771484375,0.8024159669876099,0.25203850865364075,-0.3893507122993469
1772526278406148600,8.102148681640625,0.7547874450683594,0.21967099606990814,-0.3216126561164856
1772526278416130800,8.112130859375,0.6954213380813599,0.17531107366085052,-0.24238260090351105
1772526278426113800,8.12211376953125,0.6188921928405762,0.11611060798168182,-0.17275398969650269
1772526278436095700,8.132095703125,0.5417667031288147,0.0806434378027916,-0.11584290862083435
1772526278446078700,8.14207861328125,0.4605187475681305,0.0446939580142498,-0.07571572810411453
1772526278456060700,8.152060791015625,0.373252272605896,-0.04236477613449097,-0.0569729320704937
1772526278466043600,8.162043701171875,0.28977975249290466,-0.14036670327186584,-0.03469265624880791
1772526278476027000,8.17202685546875,0.22397774457931519,-0.20121046900749207,0.001219324767589569
1772526278486008600,8.182008544921874,0.18958328664302826,-0.17807984352111816,0.05159914121031761
1772526278495991800,8.19199169921875,0.21021385490894318,-0.06972353905439377,0.11665670573711395
1772526278505973800,8.201973876953126,0.2829756736755371,-0.03276818245649338,0.1841108500957489
1772526278515956700,8.211956787109376,0.3544619083404541,-0.07393740117549896,0.23994411528110504
1772526278525938700,8.221938720703125,0.3516746461391449,-0.07783520221710205,0.26135700941085815
1772526278535922000,8.231921875,0.23034653067588806,-0.05883587896823883,0.2330588847398758
1772526278545904600,8.241904541015625,0.014778546057641506,-0.0903293564915657,0.1253124475479126
1772526278555886800,8.251886962890625,-0.2294209599494934,-0.2197599560022354,-0.06097358465194702
1772526278565869800,8.261869873046875,-0.432571679353714,-0.42995527386665344,-0.2848743200302124
1772526278575851800,8.271851806640624,-0.545459508895874,-0.6835466623306274,-0.47173750400543213
1772526278585834800,8.281834716796874,-0.5542727112770081,-0.8855453133583069,-0.5840099453926086
1772526278595817000,8.29181689453125,-0.4763229191303253,-0.938125491142273,-0.6073424220085144
1772526278605799700,8.301799560546876,-0.32412511110305786,-0.8064393997192383,-0.5115343928337097
1772526278615782000,8.311781982421875,-0.11461015045642853,-0.5051161050796509,-0.30707404017448425
1772526278625764900,8.321764892578125,0.12797318398952484,-0.06520848721265793,-0.025845812633633614
1772526278635747800,8.331747802734375,0.342793345451355,0.33500444889068604,0.24620699882507324
1772526278645729800,8.341729736328125,0.4899550974369049,0.5305976867675781,0.43993014097213745
1772526278655712800,8.351712646484375,0.5920162200927734,0.5709014534950256,0.5500075817108154
1772526278665694700,8.36169482421875,0.6455662846565247,0.5344542264938354,0.5810939073562622
1772526278675677700,8.371677734375,0.666000485420227,0.4706159830093384,0.5651891827583313
1772526278685660000,8.381659912109376,0.676764190196991,0.3725144565105438,0.5324525237083435
1772526278695642600,8.391642578125,0.6817241907119751,0.24889490008354187,0.49614134430885315
1772526278705625900,8.4016259765625,0.6766303777694702,0.08893025666475296,0.462836891412735
1772526278715607800,8.41160791015625,0.6516354084014893,-0.0868922621011734,0.41249921917915344
1772526278725590800,8.4215908203125,0.6232988834381104,-0.22844886779785156,0.3410545885562897
1772526278735572700,8.43157275390625,0.6012637615203857,-0.297096312046051,0.27340346574783325
1772526278745556000,8.441555908203124,0.5702899098396301,-0.30336645245552063,0.22544845938682556
1772526278755537700,8.45153759765625,0.5154286026954651,-0.25501635670661926,0.1929841935634613
1772526278765521000,8.46152099609375,0.4470205307006836,-0.12505994737148285,0.16527986526489258
1772526278775502800,8.4715029296875,0.38897183537483215,0.048355892300605774,0.16153033077716827
1772526278785485800,8.48148583984375,0.34150683879852295,0.21346628665924072,0.17535214126110077
1772526278795468800,8.49146875,0.30956515669822693,0.37538063526153564,0.19303658604621887
1772526278805451000,8.501450927734375,0.29693564772605896,0.5127590298652649,0.20652683079242706
1772526278815433700,8.511433837890625,0.3138872981071472,0.5833200216293335,0.2096347212791443
1772526278825416000,8.521416015625,0.3588135242462158,0.6032639145851135,0.2036505937576294
1772526278835399000,8.53139892578125,0.4280761778354645,0.6298850178718567,0.19352680444717407
1772526278845380900,8.541380859375,0.5144994854927063,0.6641223430633545,0.19161199033260345
1772526278855363800,8.55136376953125,0.5975713133811951,0.6936107873916626,0.19529111683368683
1772526278865345800,8.561345703125,0.6570687294006348,0.7145469188690186,0.20941491425037384
1772526278875328800,8.571328857421875,0.6975992918014526,0.7173830270767212,0.23089073598384857
1772526278885311700,8.581311767578125,0.7266996502876282,0.7015278935432434,0.2533973753452301
1772526278895293700,8.591293701171875,0.7452822327613831,0.669380784034729,0.2722303867340088
1772526278905276700,8.601276611328124,0.7639323472976685,0.6344619393348694,0.2781415283679962
1772526278915259000,8.6112587890625,0.7795646786689758,0.5692160129547119,0.26886406540870667
1772526278925241600,8.62124169921875,0.7802395224571228,0.4583888053894043,0.23223334550857544
1772526278935223800,8.631223876953126,0.7711527347564697,0.3139800727367401,0.18494339287281036
1772526278945206800,8.641206787109375,0.763668954372406,0.12411239743232727,0.1741003394126892
1772526278955189800,8.651189697265625,0.7385419607162476,-0.09010282158851624,0.1843021810054779
1772526278965171700,8.661171630859375,0.6802514791488647,-0.2534792423248291,0.18102648854255676
1772526278975155000,8.671155029296875,0.6181929707527161,-0.26451119780540466,0.13506849110126495
1772526278985136600,8.68113671875,0.5782191753387451,-0.1725519746541977,0.041642144322395325
1772526278995119900,8.691119873046874,0.5669801831245422,-0.07056888192892075,-0.07044538855552673
1772526279005101800,8.701101806640626,0.6063100099563599,0.032324474304914474,-0.1751166731119156
1772526279015084800,8.711084716796876,0.6688255071640015,0.11015384644269943,-0.26422354578971863
1772526279025066800,8.721066650390625,0.7042255401611328,0.13481871783733368,-0.3509368598461151
1772526279035050000,8.731050048828125,0.6934629678726196,0.23091131448745728,-0.3993735909461975
1772526279045032700,8.74103271484375,0.6712216138839722,0.49738508462905884,-0.37388235330581665
1772526279055015000,8.751014892578125,0.6545233130455017,0.8411914110183716,-0.28553634881973267
1772526279064998000,8.760997802734375,0.6275055408477783,1.1010082960128784,-0.18621455132961273
1772526279074979800,8.770979736328124,0.5716565847396851,1.2576051950454712,-0.12534672021865845
1772526279084962800,8.780962890625,0.5231809020042419,1.3599035739898682,-0.10846946388483047
1772526279094944800,8.79094482421875,0.5349457263946533,1.4312562942504883,-0.09998846799135208
1772526279104927700,8.800927734375,0.5961396098136902,1.4440232515335083,-0.10093788802623749
1772526279114910000,8.810909912109375,0.6740474700927734,1.3635493516921997,-0.12772315740585327
1772526279124892700,8.820892578125,0.7564166188240051,1.2150077819824219,-0.17082242667675018
1772526279134875600,8.830875732421875,0.822542130947113,1.0653035640716553,-0.20844806730747223
1772526279144857900,8.84085791015625,0.8965133428573608,0.973055899143219,-0.1992092877626419
1772526279154840800,8.8508408203125,0.9859026074409485,0.9056042432785034,-0.0284382626414299
1772526279164822800,8.86082275390625,0.906731128692627,0.6831517219543457,0.3612264096736908
1772526279174805800,8.8708056640625,0.8001813292503357,0.43774935603141785,0.6769688725471497
1772526279184787700,8.88078759765625,0.8408083319664001,0.24439586699008942,0.919249951839447
1772526279194770700,8.890770751953125,1.0161885023117065,0.04696335271000862,1.0647052526474
1772526279204753000,8.9007529296875,1.187785267829895,-0.04187224432826042,1.0764812231063843
1772526279214736000,8.91073583984375,1.2921384572982788,0.005050910636782646,0.9585395455360413
1772526279224718800,8.92071875,1.3262466192245483,0.15585161745548248,0.7358361482620239
1772526279234700800,8.93070068359375,1.3220800161361694,0.4071458578109741,0.4281775653362274
1772526279244683800,8.940683837890624,1.3356834650039673,0.7018145322799683,0.0617407001554966
1772526279254665700,8.950665771484376,1.4868451356887817,1.0387917757034302,-0.33987051248550415
1772526279264649000,8.96064892578125,1.6325770616531372,1.2627449035644531,-0.5996829271316528
1772526279274631000,8.970630859375,1.6912513971328735,1.3001059293746948,-0.7756825089454651
