time,seconds_elapsed,z,y,x
1772526320964948700,0.09194873046875,0.9959843834936618,-0.19236498485207557,-0.20599822727665304
1772526320974930400,0.101930419921875,1.3970038092195987,-0.13441753053516148,-0.20607669934034345
1772526320984913700,0.11191357421875,1.7869138119101524,0.0741921944141388,-0.32052557388432323
1772526320994895600,0.1218955078125,2.029618406423926,0.3132514181628823,-0.6180821409177035
1772526321004878600,0.131878662109375,1.989245479503274,0.4550970528721809,-0.7692823908843099
1772526321014860500,0.141860595703125,1.7903519696652888,0.29911271043419835,-0.12892317090258001
1772526321024842500,0.151842529296875,1.6175450872421264,0.001093055933713913,0.491579255964607
1772526321034825500,0.161825439453125,1.3395061444967984,-0.2403337737292051,0.8329702885493636
1772526321044807700,0.1718076171875,0.8351566926777362,-0.3071633304208517,0.9284007935643196
1772526321054790700,0.181790771484375,0.2271370230257511,-0.1581625632598996,0.8246830833278596
1772526321064772600,0.191772705078125,-0.4166588934063911,0.00158726919144392,0.6483923043116927
1772526321074754800,0.2017548828125,-0.9570341828525066,0.13899462919235228,0.502072739058733
1772526321084737500,0.211737548828125,-1.3430121067911385,0.24721914932876823,0.3925657778963446
1772526321094719700,0.2217197265625,-1.602704076462984,0.33437662377804517,0.35140973777398465
1772526321104702700,0.23170263671875,-1.726687599006295,0.39494039807319636,0.3868130595885217
1772526321114684700,0.2416845703125,-1.7302490908801555,0.4245864715352654,0.5038873872652649
1772526321124666600,0.25166650390625,-1.670062625464797,0.40241789434701203,0.6441520363934338
1772526321134649600,0.261649658203125,-1.5580074411243199,0.4084031062364578,0.6818355780996381
1772526321144631600,0.271631591796875,-1.3101087850987911,0.46878538648486134,0.599171323416382
1772526321154614800,0.28161474609375,-0.951481224900484,0.4759937104284763,0.5008804605342447
1772526321164596500,0.291596435546875,-0.44857320406138895,0.3120096014082432,0.3817268423654139
1772526321174578700,0.30157861328125,0.12036240943670272,0.04274871614128351,0.26537849087566134
1772526321184561700,0.311561767578125,0.5596972450315952,-0.036945290559530254,0.3794979142695665
1772526321194543600,0.321543701171875,0.8168710944026708,-0.07454349206984043,0.5047675311006605
1772526321204526600,0.331526611328125,0.8599135327935218,-0.029424539665877818,0.27441636833399535
1772526321214508500,0.341508544921875,0.7484674202620982,0.0704056616127491,-0.038556963539868594
1772526321224490800,0.35149072265625,0.6293769304573535,0.13242577219605445,-0.21219927387386558
1772526321234473700,0.3614736328125,0.5959007773131132,0.0931298268571496,-0.3047822805032134
1772526321244455700,0.37145556640625,0.5968903728723526,0.02595890938192606,-0.38229967381730673
1772526321254438700,0.381438720703125,0.4846685997933149,-0.08644201965630054,-0.4362234255760908
1772526321264420600,0.391420654296875,0.26819851673245426,-0.1905728407382965,-0.5056640415489674
1772526321274403600,0.401403564453125,0.10948796420097351,-0.23326047434210775,-0.5895170676253736
1772526321284385800,0.4113857421875,-0.03659223933815956,-0.2534013450950384,-0.7205429098956286
1772526321294367500,0.421367431640625,-0.08846914156973361,-0.22408932589292524,-0.8114392786122858
1772526321304350700,0.431350830078125,-0.0838163473278284,-0.20576924082636833,-0.816548146058619
1772526321314332700,0.441332763671875,-0.04341711692214012,-0.18484394169747828,-0.7613665031932294
1772526321324315600,0.451315673828125,0.08647826001346111,-0.1397042387664318,-0.6726134301155805
1772526321334297600,0.461297607421875,0.2762748556822538,-0.07084434529095887,-0.6051790393985808
1772526321344279600,0.471279541015625,0.46034664396345615,-0.0055704936087131495,-0.5073602510076016
1772526321354262500,0.481262451171875,0.6183399881362914,0.05389934796988964,-0.4236231794610619
1772526321364244700,0.49124462890625,0.720531950110197,0.11202595824599265,-0.3712414695125073
1772526321374227500,0.5012275390625,0.7045914536565542,0.14069061945527792,-0.2897824259005487
1772526321384209700,0.511209716796875,0.47367958826720713,0.15635434479415417,-0.21472667345963417
1772526321394191600,0.521191650390625,0.2406301263272762,0.1711146915525198,-0.16737163256667553
1772526321404174600,0.531174560546875,0.16529694518446922,0.15924100614637135,-0.1545575975704938
1772526321414156800,0.54115673828125,0.18938275417089462,0.17609131092131136,-0.1915470195326954
1772526321424139500,0.551139404296875,0.27825638488829135,0.18939356782585381,-0.20718641414791344
1772526321434121700,0.561121826171875,0.39714755272865293,0.15808540637046098,-0.21953327002376316
1772526321444103700,0.571103759765625,0.4490303001791239,0.08889145863503217,-0.22795506141036748
1772526321454086700,0.581086669921875,0.44960196258723734,0.04225391836166382,-0.2380923514779657
1772526321464068600,0.591068603515625,0.46161739455163475,0.03220861742645502,-0.24036175771467386
1772526321474051800,0.6010517578125,0.5205991603523492,0.0846460761502385,-0.2618223327640444
1772526321484033500,0.611033447265625,0.5643985545903444,0.10525807154625653,-0.24708982386067507
1772526321494015700,0.621015625,0.5426321284621953,0.05460545041263103,-0.20271036471240222
1772526321503998500,0.63099853515625,0.49207507665753364,-0.10080985996574163,-0.12135215112641454
1772526321513980700,0.640980712890625,0.35786534365415573,-0.2839914214089513,-0.0051511722180992365
1772526321523963600,0.650963623046875,0.14935586420893668,-0.3230363145962357,0.09865056304000318
1772526321533945600,0.660945556640625,-0.08168342695236205,-0.20783508731499314,0.12240728620253502
1772526321543927600,0.670927490234375,-0.30960078670084473,-0.07579480730518698,0.08601590319871902
1772526321553910800,0.680910888671875,-0.57718204831779,0.009736673377454281,0.03555938915908336
1772526321563892500,0.690892578125,-0.8447031041800975,0.017682956206798554,0.023310806025937197
1772526321573875700,0.700875732421875,-1.0070447066903114,-0.023013357449322938,0.013514219154790043
1772526321583857700,0.710857666015625,-1.09352764287889,-0.07426335995420813,-0.007198679332435131
1772526321593839600,0.720839599609375,-1.1160276439785957,-0.12313874228224157,0.029652576268091795
1772526321603822600,0.730822509765625,-1.0656021095991135,-0.15981281468495726,0.09299597134441137
1772526321613804500,0.740804443359375,-0.9441004669994115,-0.18560382015407084,0.15010573272816835
1772526321623787500,0.75078759765625,-0.8041156577259302,-0.193163295622915,0.17626140679121016
1772526321633769500,0.76076953125,-0.6502239036530256,-0.21789134803563356,0.17789492627717554
1772526321643751700,0.770751708984375,-0.4818137948840856,-0.21801365924105046,0.17265907145030795
1772526321653734700,0.780734619140625,-0.3418827616244554,-0.19584829692319033,0.16354389097206293
1772526321663716600,0.790716552734375,-0.2531915017366409,-0.18247195186913012,0.15171777103468775
1772526321673699600,0.800699462890625,-0.18396598981916903,-0.1899133539162576,0.14770999669805168
1772526321683681800,0.810681884765625,-0.18023907825052737,-0.24580139148533342,0.146779218653962
1772526321693664500,0.82066455078125,-0.20212182423472402,-0.3244334680430591,0.15305866424962877
1772526321703646700,0.830646728515625,-0.25743688422143457,-0.33701866271942854,0.11859466911181807
1772526321713628400,0.84062841796875,-0.3321142318040132,-0.3046032706744969,0.06011880700662732
1772526321723611600,0.850611572265625,-0.29564766467213627,-0.20866613131165504,0.04597206210196018
1772526321733593600,0.860593505859375,-0.24233634572327137,-0.141071873857826,0.052294981513172384
1772526321743576600,0.87057666015625,-0.1935264298468828,-0.10239522946104407,0.09477788632512092
1772526321753558500,0.88055859375,-0.1476256794154644,-0.08684723945632576,0.12905885304622353
1772526321763540500,0.89054052734375,-0.09507423892319201,-0.046997605757415295,0.15275588191077114
1772526321773523500,0.9005234375,-0.032283728489279746,0.020124211879074573,0.16481719884350896
1772526321783505700,0.910505615234375,0.016028759258985517,0.03318301541656256,0.20273871402405202
1772526321793488400,0.92048828125,0.06477963842451571,0.06443959281519054,0.24586641954556107
1772526321803470600,0.930470703125,0.11332125875353813,0.10210077655911445,0.2770395564444363
1772526321813452800,0.940452880859375,0.16310265001058577,0.1362910693220794,0.29118717813193795
1772526321823435500,0.950435546875,0.16183774464130402,0.14506342771202324,0.3074229312051087
1772526321833417700,0.960417724609375,0.15184709650278091,0.18209625042453406,0.3120735334899276
1772526321843400700,0.970400634765625,0.17735621629059314,0.2042738877020776,0.2906953760270029
1772526321853382700,0.980382568359375,0.2279956856817007,0.19806100453659892,0.23950170681923627
1772526321863364600,0.990364501953125,0.26673487392067907,0.16299772833138704,0.2292871867969632
1772526321873347600,1.00034765625,0.3088578593790531,0.13800079584941266,0.22011026619412002
1772526321883329500,1.01032958984375,0.3777414259910583,0.16465879341140388,0.18449688182547688
1772526321893312800,1.020312744140625,0.4704992046654224,0.1888074385009706,0.1733231613822281
1772526321903294500,1.03029443359375,0.49231356158852574,0.151666917630285,0.1884220193799585
1772526321913276700,1.040276611328125,0.46677112405300136,0.10061316834986209,0.18032668346874414
1772526321923259600,1.050259765625,0.43961949775516984,0.09907602191045879,0.10693550323918462
1772526321933241600,1.06024169921875,0.39837914035022254,0.09913374344706535,0.030324191919341683
1772526321943224600,1.070224609375,0.33606910690963265,0.07313362527191639,-0.05939202710203826
1772526321953206500,1.08020654296875,0.32758652524650095,0.0630931466422975,-0.10858560853376983
1772526321963188700,1.090188720703125,0.3623457039386034,0.05954509877189994,-0.08672982362173497
1772526321973171700,1.100171630859375,0.39823242535591125,0.05154109440594911,-0.032528131704404946
1772526321983153700,1.110153564453125,0.43471652814447875,0.04744856439530849,0.036639147219806906
1772526321993136600,1.12013671875,0.3842588450610637,0.015253244841843842,0.05333477288968861
1772526322003118600,1.13011865234375,0.31330724000334736,-0.01920169020667672,0.03407031964510679
1772526322013100500,1.1401005859375,0.28426117826104164,-0.06100435766950249,0.022768881168961523
1772526322023083800,1.150083740234375,0.2536883453428745,-0.12850669905617831,0.020861440112441777
1772526322033065500,1.1600654296875,0.20187983217239377,-0.16793766895160078,0.0628797961525619
1772526322043048700,1.170048583984375,0.14310966329574584,-0.11407470746934413,0.08759425843134522
1772526322053030700,1.18003076171875,0.07535247036516667,-0.04583440719693899,0.08925868451222777
1772526322063013600,1.190013671875,-0.026511574828624724,0.01058349946513772,0.07355177761875092
1772526322072995600,1.19999560546875,-0.12171733117699622,0.055405222488194704,0.07754464664719998
1772526322082977500,1.2099775390625,-0.19348668235838412,0.07355185068398713,0.10562551661916077
1772526322092960500,1.21996044921875,-0.2797486692726612,0.04512216727435588,0.1276281626559794
1772526322102942700,1.229942626953125,-0.37950492853224277,0.018113456578552723,0.16590192534029483
1772526322112924700,1.239924560546875,-0.5082061272472143,0.025954087076336143,0.19145941431447863
1772526322122907600,1.24990771484375,-0.568494883993268,0.09254062879234552,0.21514855213351547
1772526322132889600,1.2598896484375,-0.5530839643716812,0.1403558345429599,0.24345175961926577
1772526322142872600,1.26987255859375,-0.47506724323332306,0.14815934790074825,0.2735810865536332
1772526322152854800,1.279854736328125,-0.4232166444867849,0.11219663863778113,0.283330765543133
1772526322162837500,1.28983740234375,-0.41530338714420795,0.04916442840248346,0.2536377841994166
1772526322172819700,1.29981982421875,-0.40850072139203547,-0.01447261585816741,0.2043143658429384
1772526322182801700,1.3098017578125,-0.39533085869550705,-0.06796703628897667,0.13181881927885114
1772526322192784600,1.31978466796875,-0.3275742502868175,-0.10402414583712816,0.08119001741223036
1772526322202766600,1.3297666015625,-0.22272212919294831,-0.12090016957521438,0.06530716942995786
1772526322212749800,1.339749755859375,-0.15590893911421297,-0.12745616708993912,0.040181642132252456
1772526322222731500,1.3497314453125,-0.09276537745893002,-0.1208078151166439,0.014388590836524962
1772526322232713700,1.359713623046875,0.011829554003477096,-0.09805953834429383,-0.027835443843528627
1772526322242696400,1.369696533203125,0.1328641636133194,-0.08415829263329505,-0.04144735121913254
1772526322252678700,1.3796787109375,0.21919629315435885,-0.11135083546340464,-0.04046878851056099
1772526322262661600,1.38966162109375,0.27414894956946373,-0.16433905993774534,-0.044568113588169214
1772526322272643600,1.3996435546875,0.24881810895800588,-0.22201003540083764,-0.0835293470799923
1772526322282625800,1.409625732421875,0.14548399121165276,-0.24484146041199564,-0.1433071586292237
1772526322292608500,1.4196083984375,-0.058119011491537094,-0.23846052720323205,-0.2277642150133848
1772526322302590700,1.4295908203125,-0.21490882509350775,-0.2237378821067512,-0.2861586824454367
1772526322312573700,1.43957373046875,-0.277826176777482,-0.2043823165126145,-0.29894451426044105
1772526322322555600,1.4495556640625,-0.22161446021199224,-0.15880422216430307,-0.2914692099437117
1772526322332537600,1.45953759765625,-0.11502864719331264,-0.11031710850149393,-0.2746633288323879
1772526322342520800,1.469520751953125,0.015001754298806189,-0.1038785998865962,-0.2254533807877451
1772526322352502500,1.47950244140625,0.155058459764719,-0.09291063114851712,-0.16909991766400634
1772526322362485800,1.48948583984375,0.28837387427687644,-0.07978519211560488,-0.11516213737986981
1772526322372467500,1.499467529296875,0.3776899880647659,-0.05466711747199297,-0.0845217921834439
1772526322382449700,1.50944970703125,0.4431313052684068,-0.05238280592709779,-0.06450045615695417
1772526322392432600,1.5194326171875,0.44597968043684955,-0.04769084871858358,-0.062358256496489045
1772526322402414600,1.52941455078125,0.4041898724555969,-0.0319958514586091,-0.10203048780187964
1772526322412397600,1.5393974609375,0.3681546824783087,0.0050052609413862225,-0.14091894831843674
1772526322422379800,1.5493798828125,0.35315760435461996,0.0041810850769281385,-0.16300919957347212
1772526322432361700,1.55936181640625,0.3586298982858658,0.0024351181924343107,-0.15482771974876522
1772526322442344700,1.5693447265625,0.36061435010135173,0.012734686149656772,-0.12848821355141699
1772526322452326700,1.57932666015625,0.36102176185846324,0.023333529314398763,-0.10178367343395948
1772526322462309600,1.5893095703125,0.34938510007858276,0.03871756092905998,-0.08113909094259142
1772526322472291600,1.59929150390625,0.3613701369047165,0.06453355470895766,-0.02914893759489059
1772526322482274600,1.609274658203125,0.34732349137365814,0.07967880913168192,0.03552300267145037
1772526322492256800,1.6192568359375,0.3143541187077761,0.13113105621039867,0.06263890006877482
1772526322502238500,1.629238525390625,0.3446276764184236,0.17315876460075377,0.09894048589728772
1772526322512221700,1.6392216796875,0.3929886794835329,0.19690087471604345,0.17332886047065257
1772526322522203600,1.64920361328125,0.4259264879673719,0.21605448799729346,0.2440432227063924
1772526322532186600,1.6591865234375,0.4049520889997482,0.2271323468506336,0.3230163677867502
1772526322542168600,1.66916845703125,0.3573077097713947,0.2681032396644354,0.3687369393456727
1772526322552150800,1.67915087890625,0.2981944265455007,0.3390758875101805,0.4040320515453815
1772526322562133500,1.689133544921875,0.17986673780679702,0.3782347624659538,0.4150133912216872
1772526322572115700,1.69911572265625,0.07114332823753357,0.43539223544895644,0.44285855274163183
1772526322582098700,1.7090986328125,0.00492868857383728,0.4948769823357463,0.47843240881748494
1772526322592080600,1.71908056640625,-0.03768880240321159,0.49991585328578947,0.48297443616129454
1772526322602062600,1.7290625,-0.0652776510745287,0.43631490325182676,0.4370747086431831
1772526322612045600,1.739045654296875,-0.12497545619010925,0.3377735727399587,0.36998430905826385
1772526322622027500,1.749027587890625,-0.22742694588303564,0.2437427053898573,0.2792038218062371
1772526322632010800,1.7590107421875,-0.32849311869740483,0.18371581445038318,0.1918277361702174
1772526322641992400,1.768992431640625,-0.3802683141201734,0.1693663865804672,0.10971895994525402
1772526322651974700,1.778974609375,-0.397529830044508,0.13501140477508305,0.04312248135711998
1772526322661957400,1.788957275390625,-0.42906478599309916,0.06454582966864109,0.006866670899093151
1772526322671939000,1.79893896484375,-0.43988136356174945,0.03318301541656256,-0.008241137590073049
1772526322681922000,1.808922119140625,-0.34856969204246996,0.018880933819711208,-0.020005334739759562
1772526322691904000,1.818904052734375,-0.21371990756988524,-0.006039572425186633,-0.014968874942511319
1772526322701886000,1.828885986328125,-0.11307575955986976,-0.04112140720039606,-0.021423019517958164
1772526322711869000,1.838868896484375,-0.006163783326745033,-0.08582973297685384,-0.0411986371550709
1772526322721851100,1.84885107421875,0.08133096025288104,-0.09323416401445865,-0.07316098820287734
1772526322731833900,1.858833740234375,0.13497779476642607,-0.09816139128357171,-0.08665975406020879
1772526322741816000,1.868816162109375,0.04634674063324928,-0.12536825489997863,-0.06831161194294691
1772526322751798300,1.87879833984375,-0.0969879635900259,-0.11080956819355488,-0.11770433267597108
1772526322761781000,1.888781005859375,-0.2045551888614893,-0.054041386789083476,-0.18194613789673894
1772526322771763200,1.89876318359375,-0.25255788000822066,-0.0001771101325750351,-0.2369271070908755
1772526322781746200,1.90874609375,-0.2768506097435951,0.0085310969799757,-0.24789492969848215
1772526322791728000,1.91872802734375,-0.2845803272128105,0.008487111707776784,-0.22044267648626117
1772526322801710000,1.9287099609375,-0.2838794854670763,0.016194325084239243,-0.23313629997316745
1772526322811693000,1.938693115234375,-0.25481413450241086,0.013345803785324096,-0.24764384101424364
1772526322821675000,1.948675048828125,-0.2062017870247364,0.01473024388104677,-0.2386967471119016
1772526322831658200,1.958658203125,-0.1780249093323946,0.03271379046961665,-0.23334906594101337
1772526322841640000,1.968639892578125,-0.15781798760592936,0.05013678056597709,-0.24070585844460873
1772526322851622100,1.9786220703125,-0.10729308450520038,0.07079407640844583,-0.2883992279138416
1772526322861604900,1.98860498046875,-0.07267302202284336,0.04625058678239584,-0.30395857956279065
1772526322871587000,1.998587158203125,-0.059786652442812914,-0.008530512458086014,-0.30044395903795956
1772526322881570000,2.008570068359375,-0.056259647360444066,-0.057789341145753854,-0.28587610264439134
1772526322891552000,2.018552001953125,-0.02678396202921867,-0.07649550292044878,-0.29711704310495407
1772526322901535000,2.028534912109375,0.038324177697300905,-0.0661944736585021,-0.30917419531922785
1772526322911517200,2.03851708984375,0.11464812344312666,-0.07475655029863118,-0.28566563823148605
1772526322921499100,2.0484990234375,0.17351240034401416,-0.06831804168373345,-0.2419972134293988
1772526322931482000,2.058482177734375,0.2299386364430189,-0.062437459212541575,-0.21891893751770256
1772526322941464000,2.068464111328125,0.2463245385766029,-0.07746288664788008,-0.20640779445823282
1772526322951447000,2.078447021484375,0.2363905890613794,-0.07635024923086166,-0.22763061522897332
1772526322961429000,2.088428955078125,0.15615794543921946,-0.09563508767634629,-0.2754956149380654
1772526322971411000,2.098410888671875,0.0752677146911621,-0.11944120293855666,-0.2858810710804537
1772526322981394200,2.108394287109375,0.0014221417576074599,-0.13163783668875695,-0.27587946315649897
1772526322991376000,2.1183759765625,-0.03287701820731163,-0.0947588893637061,-0.2352455106794834
1772526323001359000,2.128359130859375,-0.04584989702701568,-0.059630292837321755,-0.16873214379753917
1772526323011341000,2.138341064453125,-0.03563362343907356,-0.01638824022114277,-0.1288562066135928
1772526323021323000,2.148322998046875,-0.014496142864227294,0.02252279745340347,-0.10881886930037289
1772526323031306000,2.158305908203125,0.014867314264178276,0.049909401550889014,-0.09073445615321397
1772526323041288200,2.1682880859375,0.07583470092415809,0.07134265020191669,-0.08923194263577461
1772526323051271000,2.17827099609375,0.11736439666450023,0.07603314610570669,-0.07061787959132343
1772526323061253000,2.188253173828125,0.12581015344858168,0.051312254086136815,-0.05465897069815546
1772526323071234800,2.19823486328125,0.1354167707055807,0.04340834909379482,-0.044698790763132275
1772526323081218000,2.208218017578125,0.1711620378255844,0.027400340361893174,-0.056393502873182295
1772526323091200000,2.218199951171875,0.24891163246035575,-0.003982639895379543,-0.06971479327175766
1772526323101183000,2.228182861328125,0.3338964390456676,-0.03694178342819213,-0.05129687385391444
1772526323111165000,2.2381650390625,0.4218266514331102,-0.04997516026347875,-0.037931890444085
1772526323121147000,2.24814697265625,0.5025146376073361,-0.029662147814035415,-0.015451324697211383
1772526323131129900,2.2581298828125,0.521765281522274,-0.021482640750706196,-0.006948430898413062
1772526323141112000,2.268112060546875,0.4602034361004829,-0.05162848042845726,-0.018233648892119526
1772526323151095000,2.278094970703125,0.38617140068411826,-0.12251257320791482,-0.042574784346483645
1772526323161077000,2.288076904296875,0.3337970703244209,-0.1888473321199417,-0.07417126122396439
1772526323171059200,2.29805908203125,0.3177922764629125,-0.24546207652837038,-0.09948332406971604
1772526323181042000,2.3080419921875,0.32945933338105676,-0.2627218388870358,-0.10247015786077826
1772526323191024000,2.318024169921875,0.3234539554864168,-0.25980332109183074,-0.056098501981981096
1772526323201007000,2.328007080078125,0.2077957782179117,-0.26264175938814877,-0.00006882745251059532
1772526323210989000,2.337989013671875,0.03455284246504307,-0.21120573279187083,0.02850731522310525
1772526323220972000,2.347971923828125,-0.14692016149461268,-0.10473653189018368,0.032196159803681075
1772526323230954000,2.3579541015625,-0.31944413532316684,-0.029221418309211728,0.0521830090386793
1772526323240936000,2.36793603515625,-0.4652712408840656,0.031235388480126854,0.05801394368186593
1772526323250919200,2.377919189453125,-0.5457926383197307,0.09109437550678849,0.05315137914679944
1772526323260900900,2.38790087890625,-0.5430085605591535,0.16915318222120404,0.0422915834909305
1772526323270884000,2.397884033203125,-0.48980362459421156,0.21959654451832175,0.053724466327019035
1772526323280866000,2.407865966796875,-0.40462358769774437,0.2806383115887642,0.04733893000837415
1772526323290848000,2.417847900390625,-0.256940040615201,0.3043859746620059,-0.0030270927362143992
1772526323300831000,2.4278310546875,-0.1036240406036377,0.29897417874634263,-0.0704812841322273
1772526323310813000,2.43781298828125,0.05224281293451786,0.2376610473886132,-0.0996154260167852
1772526323320796000,2.4477958984375,0.15666764852702617,0.168535927105695,-0.08534026895947754
1772526323330778000,2.457778076171875,0.19853987409472465,0.13303703596219418,-0.06196198718789964
1772526323340760000,2.467760009765625,0.21345219654440878,0.13386018891334533,-0.04307590226903558
1772526323350743000,2.477742919921875,0.21769465641975402,0.13986191354617475,-0.014886603486537933
1772526323360725000,2.48772509765625,0.1956535050034523,0.11855857488512993,0.019640008558705447
1772526323370708000,2.4977080078125,0.19024667752385138,0.08104951296299695,0.055269978735968464
1772526323380690200,2.507690185546875,0.199469848421216,0.03898264160603285,0.062183228723146015
1772526323390672000,2.517671875,0.21038287210166454,0.07052227372974157,0.04137616741275415
1772526323400655000,2.527655029296875,0.24450726002156734,0.11279197418242692,0.056874966247193515
1772526323410637000,2.537636962890625,0.2611409994363785,0.14334931727051733,0.127013556155283
1772526323420620000,2.5476201171875,0.29987609602212906,0.1837207828864455,0.19816775284670293
1772526323430602000,2.55760205078125,0.310294029662013,0.20418314067870377,0.26304383738301695
1772526323440584000,2.567583984375,0.2949409777075052,0.2033589648142457,0.319940138679184
1772526323450567000,2.57756689453125,0.23604572114646433,0.19613705073669552,0.3685275709113106
1772526323460549000,2.587549072265625,0.17979601065814493,0.18878595732152462,0.4070703597953543
1772526323470531800,2.59753173828125,0.14189736489653587,0.17736323055326939,0.42958669097535307
1772526323480514000,2.60751416015625,0.10707388879656791,0.16922434776127337,0.45974571892824023
1772526323490496000,2.61749609375,0.08954933802187443,0.16981339969560502,0.440251694711484
1772526323500479000,2.62747900390625,0.11746902608275413,0.18319968162178993,0.415121454706043
1772526323510461200,2.637461181640625,0.16236147625446318,0.18925752035602927,0.4111258822638541
1772526323520444000,2.64744384765625,0.17356617635786534,0.2113508403509855,0.38867994943894446
1772526323530426000,2.657426025390625,0.15060381844341755,0.23905454757362601,0.34395339388605206
1772526323540409000,2.6674091796875,0.10410101046562194,0.2644127145834267,0.28591917460113764
1772526323550391000,2.67739111328125,0.04249123424887657,0.25189210957586766,0.20353063158672302
1772526323560373000,2.687373046875,-0.00004793079495429992,0.21721666364446282,0.13145422375015914
1772526323570356200,2.697356201171875,-0.0038519992530345916,0.1498528539456427,0.0771073146758601
1772526323580338000,2.707337890625,0.06279109495580196,0.09077537268549203,0.01700407056454569
1772526323590321200,2.717321044921875,0.10334873079359531,0.024154782569408416,-0.041520708716288206
1772526323600302800,2.727302734375,0.08163315806984901,-0.09103300070837139,-0.06843012375608086
1772526323610285000,2.73728515625,0.025265374159812927,-0.19263298813849686,-0.078366374826245
1772526323620268000,2.74726806640625,-0.02719838804900646,-0.2535300860412419,-0.09760806824974715
1772526323630250000,2.75725,-0.03356792308092117,-0.2885949696816504,-0.12649842797368765
1772526323640233000,2.76723291015625,0.0013648586124181746,-0.3056369976364076,-0.12881426716800778
1772526323650215200,2.777215087890625,0.029980127722024914,-0.31185645667314527,-0.06913458223100752
1772526323660197000,2.787197021484375,0.028941432324051854,-0.2978742546804249,0.01146678510569036
1772526323670180000,2.79718017578125,-0.03471300146281719,-0.2893732605777681,0.11785196098573505
1772526323680162600,2.80716259765625,-0.10165244826972485,-0.22381591577902435,0.1913884679701179
1772526323690145800,2.817145751953125,-0.19673662406504153,-0.14845833084732293,0.23099212755132464
1772526323700127500,2.82712744140625,-0.25290742409825323,-0.07816533582881093,0.2510471831843257
1772526323710109700,2.837109619140625,-0.29166999321281906,-0.054377048484235996,0.2994949877500534
1772526323720092700,2.8470927734375,-0.3144084792435169,-0.05260375520139932,0.3500525875439867
1772526323730074600,2.85707470703125,-0.2777694781541824,-0.04193754588887095,0.3589062675418332
1772526323740057600,2.8670576171875,-0.23145663979053496,-0.034328970581293104,0.36094453190378845
1772526323750039600,2.87703955078125,-0.20391689095795154,-0.031584201917797324,0.35034554260857403
1772526323760021800,2.887021728515625,-0.21302374199926852,-0.015869477044045923,0.29789745289292185
1772526323770004700,2.897004638671875,-0.2674263633161783,0.019913053346425295,0.222811780237779
1772526323779986700,2.906986572265625,-0.3481079197496176,0.0776318134739995,0.1361816541308537
1772526323789969700,2.9169697265625,-0.40355625072717666,0.14452610596492885,0.07138908315952867
1772526323799951600,2.92695166015625,-0.4214776918649673,0.2142738881908357,0.003318440365605056
1772526323809934600,2.9369345703125,-0.3894938231050968,0.2567477329134941,-0.06854626094903797
1772526323819916800,2.946916748046875,-0.29310031827688215,0.26123539972156284,-0.11339552956614643
1772526323829898500,2.9568984375,-0.14690847105681895,0.21751038589403032,-0.14403941842652856
1772526323839881700,2.9668818359375,0.05925707561075687,0.14905103604346512,-0.1667785985769704
1772526323849863700,2.97686376953125,0.23830665181577204,0.07144903318583964,-0.19976397252958267
1772526323859846700,2.9868466796875,0.35039223129451275,-0.018156126676499844,-0.2549082059940323
1772526323869828600,2.99682861328125,0.4172580283433199,-0.048718438200652595,-0.31801417558528483
1772526323879810600,3.006810546875,0.44213411092460153,-0.04957067111581564,-0.35357422233149405
1772526323889793500,3.01679345703125,0.4423614899396896,-0.02465498717650771,-0.319569661398977
1772526323899775700,3.026775634765625,0.3827361655384302,0.012118307816982268,-0.24989779395349324
1772526323909758500,3.036758544921875,0.3093979576051235,0.09101692635640501,-0.208626603018865
1772526323919740700,3.04674072265625,0.23831834225356577,0.16157193331196903,-0.22274105308912692
1772526323929722600,3.05672265625,0.18684943630099296,0.19536562797278165,-0.27873079746700824
1772526323939705600,3.06670556640625,0.17226678419709204,0.1673356114052236,-0.36342363536842165
1772526323949687800,3.076687744140625,0.17706337082386014,0.09391206327602267,-0.446766885291785
1772526323959670500,3.08667041015625,0.1956914989262819,0.028619214632362125,-0.5014180745422839
1772526323969652700,3.09665283203125,0.1680909598171711,-0.013813421297073364,-0.5402654723960906
1772526323979634700,3.106634765625,0.09205050718784331,-0.04080225824862718,-0.5691325243096799
1772526323989617700,3.11661767578125,-0.031309915021061896,-0.04760375495702028,-0.5694680398743599
1772526323999599600,3.126599609375,-0.15623159519731997,-0.01976166217699647,-0.5655348651438952
1772526324009582800,3.136582763671875,-0.23631810834705827,0.021749182732403276,-0.5750887293003499
1772526324019564500,3.146564453125,-0.29781507183909417,0.03745002521127462,-0.5497928869370371
1772526324029546800,3.156546630859375,-0.30133973883390425,0.01069280505850911,-0.4883851360984146
1772526324039529500,3.166529541015625,-0.28082652763724325,-0.040484862862527365,-0.41599911432340736
1772526324049511700,3.17651171875,-0.2558773798197508,-0.0723924515157938,-0.36336766739748416
1772526324059494700,3.18649462890625,-0.21807167303860187,-0.07718100096657872,-0.33776356280259784
1772526324069476600,3.1964765625,-0.1427238788485527,-0.050947658557444805,-0.31587701742611823
1772526324079458800,3.206458740234375,-0.042163317468762396,-0.01646218224018812,-0.2696655205450952
1772526324089441800,3.21644189453125,0.0911930135756731,0.0012650514997541904,-0.20586773276478051
1772526324099423700,3.226423828125,0.22256313923895357,-0.04496083923280239,-0.13051380109488964
1772526324109406700,3.23640673828125,0.364466933876276,-0.11835223865807055,-0.08631320564486086
1772526324119388700,3.246388671875,0.5039098913580179,-0.1596416959017515,-0.09753390703499316
1772526324129371600,3.25637158203125,0.5928758765339851,-0.1936423113115132,-0.12956190719753502
1772526324139353900,3.266353759765625,0.5950760169267654,-0.2225733683720231,-0.11057926656901836
1772526324149335600,3.27633544921875,0.5098468801915645,-0.24886297101303934,-0.11093714009597896
1772526324159318800,3.28631884765625,0.4303232616215944,-0.24473624647185205,-0.12483597465418278
1772526324169300500,3.296300537109375,0.3582604804515838,-0.21026552933230994,-0.1219291472967714
1772526324179283700,3.30628369140625,0.31157062546908854,-0.19215806410312652,-0.11481595429070293
1772526324189265700,3.316265625,0.2967231849491596,-0.18521949701160192,-0.13683555146232246
1772526324199247600,3.32624755859375,0.28038696717619893,-0.2338840130679309,-0.17867628591321408
1772526324209230600,3.336230712890625,0.28773732993900775,-0.3182863435901701,-0.13482771877124905
1772526324219212800,3.346212890625,0.2428624154239893,-0.32348186640664933,-0.10329166684411466
1772526324229195500,3.356195556640625,0.149991239503026,-0.29977365856096144,0.0018476736932992934
1772526324239177700,3.366177734375,0.040486908689141274,-0.25488164678066966,0.1755737167879939
1772526324249159700,3.37615966796875,-0.08297054415345191,-0.16521569664180277,0.4130218520782888
1772526324259142700,3.386142578125,-0.23309447012543677,-0.04419716138392687,0.650923064898327
1772526324269124900,3.396124755859375,-0.37805414520204067,0.05769844799190759,0.895353971748054
1772526324279107600,3.406107666015625,-0.4938000007539987,0.13281667120978236,1.071444405886531
1772526324289089800,3.41608984375,-0.5297966122865676,0.19003084281608462,1.206782046941295
1772526324299071500,3.426071533203125,-0.5230138202786445,0.23070596755370495,1.262394263243675
1772526324309054700,3.4360546875,-0.46325580940842626,0.3321275296770036,1.2202604641303418
1772526324319036700,3.44603662109375,-0.3540811489403248,0.4866591890886426,1.0771339958302677
1772526324329019600,3.45601953125,-0.25051965217888356,0.551490703830868,0.8495215373124927
1772526324339001600,3.466001708984375,-0.19689795210659503,0.5236110555194318,0.6171339002821594
1772526324348983800,3.47598388671875,-0.1996189015030861,0.40719899114370345,0.3668560940351337
1772526324358966500,3.485966552734375,-0.2642033096164465,0.2609219498582184,0.15271584216132758
1772526324368948700,3.49594873046875,-0.39569033965766426,0.15204378811866043,-0.02713613646775484
1772526324378931700,3.505931640625,-0.5714782837182283,0.07908274293467402,-0.24500607638917862
1772526324388913700,3.51591357421875,-0.6926093394398689,0.11594400847256182,-0.41468488991968333
1772526324398896600,3.525896728515625,-0.7364923203080892,0.1868896221809089,-0.47062546139359474
1772526324408878600,3.535878662109375,-0.7560796488314867,0.18553616174533963,-0.4566921400438994
1772526324418860800,3.54586083984375,-0.7681108628869057,0.17833046815022824,-0.4105439176574349
1772526324428843800,3.55584375,-0.7014554937183857,0.18775135357677936,-0.38620318406186993
1772526324438825700,3.56582568359375,-0.5860755488693714,0.21105828714519737,-0.3791685361847281
1772526324448808700,3.57580859375,-0.4313403297096491,0.23195070691779254,-0.3739581080600619
1772526324458790700,3.585790771484375,-0.2978343610614538,0.21595862640738486,-0.3707376116435975
1772526324468772600,3.595772705078125,-0.15080080232024193,0.18927388696894049,-0.3968446242593229
1772526324478755800,3.605755859375,0.01591360844671726,0.17420155165195464,-0.4361262488119304
1772526324488737500,3.615737548828125,0.19134499415457248,0.14317454522550105,-0.4639231872759759
1772526324498720800,3.625720703125,0.3648725920677185,0.10229396104365586,-0.4711762271441519
1772526324508702700,3.63570263671875,0.5027501999288797,0.05288461796939373,-0.4756700314320624
1772526324518684700,3.6456845703125,0.5918658227086067,0.010865385146439074,-0.4883660660717636
1772526324528667600,3.655667724609375,0.6543792697668075,-0.024225801979005337,-0.4714870466589927
1772526324538649600,3.665649658203125,0.696251495334506,-0.042402386921644206,-0.5026462280977517
1772526324548632600,3.675632568359375,0.7245926236778497,-0.0486570634022355,-0.5288372657351196
1772526324558614800,3.68561474609375,0.7591986576348543,-0.036515666970610615,-0.5593700589038432
1772526324568596500,3.695596435546875,0.7746808889269828,-0.059218497166037554,-0.5644922242231667
1772526324578579700,3.705579833984375,0.7730494883328676,-0.09083733200579881,-0.5403685674443841
1772526324588561700,3.715561767578125,0.757505882242322,-0.10259382077306509,-0.5070774885434657
1772526324598544600,3.725544677734375,0.754456431543827,-0.08427548927217722,-0.46672238954044876
1772526324608526600,3.735526611328125,0.7605284449338913,-0.07008446683436632,-0.4240233577597886
1772526324618508500,3.745508544921875,0.7867571111679077,-0.07464402983486652,-0.3847817729566246
1772526324628491500,3.755491455078125,0.8148357891827821,-0.10399784235209227,-0.32445224580876525
1772526324638473700,3.7654736328125,0.8359493043601512,-0.12732348062098026,-0.2887207149531692
1772526324648456400,3.77545654296875,0.860112854757905,-0.11645488060414791,-0.2559361242696643
1772526324658438700,3.785438720703125,0.8202209893524647,-0.127545891200006,-0.20369762218408285
1772526324668421600,3.795421630859375,0.7524485988527536,-0.12600421471595763,-0.13327106391377747
1772526324678402800,3.80540283203125,0.6865811651915311,-0.09112316320985556,-0.06299070918112992
1772526324688385000,3.815385009765625,0.6030056408822536,-0.043270109666883945,0.015454904893785714
1772526324698368000,3.825367919921875,0.4386871853411197,-0.011177227574586867,0.09044336425215005
1772526324708350000,3.835349853515625,0.2902753239840269,0.006120820967853069,0.09223981921486556
1772526324718333000,3.8453330078125,0.154901807898283,0.02111819135248661,0.07480769596397877
1772526324728315000,3.85531494140625,-0.000879120922088623,-0.0023626374781131744,0.10332651896178721
1772526324738297000,3.865297119140625,-0.12434358802735805,-0.06686433574408292,0.14689100846536457
1772526324748280000,3.875280029296875,-0.20263620349764822,-0.08765840970873832,0.15445808271877468
1772526324758262000,3.885261962890625,-0.2719435484796762,-0.09824468565285205,0.18483583145625887
1772526324768245000,3.895244873046875,-0.35154607750475403,-0.1316051034629345,0.24863961058594286
1772526324778227200,3.905227294921875,-0.4476414761692285,-0.14293898290395735,0.31068682837188244
1772526324788209000,3.915208984375,-0.5714917277216911,-0.11154051281660794,0.38371472824700176
1772526324798192000,3.925192138671875,-0.6828571762323379,-0.07903320470452309,0.4392514681603759
1772526324808173800,3.935173828125,-0.758768449524045,-0.03946779477447271,0.44898646103739737
1772526324818157000,3.945156982421875,-0.8040098592638969,-0.010566256069391966,0.45864232426360246
1772526324828139000,3.955138916015625,-0.7988163822740316,0.008639818051457405,0.47221251138933
1772526324838121000,3.965120849609375,-0.7662719570219516,0.018084668875485658,0.46032443213164803
1772526324848104000,3.97510400390625,-0.698112613031268,0.0299253287948668,0.4052652466021478
1772526324858086100,3.985086181640625,-0.5893284131854772,0.031333295896649356,0.36484007803760465
1772526324868068900,3.99506884765625,-0.4560960007816553,0.02453150692731142,0.33088973151035606
1772526324878051000,4.005051025390625,-0.3385603392034769,0.0029484745420515534,0.2945885110080242
1772526324888033000,4.015032958984375,-0.26275369533002374,-0.004218056086450815,0.26834260137826205
1772526324898016000,4.02501611328125,-0.18060265086591243,-0.0013119593814015387,0.2587350342731923
1772526324907998200,4.034998291015625,-0.13936521607041358,0.03634995501488447,0.21663374918997286
1772526324917981000,4.04498095703125,-0.0707283176958561,0.10080079987645149,0.15288396526984868
1772526324927963100,4.054963134765625,-0.011450199297070503,0.1333490245208144,0.12269574775509536
1772526324937944800,4.06494482421875,-0.007498831322789192,0.13067074522227048,0.12219941560551524
1772526324947928000,4.074927978515625,-0.0070101710230112075,0.17408756988346577,0.09874057941101491
1772526324957910000,4.084909912109375,0.012995090651512145,0.22092969281822442,0.06021035774759948
1772526324967893000,4.09489306640625,0.05083528422415256,0.2771840794816613,0.023634265826642513
1772526324977875000,4.104875,0.11182897436916828,0.29530981101989745,0.01779189647398889
1772526324987857200,4.114857177734375,0.19066519519686698,0.2688771466463804,0.03566716038249433
1772526324997840000,4.12483984375,0.23314824613928795,0.24712474904358386,0.039899829516187306
1772526325007822000,4.134822021484375,0.29943127486407756,0.23066490489095448,0.008830591383203863
1772526325017805000,4.14480517578125,0.3665010700523853,0.18837620747685432,-0.0165322518017143
1772526325027787000,4.154787109375,0.40877193954885005,0.10941811383515596,-0.012858531725034117
1772526325037770000,4.16477001953125,0.4474900849997997,0.09021540071517228,-0.012238500130549073
1772526325047752000,4.174751953125,0.4613718953579664,0.05612228471636772,-0.019293387078121303
1772526325057734000,4.18473388671875,0.42750645063519477,0.03666618135720491,-0.04657053945176303
1772526325067717000,4.194717041015625,0.4217196839272976,0.03220774064362049,-0.07982610864788293
1772526325077699000,4.204698974609375,0.43474692328274245,0.036411622074246405,-0.10694434413276613
1772526325087682000,4.21468212890625,0.4382803581058979,0.003923895445466041,-0.08410130174905062
1772526325097664000,4.2246640625,0.43925650966167445,-0.030125673672556877,-0.06018098552264273
1772526325107646000,4.23464599609375,0.4159948765397072,-0.04330459645837545,-0.04143602610751986
1772526325117629000,4.24462890625,0.36483518266677856,-0.03377572061270475,-0.04548588602021336
1772526325127611000,4.25461083984375,0.2704763985365629,-0.00015314473509788512,-0.027292276877537366
1772526325137594000,4.264593994140625,0.14512626381516455,0.015215397049486636,-0.035835210425779224
1772526325147576000,4.274576171875,-0.02617489022016525,0.029706279216706752,-0.06925524946860968
1772526325157558000,4.28455810546875,-0.16971417710483072,0.04279693919718265,-0.09788600840829312
1772526325167541000,4.294541015625,-0.26546353881061074,0.06905863091796637,-0.10815386605300009
1772526325177523000,4.30452294921875,-0.28923078336715696,0.07692804911881684,-0.10400609872378408
1772526325187506000,4.314505859375,-0.2581535080581903,0.1026958198428154,-0.0794303142633289
1772526325197488000,4.324488037109375,-0.1724561692893505,0.13064327269345521,-0.06105827981382608
1772526325207469800,4.3344697265625,-0.10469196209609508,0.15194383487552404,-0.062062488420307635
1772526325217453000,4.344453125,-0.08591828804314136,0.16134119329601526,-0.11865860119350254
1772526325227435000,4.35443505859375,-0.10137889202535152,0.13825520900189875,-0.16382957604564724
1772526325237418000,4.36441796875,-0.08860591969192028,0.10100509027689694,-0.2233806661669165
1772526325247400000,4.37439990234375,-0.010244915160536765,0.07797492782324553,-0.23234167899675665
1772526325257382000,4.3843818359375,0.0639917029172182,0.0359086409881711,-0.1926857412390411
1772526325267364900,4.39436474609375,0.11302432163357734,0.005525777684152126,-0.15947861429452895
1772526325277347000,4.40434716796875,0.14890285974442957,0.0049962008520960804,-0.13376447345390916
1772526325287329800,4.414329833984375,0.14960136340260505,0.035035657545924186,-0.17050138195976614
1772526325297312000,4.42431201171875,0.13323650405704973,0.06972673943787813,-0.22790983402915296
1772526325307294000,4.4342939453125,0.11521744776368141,0.06566548134833573,-0.24961868475116789
1772526325317277000,4.44427685546875,0.11043956583738326,0.04587269338071346,-0.23733108478188514
1772526325327259100,4.454259033203125,0.1222457389652729,0.024684359401464462,-0.22313465551659464
1772526325337241900,4.464241943359375,0.13807342269420622,0.03595832534879446,-0.201635575087741
1772526325347224000,4.47422412109375,0.149228438436985,0.05046674317270517,-0.17488215432725845
1772526325357207000,4.48420703125,0.1450765794545412,0.05903232694417238,-0.16337985951676964
1772526325367189000,4.49418896484375,0.138829209497571,0.08472557112723589,-0.15731281456276774
1772526325377171000,4.5041708984375,0.13332652042806148,0.07518500484377146,-0.15142799430787562
1772526325387154200,4.514154296875,0.14513853877484797,0.06254471897929907,-0.10985416716486215
1772526325397136000,4.524135986328125,0.12700199358165262,0.04376783005595207,-0.07235219257064163
1772526325407119000,4.534119140625,0.11125848100483417,0.02807546314448118,-0.04986490482203662
1772526325417100800,4.544100830078125,0.0890530789375305,0.030894904479384422,-0.052539019402116534
1772526325427083000,4.5540830078125,0.05316343491077423,0.022304770788550376,-0.053426542826369404
1772526325437066000,4.56406591796875,0.027009587478637694,-0.011015607272088527,-0.043975700652971864
1772526325447048000,4.5740478515625,0.034920506733655925,-0.04060235176235437,-0.0045894466821104285
1772526325457031000,4.584031005859375,0.0722924982726574,-0.08197218076586722,0.04267594316601753
1772526325467012900,4.594012939453125,0.08914309530854225,-0.14445596333816646,0.10139840044341981
1772526325476995000,4.6039951171875,0.09856967982351779,-0.1756634408980608,0.10984349964037537
1772526325486978000,4.61397802734375,0.05708440774679183,-0.18504764757603406,0.09820734931714832
1772526325496960000,4.6239599609375,0.007556114467978477,-0.19125790039300916,0.08301555233895778
1772526325506943000,4.63394287109375,-0.10053250432908535,-0.19291238960176704,0.08529087685979903
1772526325516925200,4.64392529296875,-0.18853169029951095,-0.16949293556958436,0.08499467039220035
1772526325526907000,4.653906982421875,-0.2605605691999197,-0.15319909563362596,0.11165383699797093
1772526325536890000,4.66389013671875,-0.3443617189586162,-0.15294292891547082,0.13737163110040126
1772526325546871800,4.673871826171875,-0.38876667787432667,-0.14268267005532978,0.14407719315364956
1772526325556855000,4.68385498046875,-0.41572541194856166,-0.09625000470429658,0.14714476403072477
1772526325566837000,4.6938369140625,-0.44353520989418027,-0.044386108084768054,0.16495821474939584
1772526325576819000,4.70381884765625,-0.4397738115340471,0.007960895876586436,0.1452094851192087
1772526325586802000,4.713802001953125,-0.43742637162506576,0.03729015847444534,0.11579225197695195
1772526325596783900,4.723783935546875,-0.4080126456141472,0.04581161084324121,0.06785225080288947
1772526325606766800,4.733766845703125,-0.3446317680716514,0.01378477972447872,-0.010988061678037047
1772526325616749000,4.7437490234375,-0.2618061853468418,-0.018419453787803648,-0.0768177206121385
1772526325626731000,4.75373095703125,-0.1647708754837513,-0.028250819711387157,-0.08847074900493025
1772526325636714000,4.7637138671875,-0.06544599337875842,-0.013589549413323401,-0.13037694990746676
1772526325646696200,4.7736962890625,0.030706688430905342,0.029181963081657884,-0.15665047819651662
1772526325656679000,4.783678955078125,0.1103986493051052,0.04653144955039024,-0.19130838847123086
1772526325666661000,4.7936611328125,0.18548633125424385,0.009130524177849292,-0.22721907528601584
1772526325676643000,4.80364306640625,0.25146423955261704,-0.015925591145455838,-0.26796061632335183
1772526325686626000,4.8136259765625,0.31455402519404885,-0.013917466193437575,-0.28672428043894466
1772526325696608000,4.82360791015625,0.3412351113706827,-0.011857611054182052,-0.2859293306689709
1772526325706591200,4.83359130859375,0.3507891216576099,-0.00004763853400945663,-0.25368732242956754
1772526325716573000,4.843572998046875,0.35286651245355605,0.06763005941957236,-0.24961568907648324
1772526325726556200,4.85355615234375,0.38911329935491085,0.14354659340828657,-0.2928976353116333
1772526325736537900,4.863537841796875,0.42966801258325577,0.21302140391170976,-0.3182091867007315
1772526325746520000,4.87352001953125,0.5075099616765976,0.21026830581128597,-0.280974777001515
1772526325756503000,4.8835029296875,0.5551362207263708,0.1735106467783451,-0.19322488961704073
1772526325766485000,4.893485107421875,0.5949029984474182,0.1262976447045803,-0.1337858085028827
1772526325776467200,4.90346728515625,0.6556389144390821,0.11231558884233235,-0.12839417859241364
1772526325786450200,4.9134501953125,0.7591881362408399,0.12329320219159126,-0.10995726221315562
1772526325796432100,4.92343212890625,0.815438431251049,0.05522036744058132,-0.0805070766493678
1772526325806415000,4.9334150390625,0.7790180413484573,-0.071845631287992,-0.06878164060749113
1772526325816397000,4.94339697265625,0.661221098485589,-0.15051292528957128,-0.07871310590468347
1772526325826379000,4.95337890625,0.5021598328202963,-0.17334084316939113,-0.08573606334403157
1772526325836362200,4.9633623046875,0.28778000003695486,-0.17303031591549514,-0.09291844912879169
1772526325846344000,4.973343994140625,0.12135492760539054,-0.16808642977252602,-0.08748911755643785
1772526325856327200,4.9833271484375,0.01619768608510494,-0.15295593452751635,-0.1150229481048882
1772526325866308900,4.993308837890625,-0.055116322544217104,-0.16314444332569836,-0.10064100620485841
1772526325876292000,5.0032919921875,-0.14635200621783734,-0.1909637397520244,-0.06211202665045857
1772526325886274000,5.013274169921875,-0.19751228461265563,-0.1894900139376521,-0.06862703456766903
1772526325896256000,5.023256103515625,-0.1674801344424486,-0.15021569590866565,-0.05702361747026443
1772526325906239000,5.033239013671875,-0.12470949873030185,-0.12303718160390853,0.009466770394891499
1772526325916221200,5.04322119140625,-0.1030307508856058,-0.13229074763953685,0.08889072798267006
1772526325926204000,5.053203857421875,-0.10765373451113701,-0.16928981421291828,0.12913016471676528
1772526325936186000,5.06318603515625,-0.14740940631628036,-0.177416129784286,0.10887443541251123
1772526325946168000,5.07316796875,-0.19434066883921622,-0.11876140398085117,0.06543371841907501
1772526325956151000,5.083151123046875,-0.2153594914704561,-0.08214724507182836,0.06346219915039837
1772526325966133000,5.093133056640625,-0.2281821481645107,-0.0811577956430614,0.09851320039592683
1772526325976116000,5.103115966796875,-0.22917466633319852,-0.044529900469630956,0.16028255108855663
1772526325986098200,5.11309814453125,-0.22897475984692572,-0.018459931928664446,0.23370931408815085
1772526325996079900,5.123079833984375,-0.2425426819503307,-0.007981938664615154,0.2746701969645917
1772526326006063000,5.13306298828125,-0.22274141841530798,0.002770779887586832,0.3120227531507611
1772526326016045000,5.143045166015625,-0.18980185636579988,0.03244432587847113,0.34851511231102045
1772526326026028000,5.153028076171875,-0.144336574742198,0.05496697720140219,0.3394484471496194
1772526326036010000,5.163010009765625,-0.12450608511269091,0.06291618264019488,0.3290934957433492
1772526326045992200,5.1729921875,-0.15001052872538564,0.059823769582808016,0.3270602363500744
1772526326055975000,5.182974853515625,-0.22424656228125095,0.0783035752557218,0.29480083858445283
1772526326065957000,5.19295703125,-0.28943887315988537,0.11889511336311698,0.254474527284503
1772526326075940000,5.202940185546875,-0.33862755922079085,0.15024915978685022,0.22807123513594268
1772526326085922000,5.212922119140625,-0.33460546409785746,0.17393325610458849,0.19391433318592607
1772526326095904000,5.222904052734375,-0.3045622080117464,0.17629384775608778,0.1688956272635609
1772526326105887000,5.232886962890625,-0.25509412048757074,0.18167729436010122,0.16459171952456234
1772526326115869000,5.242868896484375,-0.21794190917909145,0.1799219751253724,0.16621859007403253
1772526326125852200,5.25285205078125,-0.15259469999969005,0.16936068749204278,0.1614198114901781
1772526326135833900,5.262833740234375,-0.08528349727094173,0.15686945470944047,0.14553411396369337
1772526326145816000,5.272816162109375,-0.03439502155482769,0.1482705531902611,0.13006854154542088
1772526326155799000,5.282799072265625,0.035410336077213285,0.12380801984593272,0.10363719234615563
1772526326165781000,5.292781005859375,0.0832628050982952,0.07663388847783208,0.0698770346287638
1772526326175764000,5.302763916015625,0.11084230141937731,0.04238806613534689,0.054283671112358566
1772526326185746000,5.312745849609375,0.10820961482822894,-0.014103344154357909,0.030261282750964163
1772526326195729000,5.32272900390625,0.12212474293410777,-0.022406915988773105,0.0011409867286682129
1772526326205711000,5.332711181640625,0.13723521830439567,-0.008894231203943491,-0.04606522027812898
1772526326215693000,5.342693115234375,0.189775552880764,-0.006132073014229536,-0.08207600646652281
1772526326225676000,5.352676025390625,0.30219898601174355,-0.018474691106379032,-0.11584274005517363
1772526326235658000,5.362657958984375,0.4412684340059757,-0.017900836741179225,-0.12294490021057426
1772526326245641000,5.372640869140625,0.5299836592912673,-0.04670373737737536,-0.10223448594138025
1772526326255623200,5.382623046875,0.5864443821817636,-0.10516381739154458,-0.09184723970070481
1772526326265604900,5.39260498046875,0.5762152491122484,-0.15913228507488966,-0.09233421950004994
1772526326275588000,5.402588134765625,0.5457359396964311,-0.1855833618879318,-0.1365434366479516
1772526326285570000,5.412570068359375,0.5315963551849127,-0.19307970899268984,-0.19395934137143195
1772526326295553000,5.422552978515625,0.4642231931358576,-0.23717794004678724,-0.19863420131467283
1772526326305535000,5.432534912109375,0.2919692684203386,-0.3108694914624095,-0.1472307618137449
1772526326315517000,5.442516845703125,0.0029857378125190733,-0.34895518422871824,-0.11754844799451529
1772526326325500000,5.4525,-0.30538053865730763,-0.32716362365931273,-0.11785561424754559
1772526326335482000,5.462482177734375,-0.5444610974550247,-0.2465592241153121,-0.12329247153922915
1772526326345464800,5.47246484375,-0.6632394525706767,-0.1470997558452189,-0.10951850546970963
1772526326355447000,5.482447021484375,-0.6717442460656166,-0.06600757278427481,-0.07150397824347018
1772526326365429000,5.492428955078125,-0.5971031388401985,0.0006980652667582035,-0.001650032229349017
1772526326375412000,5.502411865234375,-0.4702151270270347,0.04517842750623822,0.08395327158048749
1772526326385394200,5.512394287109375,-0.34354221926927564,0.07941241328045726,0.13071999119147656
1772526326395377000,5.522376953125,-0.22322598706185817,0.13294161276370287,0.1446452022999525
1772526326405359000,5.532359130859375,-0.14086509923934937,0.16999050982818006,0.13190043314769864
1772526326415341000,5.542341064453125,-0.0965524947822094,0.1802114595912397,0.11745821242779493
1772526326425324000,5.552323974609375,-0.08376666296720504,0.1774586537517607,0.10034333843253553
1772526326435306000,5.562305908203125,-0.06835457430183887,0.18324235171973705,0.11074965469986199
1772526326445289200,5.572289306640625,-0.06335515857934951,0.1877164283938706,0.13080065521225331
1772526326455271000,5.58227099609375,-0.055556467527151106,0.20652736571729183,0.15078078244552015
1772526326465253000,5.592253173828125,-0.056552492827177045,0.24357772408649325,0.14665266966484486
1772526326475235800,5.60223583984375,-0.03293663944005966,0.25365765794366596,0.15811894331388174
1772526326485218000,5.612218017578125,-0.0029652795463800427,0.23222031763941048,0.19056706858463585
1772526326495201000,5.622200927734375,0.039871991661190986,0.23356340281143784,0.18717983729913829
1772526326505183000,5.632182861328125,0.10919862586557864,0.2603701611943543,0.1672398228805512
1772526326515165200,5.642165283203125,0.17047931625843046,0.2476948040165007,0.16132687250971794
1772526326525148200,5.652148193359375,0.21514321837127207,0.2283778168670833,0.15955672103203833
1772526326535130000,5.662130126953125,0.2442512394338846,0.22288564919158815,0.125706985335052
1772526326545113000,5.672113037109375,0.25664427253901956,0.2198885132022202,0.09969809933155774
1772526326555095000,5.682094970703125,0.25565116984844205,0.19116481528207657,0.06998290615603327
1772526326565077000,5.692076904296875,0.2921720975160599,0.17422522478848695,0.05358480212800205
1772526326575060200,5.702060302734375,0.30990415356159207,0.11800576330795884,0.027781229438260197
1772526326585042000,5.7120419921875,0.32992169019579887,0.026466274382174013,-0.015575097207352518
1772526326595025200,5.722025146484375,0.3981161054998636,-0.017153087113797663,-0.04933759301230311
1772526326605006800,5.7320068359375,0.44583238092064853,-0.03859495746269822,-0.06095357733033597
1772526326614989000,5.741989013671875,0.4537906464487314,-0.06997589189335704,-0.05544825791232288
1772526326624972000,5.751971923828125,0.4372983613312244,-0.08811243708655238,-0.04894925128184258
1772526326634954000,5.7619541015625,0.3695166184812784,-0.08381210954412817,-0.0737723615668714
1772526326644937000,5.77193701171875,0.2690659472167492,-0.0852853969670832,-0.08922142124176025
1772526326654919200,5.781919189453125,0.19736849222779274,-0.0727975251853466,-0.1604247360382229
1772526326664902000,5.79190185546875,0.14965397037267683,-0.08237915413156151,-0.17943908697925506
1772526326674884000,5.801884033203125,0.13795885640382766,-0.10663447446599603,-0.15113434512354432
1772526326684866000,5.811865966796875,0.17448446024656294,-0.1025406292811036,-0.12439020364806055
1772526326694848800,5.821848876953125,0.20402385846376417,-0.06870923295840621,-0.11757241339199244
1772526326704831000,5.8318310546875,0.20142039796710012,-0.05365384877622127,-0.08511676240190863
1772526326714814000,5.84181396484375,0.17717676807045935,-0.0542312102727592,-0.020254998651891946
1772526326724796000,5.8517958984375,0.10587561892271041,-0.03414923010021448,-0.029967487436160442
1772526326734777900,5.86177783203125,-0.006844166806340217,-0.0221915196724236,-0.05277998855113983
1772526326744760800,5.8717607421875,-0.1259925242781639,-0.024804040258377787,-0.08255407230705022
1772526326754742800,5.88174267578125,-0.1762380259156227,-0.020989888797700404,-0.09829422388300299
1772526326764726000,5.89172607421875,-0.20408114160895346,-0.009745148944854736,-0.06599617460742592
1772526326774707700,5.901707763671875,-0.1791881078928709,0.008231529511511326,-0.01524053149074316
1772526326784690000,5.91168994140625,-0.16626140630245206,0.03341112508401275,0.018785364490747452
1772526326794673000,5.9216728515625,-0.15439911907315254,0.059477878754585975,0.06405658484697342
1772526326804654800,5.93165478515625,-0.1530851138651371,0.08817951097339391,0.06904577143639326
1772526326814637800,5.941637939453125,-0.12483049476146697,0.10830255380868911,0.0758002871979028
1772526326824619800,5.951619873046875,-0.07325111417174339,0.11220277611762285,0.06534063330814242
1772526326834602000,5.96160205078125,-0.03481237018406391,0.09836977333724498,0.0883333863608539
1772526326844585000,5.9715849609375,0.008165770798921584,0.07574833781495689,0.1008190661855042
1772526326854567000,5.98156689453125,0.018932079485058782,0.07732859274372458,0.06286839797571302
1772526326864550000,5.9915498046875,0.034334231278300285,0.07436448224112391,0.03872881297543645
1772526326874532000,6.001531982421875,0.056698038777709,0.05384411065131425,0.03685907358080148
1772526326884513800,6.011513671875,0.09000117344260215,0.04654109416157007,0.07420673439614474
1772526326894497000,6.0214970703125,0.13685703264176846,0.05593801419064402,0.09672164080403745
1772526326904478700,6.031478759765625,0.19041852695941924,0.0812348064020276,0.10765125029310584
1772526326914462000,6.0414619140625,0.21205928088128564,0.08203443234711885,0.09765884858891367
1772526326924444000,6.05144384765625,0.20045535232722758,0.06658902593404055,0.09041048489585518
1772526326934425900,6.06142578125,0.20236673890650272,0.04028977868184447,0.06459514870308339
1772526326944408800,6.071408935546875,0.1826695202678442,0.021200901199877262,0.03807933609075844
1772526326954390800,6.081390869140625,0.15683306822180748,0.045843613416701554,0.04728431374430656
1772526326964373800,6.091373779296875,0.12515841154158114,0.06836041952073574,0.04776917465180158
1772526326974356000,6.10135595703125,0.09627543140649795,0.099517628198117,0.039884778077527876
1772526326984338000,6.111337890625,0.08011573924422263,0.12402034742236137,0.01668846527673304
1772526326994321000,6.12132080078125,0.10855506726503372,0.12390066656544804,0.0022811697397381067
1772526327004303000,6.13130322265625,0.13986439776420592,0.09656871526464819,0.02267871866747737
1772526327014285800,6.141285888671875,0.1103121400654316,0.07054433943107724,0.03253594968467951
1772526327024268000,6.15126806640625,0.055413844186067575,0.0803504247829318,0.01867686261497438
1772526327034249700,6.161249755859375,-0.017095511707663536,0.10135507275834679,0.00494110966399312
1772526327044233000,6.17123291015625,-0.0583148263245821,0.09624357496351003,0.012217676538228988
1772526327054215000,6.18121484375,-0.023282675909996033,0.0889881970077753,0.009469546873867512
1772526327064198000,6.191197998046875,0.04275076196789741,0.052572629410773515,0.013253157065808771
1772526327074179800,6.201179931640625,0.11048340497910976,0.01038198554366827,-0.014048545227199793
1772526327084161800,6.211161865234375,0.14380699791014193,-0.009337737187743186,-0.04853709028437733
1772526327094144800,6.221144775390625,0.10996434954106807,-0.020743805082142353,-0.07284830552451312
1772526327104127000,6.231126953125,0.04342413118481636,-0.02618701904937625,-0.07923559540882706
1772526327114109700,6.241109619140625,-0.002655482944846153,0.0023477321699261664,-0.08963029430359601
1772526327124092000,6.251091796875,-0.019108605095744132,0.009848170927911997,-0.09331256301291287
1772526327134073900,6.261073974609375,-0.01834580402970314,-0.007361907070130109,-0.08476729137711227
1772526327144056800,6.271056884765625,0.006911386823654175,-0.0627569004252553,-0.09159852563664317
1772526327154038800,6.281038818359375,0.04978840551972389,-0.12502704024687408,-0.09813589151613414
1772526327164022000,6.29102197265625,0.08916881427168846,-0.15274112273305654,-0.10953823308348655
1772526327174003700,6.301003662109375,0.12642507047653198,-0.17586173994913695,-0.11491977999135851
1772526327183987000,6.310987060546875,0.11548106713593005,-0.15880919060036539,-0.13045388760119675
1772526327193969000,6.320968994140625,0.037729134413599964,-0.1664249263010919,-0.14777166375741363
1772526327203950800,6.330950927734375,-0.051610360249876974,-0.17484014181643723,-0.16162293284684418
1772526327213933800,6.340933837890625,-0.1050964512437582,-0.17811127244159577,-0.17866861406341195
1772526327223915800,6.350915771484375,-0.13109949202835558,-0.16681655596718192,-0.16084427662454545
1772526327233898800,6.360898681640625,-0.13299568103849888,-0.16946648595407604,-0.1146428627461195
1772526327243881000,6.370880859375,-0.10333996296525001,-0.1548024391770363,-0.11184862891770898
1772526327253863000,6.38086279296875,-0.07304185533523559,-0.1499446238823235,-0.08494220955260097
1772526327263846000,6.390845947265625,-0.06919979295432567,-0.12858502498939633,-0.04510280498676002
1772526327273827800,6.400827880859375,-0.03988952731788158,-0.09349690660387278,-0.028963936416804788
1772526327283810800,6.410810791015625,-0.022791093000769615,-0.05986600128933787,-0.010523366775736212
1772526327293793000,6.42079296875,-0.0312619842261076,-0.06089768242463469,0.00126768184825778
1772526327303774700,6.430774658203125,-0.06539280188679694,-0.06356470967680215,0.015292334743216634
1772526327313758000,6.440758056640625,-0.06423369497954845,-0.044356881990283724,0.022950448280945418
1772526327323739600,6.45073974609375,-0.04009469450116157,-0.0069179626949131484,0.03393317619673908
1772526327333723000,6.460722900390625,-0.0025146131694316863,0.0392091438382864,0.04783011105880141
1772526327343704800,6.470704833984375,0.0526765281766653,0.05673398687392473,0.0652318391714245
1772526327353686800,6.480686767578125,0.0979991864591837,0.039683921743184324,0.08053016526401043
1772526327363669800,6.490669677734375,0.14369301614165306,0.02212663774266839,0.06794979289323091
1772526327373652000,6.50065185546875,0.16920038236379623,0.002445785716921091,0.05590739985667169
1772526327383634700,6.510634765625,0.15209902543723583,-0.00215367090255022,0.04945552030354738
1772526327393617000,6.520616943359375,0.11801204691827297,0.003032061172276735,0.03591280570663512
1772526327403598800,6.530598876953125,0.07927578128874302,0.01442921510785818,0.02451397127062082
1772526327413581800,6.540581787109375,0.04198620733618736,0.012632833210378884,0.04327405518963933
1772526327423564000,6.55056396484375,0.04074000666737556,0.01647021941617131,0.05571231567598879
1772526327433546800,6.560546630859375,0.056172553598880764,0.03556114272475242,0.0808026985950768
1772526327443529000,6.570529052734375,0.09654840312898158,0.029248014055192468,0.11026435540094971
1772526327453510700,6.5805107421875,0.12352467285990715,-0.004729658870398998,0.12959493268430233
1772526327463494000,6.590493896484375,0.15147534058094023,-0.04863426704853773,0.11084208222366869
1772526327473475800,6.600475830078125,0.17512158910632133,-0.08456994217410684,0.07397928231582045
1772526327483458800,6.610458740234375,0.16778408582508564,-0.121830582293123,0.01959207776375115
1772526327493440800,6.620440673828125,0.1413122584849596,-0.14116130570694804,-0.04678177104964852
1772526327503423000,6.630423095703125,0.10170271715223789,-0.15171046451106668,-0.0786309805791825
1772526327513405700,6.64040576171875,0.01567103186249733,-0.19925883601903915,-0.10449388224072753
1772526327523388000,6.650387939453125,-0.03509469425678253,-0.21315409038066863,-0.09291596491076051
1772526327533371000,6.660370849609375,-0.08629822727143764,-0.18909268518313765,-0.008676862126216291
1772526327543352800,6.670352783203125,-0.1577723948985338,-0.1395233292415738,0.08186243678107857
1772526327553335000,6.6803349609375,-0.25295360132753847,-0.06252484523504973,0.13031133732534944
1772526327563317800,6.69031787109375,-0.2949503300577402,0.00537350973188877,0.1556668009214103
1772526327573300000,6.700300048828125,-0.2715314605474472,0.07640475589707493,0.19545790936611593
1772526327583283000,6.710282958984375,-0.22762334523797034,0.08532119893282651,0.2585537594221532
1772526327593265000,6.720264892578125,-0.14077391382455826,0.09314327086061239,0.30068434366509317
1772526327603246800,6.730246826171875,-0.05253156674802303,0.11289455777406691,0.3055680240534246
1772526327613229800,6.740229736328125,0.028260464322566986,0.10625775010809302,0.28454079892002043
1772526327623211800,6.750211669921875,0.10648410620987414,0.10816650633886456,0.2518859720960259
1772526327633195000,6.760195068359375,0.1422960088253021,0.11806202353984117,0.28335429254919287
1772526327643176700,6.7701767578125,0.17774726143479347,0.18939795174002647,0.26202530799023804
1772526327653159000,6.780158935546875,0.2126063933700323,0.2666448575496673,0.2818670496661216
1772526327663142000,6.790141845703125,0.22067864066660403,0.317791399680078,0.3060832070339471
1772526327673123800,6.800123779296875,0.24427812744081018,0.3499528169639408,0.3164370624616742
1772526327683107300,6.810107421875,0.27389526706933975,0.34716420915871854,0.3061695701431483
1772526327693089300,6.82008935546875,0.26987258742451664,0.3084542470142245,0.29317528320923447
1772526327703071200,6.8300712890625,0.23370120384693144,0.2672746798858046,0.275839971396327
1772526327713054200,6.84005419921875,0.19571897145509717,0.2643679986588657,0.24379122070670126
1772526327723036400,6.850036376953125,0.16885551444888114,0.2729154622517526,0.18397972608357666
1772526327733019400,6.860019287109375,0.12938392028212548,0.26887451629787684,0.09538725039511918
1772526327743001300,6.87000146484375,0.10709726967215537,0.2477158468045294,-0.009205050718784332
1772526327752983300,6.8799833984375,0.04627250635325909,0.18072350076660512,-0.13587167486622928
1772526327762966300,6.88996630859375,-0.028484336206316945,0.04716360997408628,-0.29899522153437136
1772526327772948200,6.8999482421875,-0.14743746336698532,-0.12377645566388965,-0.5151050929807126
1772526327782931200,6.90993115234375,-0.23578853151500223,-0.2860958463422954,-0.6921583077367395
1772526327792913200,6.9199130859375,-0.23739538218975065,-0.3565041383035481,-0.7460493262697011
1772526327802895400,6.929895263671875,-0.1795493424206972,-0.3302725494600832,-0.6619980011422186
1772526327812878300,6.93987841796875,-0.14826806897222994,-0.2532980308510363,-0.4809413959637284
1772526327822860300,6.9498603515625,-0.12932488357126712,-0.1328434130862355,-0.3366702876731753
1772526327832843300,6.95984326171875,-0.0760825382053852,-0.03144654701277613,-0.24568397565074263
1772526327842825200,6.9698251953125,-0.030316227808594703,-0.016974077285081147,-0.20902765810042617
1772526327852807200,6.97980712890625,0.060329673278331754,-0.040984190686792134,-0.18276289763972162
1772526327862790400,6.989790283203125,0.12897475495934485,-0.07979936677142978,-0.16425291602425277
1772526327872772000,6.999772216796875,0.21472762330770492,-0.10774316636025905,-0.16927688166610896
1772526327882755300,7.00975537109375,0.2977174566835165,-0.08658259717077016,-0.1748987401358783
1772526327892737300,7.0197373046875,0.31069851880967614,-0.07009747244641185,-0.14082907807789743
1772526327902720300,7.02972021484375,0.2862409539014101,-0.07842135641649364,-0.08505173434168099
1772526327912702200,7.0397021484375,0.25514322032630443,-0.0715020785473287,-0.05297726468890905
1772526327922684200,7.04968408203125,0.2189893724054098,-0.01027370286360383,-0.018007000529393552
1772526327932667100,7.059667236328125,0.22922376617193221,0.0494144576407969,0.013724866230785846
1772526327942649300,7.0696494140625,0.2162134779512882,0.08453618603497744,0.056106064233928915
1772526327952632000,7.079632080078125,0.20122633669972417,0.11229951449036597,0.0573832445628941
1772526327962614300,7.0896142578125,0.17922142564058302,0.13111132859662175,0.08719159591458737
1772526327972596200,7.09959619140625,0.13471826704740522,0.12969517818838358,0.10466996945999563
1772526327982579200,7.1095791015625,0.05264496399462223,0.13246844229400156,0.09515388003066182
1772526327992561400,7.1195615234375,-0.020901918253302572,0.13795359570682048,0.08917750903479754
1772526328002544400,7.12954443359375,-0.03857961376309395,0.1643849449060857,0.11972827625162899
1772526328012526300,7.1395263671875,-0.03278057209551334,0.1876543229430914,0.1505205240741372
1772526328022508300,7.14950830078125,0.010481646525859832,0.1911392424494028,0.1684946452472359
1772526328032491300,7.1594912109375,0.050933483901619905,0.18156681972295044,0.1750985735569149
1772526328042473200,7.16947314453125,0.08718553149998187,0.1772689763985574,0.17372363194189966
1772526328052456400,7.17945654296875,0.08407178339362144,0.16521087433621287,0.15839571442864833
1772526328062438100,7.189438232421875,0.03438040850758552,0.14682999899312854,0.12250249020531773
1772526328072420400,7.19942041015625,-0.01080021095573902,0.15630802143439648,0.11004114110432564
1772526328082403000,7.209403076171875,-0.03128536510169506,0.1633728452540934,0.11346344370320438
1772526328092385300,7.21938525390625,-0.05313946951329708,0.13994243143647908,0.13059877596460281
1772526328102368300,7.2293681640625,-0.09441782084107399,0.0870716958619654,0.11331680177412927
1772526328112350200,7.23935009765625,-0.1099935756355524,0.09161752259805798,0.058218599408492444
1772526328122332400,7.24933251953125,-0.1429635328233242,0.0816878108665347,0.015668766840174795
1772526328132315400,7.2593154296875,-0.17054127557873724,0.07078589310199022,-0.032991949823871256
1772526328142297300,7.26929736328125,-0.18185586579740046,0.0773063809119165,-0.10477269918210803
1772526328152280300,7.2792802734375,-0.19027005839943884,0.04845949500352144,-0.14041392140574752
1772526328162262300,7.28926220703125,-0.18010463821589945,0.0034662148058414457,-0.18228863119147717
1772526328172244200,7.299244140625,-0.13442892871201037,-0.0011146832436323166,-0.20603936300463974
1772526328182227500,7.3092275390625,-0.06283318053185939,0.013982640384137629,-0.17910561724118887
1772526328192209200,7.319209228515625,-0.012989829954504966,0.0168313078135252,-0.11076843246556818
1772526328202192400,7.3291923828125,0.006582300999760628,0.025629239036142823,-0.07377557643726468
1772526328212174000,7.339174072265625,0.030623101800680157,0.025255437287688254,-0.09477196804098785
1772526328222156300,7.34915625,0.03844517372846603,-0.010203852497786282,-0.13886822633370757
1772526328232139300,7.35913916015625,0.027919688060879706,-0.08281593811362982,-0.21218838715367017
1772526328242121200,7.369121337890625,0.0033078093737363813,-0.13703034338206052,-0.21055559832006693
1772526328252104200,7.379104248046875,0.011761164942383766,-0.1552184726320207,-0.17524397337697445
1772526328262086400,7.38908642578125,0.051821957173943514,-0.14587942027002573,-0.16174955490119755
1772526328272068400,7.399068359375,0.12433189758956431,-0.12224661574810743,-0.17048508841209112
1772526328282051300,7.40905126953125,0.19119652559459208,-0.13387640939578413,-0.2168662427715957
1772526328292033300,7.419033203125,0.25814766283929347,-0.15455167928636074,-0.2263113858565688
1772526328302016300,7.429016357421875,0.303210793402791,-0.1494138780064881,-0.17988405426777898
1772526328311998500,7.43899853515625,0.3121341045707464,-0.12212737328261136,-0.10605630925185978
1772526328321980200,7.448980224609375,0.2850584661185741,-0.05812354153618216,-0.05137121773175895
1772526328331963400,7.45896337890625,0.24514672696888445,0.00011851181313395499,-0.011986863457038997
1772526328341945000,7.468945068359375,0.23806758236289022,0.03815934252440929,0.010795973172038793
1772526328351928300,7.47892822265625,0.23314707709550855,0.04642214395701885,-0.020593071499839424
1772526328361910300,7.48891015625,0.2127624607145786,-0.01996332222893834,-0.1228398324009031
1772526328371892200,7.498892333984375,0.2305132214605808,-0.1183829260572791,-0.192922764865309
1772526328381875200,7.508875244140625,0.3088929306924343,-0.15536343406066297,-0.1542186479397118
1772526328391857400,7.518857421875,0.31332477566003797,-0.146213620660454,-0.04814093057364225
1772526328401840000,7.528840087890625,0.22215865009129046,-0.1100064351171255,0.0017213438998907803
1772526328411822300,7.538822265625,0.09729074592888355,-0.06594575959444046,0.0016623071890324353
1772526328421804300,7.54880419921875,-0.044478608673810954,-0.0374849503941834,0.0032343057461082935
1772526328431787300,7.558787353515625,-0.16503274129033088,-0.04783990180045366,-0.011168459746241569
1772526328441769500,7.56876953125,-0.251706816136837,-0.06258563551157713,-0.0451877798564732
1772526328451752200,7.578752197265625,-0.3060240972578525,-0.06304375454261898,-0.08938209169618785
1772526328461734400,7.588734375,-0.3357973042309284,-0.06941606605350971,-0.17876411032713949
1772526328471716400,7.59871630859375,-0.3396919735819101,-0.11621259628087281,-0.28637451715320345
1772526328481699300,7.60869921875,-0.2911550294280052,-0.14644611424207687,-0.28604104741513725
1772526328491681300,7.618681396484375,-0.22587270217835903,-0.1281027944304049,-0.20722141239605843
1772526328501664500,7.62866455078125,-0.1627618737488985,-0.0714412882708013,-0.08639657307937741
1772526328511646200,7.638646240234375,-0.12869769158363342,0.008667728971689938,0.0078154960565269
1772526328521628400,7.64862841796875,-0.1320446639239788,0.08998612200394272,0.05248867745436728
1772526328531611100,7.658611083984375,-0.15224574043154715,0.14487784201204776,0.0951153015859425
1772526328541593300,7.66859326171875,-0.1382102008163929,0.16808102294504643,0.106915191103518
1772526328551576300,7.678576416015625,-0.10150456423163413,0.17208076010569928,0.10397358469367027
1772526328561558300,7.688558349609375,-0.029450550889968872,0.1878225191168487,0.11846446686089038
1772526328571540500,7.69854052734375,0.030907763960957527,0.16422843917012214,0.14046696676723658
1772526328581523200,7.708523193359375,0.08693535613119602,0.15859072554409503,0.140890964332968
1772526328591505400,7.71850537109375,0.13639116869568824,0.15919278309047222,0.13083674943894147
1772526328601488400,7.72848828125,0.16602233684957027,0.14503770874887703,0.15332337960042058
1772526328611470300,7.73847021484375,0.16321370916962621,0.10680047868266701,0.1496563084602356
1772526328621452300,7.748452392578125,0.17097206821143626,0.09053235770985484,0.16869542851634323
1772526328631435500,7.758435546875,0.17224106523394583,0.08687573489844798,0.1798159574676305
1772526328641417200,7.768417236328125,0.17172727049291134,0.12938728128299115,0.1719768613398075
1772526328651400400,7.778400390625,0.19693010081052778,0.16479396409839392,0.18260193492434917
1772526328661382100,7.788382080078125,0.23119594302773475,0.1528286548860371,0.16286825673282146
1772526328671364400,7.7983642578125,0.2654173615813255,0.1509586232304573,0.17801438793838023
1772526328681346800,7.808346923828125,0.26972236529886723,0.12239318461194634,0.17816490232497453
1772526328691328800,7.818328857421875,0.22601941717267035,0.06399594070091844,0.15412519750259815
1772526328701311700,7.828311767578125,0.12864976078867912,0.04365253311321139,0.1042661378994584
1772526328711294000,7.8382939453125,0.031111177578568457,0.07830985886603593,0.03291859232671559
1772526328721276000,7.84827587890625,-0.05098024565279483,0.08760784856528044,-0.01604834074229002
1772526328731259000,7.8582587890625,-0.16062369267642498,0.05892813591733575,0.007508110607787966
1772526328741241000,7.868240966796875,-0.21690146021544932,0.06264540287479758,0.02572634273506701
1772526328751223800,7.878223876953125,-0.23009002761244773,0.10037366050556301,0.007741261776536702
1772526328761206000,7.8882060546875,-0.23046412162184715,0.10765271159783005,0.012242957109957932
1772526328771187700,7.898187744140625,-0.2400689853131771,0.07386369311213493,0.021820786663889882
1772526328781171000,7.9081708984375,-0.2180225731998682,0.06232435422688722,0.02590213769339025
1772526328791153000,7.91815283203125,-0.14476912094056604,0.05645356249734759,0.00867225901633501
1772526328801135900,7.928135986328125,-0.061870472979545586,0.03399652375653386,-0.006726824036985635
1772526328811117800,7.938117919921875,0.045649406018853186,0.015964023459702728,0.0103349315315485
1772526328821099800,7.948099853515625,0.11886603339910506,-0.021526479892432688,0.018978622040525077
1772526328831082800,7.958082763671875,0.1455699159294367,-0.0537255988381803,0.024420155507326124
1772526328841065000,7.96806494140625,0.15884148543477059,-0.05920680672824383,0.029201763760671018
1772526328851047700,7.978047607421875,0.19787819531559944,-0.03220803290456533,0.0009762246210128069
1772526328861030000,7.98802978515625,0.25746494127213954,-0.012688508920371532,-0.03709522042423487
1772526328871012000,7.99801220703125,0.3059732438534498,-0.010600450599938631,-0.03449753208123147
1772526328880994800,8.007994873046876,0.29742694930434227,-0.03956044149398803,-0.04452135183699429
1772526328890977000,8.01797705078125,0.27922201505005356,-0.09645882514938711,-0.11002134042531252
1772526328900960000,8.0279599609375,0.25057167462706564,-0.0982815105319023,-0.1698543892931193
1772526328910942000,8.03794189453125,0.2190121687591076,-0.10736088904440402,-0.1589394659165293
1772526328920924000,8.047923828125,0.19040742104351518,-0.10796616146117448,-0.1656885748505592
1772526328930907000,8.057906982421875,0.209779645511508,-0.06263385856747627,-0.13001768814101813
1772526328940888800,8.067888916015624,0.2183925755560398,-0.054761956148594616,-0.10203976708687841
1772526328950872000,8.0778720703125,0.1938882488965988,-0.05795388405770063,-0.05373962736353278
1772526328960853800,8.087853759765625,0.16255553752183913,-0.06976444109976292,-0.05556172822415829
1772526328970836000,8.0978359375,0.13132394843399525,-0.06252689106166362,-0.06862995717711746
1772526328980819000,8.10781884765625,0.099309684535861,-0.04842778469100594,-0.04629610642455518
1772526328990801000,8.11780078125,-0.03073591452538967,-0.03711787064746022,0.0197139505777508
1772526329000784000,8.127783935546875,-0.24459727639257905,0.0019392974995076655,0.05408917145356536
1772526329010765800,8.137765869140624,-0.40555180845856664,0.06862929958999156,0.0415537342030555
1772526329020747800,8.147747802734376,-0.4742033198803663,0.1146618597075343,0.006968816099315881
1772526329030731000,8.15773095703125,-0.43086102176010604,0.0717510848723352,-0.03046601154282689
1772526329040713000,8.167712890625,-0.3426274425119161,-0.03376768343672156,-0.0935085970416665
1772526329050696000,8.177696044921875,-0.21107143888771532,-0.07439195476993918,-0.12125826229788363
1772526329060678000,8.187677978515625,-0.10518062239587306,-0.0737669547393918,-0.13546287486962974
1772526329070659800,8.197659912109375,-0.0319067118704319,-0.13488690161257982,-0.15322934464141724
1772526329080642800,8.207642822265624,0.10734101530015468,-0.1802539835587144,-0.10355988932624459
1772526329090624800,8.217624755859376,0.25011925468444823,-0.10880085871964693,-0.0620528438091278
1772526329100608000,8.22760791015625,0.32430151222646236,-0.07591346524879336,0.010776830080151557
1772526329110590000,8.23758984375,0.26209084750711914,-0.0544533285908401,0.03398760979771614
1772526329120572000,8.247572021484375,0.15367898810505867,0.006852350112795829,-0.007720072858035564
1772526329130555000,8.257554931640625,0.11691548385322094,0.04304784521833062,0.003667728727310896
1772526329140536800,8.267536865234375,0.13795534927248954,0.07791793693900108,0.02068140737041831
1772526329150519800,8.277519775390624,0.21356208665966986,0.09913841962218284,0.03839899649918079
1772526329160502000,8.287501953125,0.2845692212969064,0.06212737035006284,0.056911243136972184
1772526329170483700,8.297483642578126,0.31930677267909047,0.00444222023114562,0.059079234825819726
1772526329180467000,8.307467041015625,0.32808336885273454,0.06596417203396558,0.006796820533275604
1772526329190448600,8.31744873046875,0.2803536494284868,0.27050693980529905,-0.021012100629508493
