time,seconds_elapsed,z,y,x
1772526320964948700,0.09194873046875,0.37190595269203186,-0.1796458661556244,1.6148966550827026
1772526320974930400,0.101930419921875,0.23235870897769928,-0.026811040937900543,1.3956100940704346
1772526320984913700,0.11191357421875,0.09151797741651535,0.1592155545949936,1.0825591087341309
1772526320994895600,0.1218955078125,-0.04020942002534866,0.34832823276519775,0.7181270122528076
1772526321004878600,0.131878662109375,-0.13112157583236694,0.5553581714630127,0.3678681254386902
1772526321014860500,0.141860595703125,-0.14099818468093872,0.7533759474754333,0.04122956097126007
1772526321024842500,0.151842529296875,-0.07279711961746216,0.8606087565422058,-0.25645264983177185
1772526321034825500,0.161825439453125,0.036446280777454376,0.898037850856781,-0.5140953660011292
1772526321044807700,0.1718076171875,0.12370561808347702,0.8625891804695129,-0.7115896344184875
1772526321054790700,0.181790771484375,0.17610971629619598,0.7828972935676575,-0.8259050250053406
1772526321064772600,0.191772705078125,0.1912575364112854,0.7161521315574646,-0.8658784627914429
1772526321074754800,0.2017548828125,0.18483559787273407,0.6888531446456909,-0.826926052570343
1772526321084737500,0.211737548828125,0.1685451865196228,0.6606937646865845,-0.7320610284805298
1772526321094719700,0.2217197265625,0.158832386136055,0.6151760816574097,-0.6031051874160767
1772526321104702700,0.23170263671875,0.15847206115722656,0.5400200486183167,-0.4534679651260376
1772526321114684700,0.2416845703125,0.17905297875404358,0.4260660707950592,-0.29566237330436707
1772526321124666600,0.25166650390625,0.20668847858905792,0.2918981909751892,-0.1353786140680313
1772526321134649600,0.261649658203125,0.2357741892337799,0.18394243717193604,0.014799961820244789
1772526321144631600,0.271631591796875,0.24786841869354248,0.09379364550113678,0.1353093385696411
1772526321154614800,0.28161474609375,0.2411354035139084,0.012534743174910545,0.20048168301582336
1772526321164596500,0.291596435546875,0.18007563054561615,-0.07915530353784561,0.1723937839269638
1772526321174578700,0.30157861328125,0.13534331321716309,-0.19746915996074677,0.06699705868959427
1772526321184561700,0.311561767578125,0.14566153287887573,-0.30435067415237427,-0.09769929945468903
1772526321194543600,0.321543701171875,0.16355079412460327,-0.422197163105011,-0.2671535909175873
1772526321204526600,0.331526611328125,0.17225879430770874,-0.5023993253707886,-0.398870587348938
1772526321214508500,0.341508544921875,0.16913330554962158,-0.52544766664505,-0.47291579842567444
1772526321224490800,0.35149072265625,0.17315396666526794,-0.5351797938346863,-0.5111306309700012
1772526321234473700,0.3614736328125,0.1820840686559677,-0.5590840578079224,-0.5310641527175903
1772526321244455700,0.37145556640625,0.18630589544773102,-0.5869081020355225,-0.53648442029953
1772526321254438700,0.381438720703125,0.19053074717521667,-0.6121095418930054,-0.5144914984703064
1772526321264420600,0.391420654296875,0.18794016540050507,-0.596074640750885,-0.4607493579387665
1772526321274403600,0.401403564453125,0.17519187927246094,-0.5369428396224976,-0.3910965025424957
1772526321284385800,0.4113857421875,0.14209893345832825,-0.46155649423599243,-0.31262457370758057
1772526321294367500,0.421367431640625,0.10170890390872955,-0.39265677332878113,-0.23822596669197083
1772526321304350700,0.431350830078125,0.059073206037282944,-0.32795941829681396,-0.1748863160610199
1772526321314332700,0.441332763671875,0.01975882425904274,-0.25681281089782715,-0.12683090567588806
1772526321324315600,0.451315673828125,-0.019848238676786423,-0.19747254252433777,-0.11756923794746399
1772526321334297600,0.461297607421875,-0.051943060010671616,-0.15864577889442444,-0.13825374841690063
1772526321344279600,0.471279541015625,-0.07721724361181259,-0.1348232626914978,-0.19327224791049957
1772526321354262500,0.481262451171875,-0.08578862994909286,-0.09551233798265457,-0.2699989974498749
1772526321364244700,0.49124462890625,-0.08930622786283493,-0.05823306366801262,-0.35049399733543396
1772526321374227500,0.5012275390625,-0.08022777736186981,-0.05632917210459709,-0.41569724678993225
1772526321384209700,0.511209716796875,-0.06823539733886719,-0.0971423089504242,-0.43442264199256897
1772526321394191600,0.521191650390625,-0.05915668606758118,-0.09751089662313461,-0.4051097631454468
1772526321404174600,0.531174560546875,-0.054663654416799545,-0.0508272647857666,-0.3343794047832489
1772526321414156800,0.54115673828125,-0.05564902350306511,0.013317900709807873,-0.24885597825050354
1772526321424139500,0.551139404296875,-0.06086050346493721,0.04724431782960892,-0.1758766919374466
1772526321434121700,0.561121826171875,-0.06102988123893738,0.050668079406023026,-0.11982301622629166
1772526321444103700,0.571103759765625,-0.06232614070177078,0.024884140118956566,-0.07071858644485474
1772526321454086700,0.581086669921875,-0.067876435816288,-0.006065785884857178,-0.03055226057767868
1772526321464068600,0.591068603515625,-0.06939695030450821,-0.033614519983530045,0.006426586303859949
1772526321474051800,0.6010517578125,-0.07322897017002106,-0.07432200014591217,0.03229786455631256
1772526321484033500,0.611033447265625,-0.07820342481136322,-0.14117971062660217,0.034795258194208145
1772526321494015700,0.621015625,-0.09698004275560379,-0.25389668345451355,0.006789192091673613
1772526321503998500,0.63099853515625,-0.13983331620693207,-0.3700847029685974,-0.04789287596940994
1772526321513980700,0.640980712890625,-0.18365776538848877,-0.46436700224876404,-0.11957504600286484
1772526321523963600,0.650963623046875,-0.21472923457622528,-0.5209165215492249,-0.19784927368164062
1772526321533945600,0.660945556640625,-0.22459465265274048,-0.5139496922492981,-0.26673004031181335
1772526321543927600,0.670927490234375,-0.22274239361286163,-0.4595646858215332,-0.31944626569747925
1772526321553910800,0.680910888671875,-0.21469539403915405,-0.3691927194595337,-0.34619665145874023
1772526321563892500,0.690892578125,-0.1889943778514862,-0.24641317129135132,-0.34168702363967896
1772526321573875700,0.700875732421875,-0.17158742249011993,-0.13144265115261078,-0.3138450086116791
1772526321583857700,0.710857666015625,-0.15821366012096405,-0.04639052972197533,-0.2718370258808136
1772526321593839600,0.720839599609375,-0.1454179733991623,0.005609556566923857,-0.22500932216644287
1772526321603822600,0.730822509765625,-0.12900269031524658,0.05051596462726593,-0.18761809170246124
1772526321613804500,0.740804443359375,-0.10909128934144974,0.08647796511650085,-0.15370486676692963
1772526321623787500,0.75078759765625,-0.1029130145907402,0.11071007698774338,-0.1271107941865921
1772526321633769500,0.76076953125,-0.10256174206733704,0.11250051856040955,-0.1132144182920456
1772526321643751700,0.770751708984375,-0.09816834330558777,0.11860765516757965,-0.10609261691570282
1772526321653734700,0.780734619140625,-0.089781254529953,0.1153189167380333,-0.10749290883541107
1772526321663716600,0.790716552734375,-0.07523812353610992,0.11190025508403778,-0.10171273350715637
1772526321673699600,0.800699462890625,-0.06094733625650406,0.1021094098687172,-0.08938069641590118
1772526321683681800,0.810681884765625,-0.05568281561136246,0.0620708242058754,-0.07051096856594086
1772526321693664500,0.82066455078125,-0.0599643774330616,0.010690458118915558,-0.046856239438056946
1772526321703646700,0.830646728515625,-0.06933307647705078,-0.028974004089832306,-0.017380516976118088
1772526321713628400,0.84062841796875,-0.07815506309270859,-0.027454139664769173,0.020799892023205757
1772526321723611600,0.850611572265625,-0.07893148064613342,0.0006300194654613733,0.053818635642528534
1772526321733593600,0.860593505859375,-0.07902442663908005,0.017830578610301018,0.07706376910209656
1772526321743576600,0.87057666015625,-0.0759543776512146,0.03298677131533623,0.08832240849733353
1772526321753558500,0.88055859375,-0.06929833441972733,0.051866184920072556,0.0987074077129364
1772526321763540500,0.89054052734375,-0.06079031154513359,0.06958981603384018,0.1049773246049881
1772526321773523500,0.9005234375,-0.05753539502620697,0.07737503200769424,0.10767217725515366
1772526321783505700,0.910505615234375,-0.04929177835583687,0.07171358168125153,0.1111576110124588
1772526321793488400,0.92048828125,-0.038196783512830734,0.07880131900310516,0.1083114892244339
1772526321803470600,0.930470703125,-0.026230596005916595,0.08343831449747086,0.10672014206647873
1772526321813452800,0.940452880859375,-0.009508075192570686,0.0807112380862236,0.10233151167631149
1772526321823435500,0.950435546875,0.012224141508340836,0.07288529723882675,0.10319653898477554
1772526321833417700,0.960417724609375,0.03381652012467384,0.07393431663513184,0.1214623674750328
1772526321843400700,0.970400634765625,0.05750362202525139,0.06990554183721542,0.13482722640037537
1772526321853382700,0.980382568359375,0.06580762565135956,0.03443223237991333,0.1435762345790863
1772526321863364600,0.990364501953125,0.06835918128490448,0.0038335516583174467,0.14546626806259155
1772526321873347600,1.00034765625,0.07162048667669296,-0.01419205404818058,0.14411312341690063
1772526321883329500,1.01032958984375,0.07244794070720673,-0.024130163714289665,0.13135337829589844
1772526321893312800,1.020312744140625,0.074128657579422,-0.03635140880942345,0.1062440425157547
1772526321903294500,1.03029443359375,0.08463840931653976,-0.044787559658288956,0.07931595295667648
1772526321913276700,1.040276611328125,0.09447053074836731,-0.04934875667095184,0.06418334692716599
1772526321923259600,1.050259765625,0.0953882560133934,-0.0457894429564476,0.06293032318353653
1772526321933241600,1.06024169921875,0.08980360627174377,-0.04176487401127815,0.0655045360326767
1772526321943224600,1.070224609375,0.07995113730430603,-0.015009883791208267,0.0696152001619339
1772526321953206500,1.08020654296875,0.0660981833934784,0.022845087572932243,0.06567718088626862
1772526321963188700,1.090188720703125,0.05844726413488388,0.04104210436344147,0.05427290126681328
1772526321973171700,1.100171630859375,0.05786509811878204,0.04288128390908241,0.034091733396053314
1772526321983153700,1.110153564453125,0.06993790715932846,0.03130699321627617,0.010610723868012428
1772526321993136600,1.12013671875,0.07860410213470459,0.021555831655859947,-0.003236914984881878
1772526322003118600,1.13011865234375,0.07488833367824554,0.014231037348508835,-0.009471148252487183
1772526322013100500,1.1401005859375,0.0603429414331913,-0.011687644757330418,-0.02071315050125122
1772526322023083800,1.150083740234375,0.04022076353430748,-0.04491213336586952,-0.039770156145095825
1772526322033065500,1.1600654296875,0.02300156280398369,-0.08376951515674591,-0.06003548204898834
1772526322043048700,1.170048583984375,0.017471611499786377,-0.10465356707572937,-0.09008320420980453
1772526322053030700,1.18003076171875,0.016192227602005005,-0.10987575352191925,-0.11302606761455536
1772526322063013600,1.190013671875,0.018144354224205017,-0.09665179997682571,-0.13302983343601227
1772526322072995600,1.19999560546875,0.021092208102345467,-0.07989226281642914,-0.14693953096866608
1772526322082977500,1.2099775390625,0.02639640122652054,-0.06950569152832031,-0.1572750210762024
1772526322092960500,1.21996044921875,0.03195042535662651,-0.05723091959953308,-0.15890540182590485
1772526322102942700,1.229942626953125,0.035997629165649414,-0.042572345584630966,-0.1584974080324173
1772526322112924700,1.239924560546875,0.05037017911672592,-0.03123660199344158,-0.13935540616512299
1772526322122907600,1.24990771484375,0.06807461380958557,-0.005546946078538895,-0.11228010803461075
1772526322132889600,1.2598896484375,0.09754142165184021,0.011593691073358059,-0.07688163965940475
1772526322142872600,1.26987255859375,0.12290342897176743,0.017260735854506493,-0.049476269632577896
1772526322152854800,1.279854736328125,0.14932037889957428,0.009294421412050724,-0.024423647671937943
1772526322162837500,1.28983740234375,0.17047840356826782,0.005337221547961235,0.008471973240375519
1772526322172819700,1.29981982421875,0.18634763360023499,0.018686583265662193,0.044929586350917816
1772526322182801700,1.3098017578125,0.19076935946941376,0.027096744626760483,0.08314584940671921
1772526322192784600,1.31978466796875,0.19030196964740753,0.030163373798131943,0.10844960808753967
1772526322202766600,1.3297666015625,0.18802380561828613,0.038525499403476715,0.12739646434783936
1772526322212749800,1.339749755859375,0.18685974180698395,0.05324399471282959,0.14540715515613556
1772526322222731500,1.3497314453125,0.18467579782009125,0.07922866940498352,0.1532413363456726
1772526322232713700,1.359713623046875,0.17947465181350708,0.09310133755207062,0.14923352003097534
1772526322242696400,1.369696533203125,0.1791260689496994,0.08768076449632645,0.13487567007541656
1772526322252678700,1.3796787109375,0.16978183388710022,0.06743808090686798,0.10955139994621277
1772526322262661600,1.38966162109375,0.16498950123786926,0.03202907741069794,0.07787560671567917
1772526322272643600,1.3996435546875,0.160617396235466,0.010746424086391926,0.050073541700839996
1772526322282625800,1.409625732421875,0.15351209044456482,-0.008523397147655487,0.03689516335725784
1772526322292608500,1.4196083984375,0.14266104996204376,0.007504571229219437,0.04083823785185814
1772526322302590700,1.4295908203125,0.13511474430561066,0.06255240738391876,0.0686989277601242
1772526322312573700,1.43957373046875,0.12573376297950745,0.10728472471237183,0.10461405664682388
1772526322322555600,1.4495556640625,0.11218030750751495,0.11612651497125626,0.129618301987648
1772526322332537600,1.45953759765625,0.10130208730697632,0.10752902925014496,0.14422281086444855
1772526322342520800,1.469520751953125,0.09398646652698517,0.09320271760225296,0.14470766484737396
1772526322352502500,1.47950244140625,0.09079332649707794,0.06425521522760391,0.1339615434408188
1772526322362485800,1.48948583984375,0.08829475194215775,0.03080938197672367,0.10753712803125381
1772526322372467500,1.499467529296875,0.08733441680669785,-0.0005999391432851553,0.0773312896490097
1772526322382449700,1.50944970703125,0.0897914469242096,-0.02979005128145218,0.04245372861623764
1772526322392432600,1.5194326171875,0.08955548703670502,-0.06322816759347916,0.01710735820233822
1772526322402414600,1.52941455078125,0.08168560266494751,-0.08786213397979736,0.00004743179306387901
1772526322412397600,1.5393974609375,0.07448840886354446,-0.10748989880084991,-0.006607808172702789
1772526322422379800,1.5493798828125,0.06412939727306366,-0.10452599823474884,-0.013660326600074768
1772526322432361700,1.55936181640625,0.05344053730368614,-0.09350210428237915,-0.01674932800233364
1772526322442344700,1.5693447265625,0.04423636943101883,-0.0917859822511673,-0.02296888828277588
1772526322452326700,1.57932666015625,0.03557496890425682,-0.09082698076963425,-0.02833622321486473
1772526322462309600,1.5893095703125,0.022640999406576157,-0.09310200065374374,-0.026332078501582146
1772526322472291600,1.59929150390625,0.016442758962512016,-0.09463118761777878,-0.026225021108984947
1772526322482274600,1.609274658203125,0.02059309557080269,-0.11003049463033676,-0.023075144737958908
1772526322492256800,1.6192568359375,0.026595596224069595,-0.11287981271743774,-0.01611603982746601
1772526322502238500,1.629238525390625,0.03502767160534859,-0.10846352577209473,-0.009570278227329254
1772526322512221700,1.6392216796875,0.04718313738703728,-0.12960290908813477,-0.003425566479563713
1772526322522203600,1.64920361328125,0.06496884673833847,-0.15303918719291687,-0.011561203747987747
1772526322532186600,1.6591865234375,0.08128763735294342,-0.17462490499019623,-0.007878582924604416
1772526322542168600,1.66916845703125,0.09831824898719788,-0.1968516856431961,-0.005578979849815369
1772526322552150800,1.67915087890625,0.11161008477210999,-0.21283012628555298,-0.0038814805448055267
1772526322562133500,1.689133544921875,0.12489667534828186,-0.21904683113098145,0.004132412374019623
1772526322572115700,1.69911572265625,0.147335946559906,-0.21362783014774323,0.01784209907054901
1772526322582098700,1.7090986328125,0.17719104886054993,-0.20968182384967804,0.0271647609770298
1772526322592080600,1.71908056640625,0.20979292690753937,-0.20841841399669647,0.02897224761545658
1772526322602062600,1.7290625,0.23176829516887665,-0.2112216353416443,0.018889812752604485
1772526322612045600,1.739045654296875,0.24095992743968964,-0.21336041390895844,0.008497625589370728
1772526322622027500,1.749027587890625,0.23876558244228363,-0.20852552354335785,-0.000838693231344223
1772526322632010800,1.7590107421875,0.22609105706214905,-0.1811189353466034,-0.004043541848659515
1772526322641992400,1.768992431640625,0.2166433036327362,-0.14619353413581848,-0.005216232035309076
1772526322651974700,1.778974609375,0.2005775272846222,-0.10595317929983139,-0.008758770301938057
1772526322661957400,1.788957275390625,0.18403582274913788,-0.052595432847738266,-0.005536098498851061
1772526322671939000,1.79893896484375,0.17147237062454224,0.013735387474298477,-0.004654592368751764
1772526322681922000,1.808922119140625,0.16224442422389984,0.07809929549694061,-0.005696857813745737
1772526322691904000,1.818904052734375,0.1571018546819687,0.11485304683446884,-0.013657577335834503
1772526322701886000,1.828885986328125,0.15444864332675934,0.12014784663915634,-0.022756630554795265
1772526322711869000,1.838868896484375,0.1484067291021347,0.11662155389785767,-0.03439117968082428
1772526322721851100,1.84885107421875,0.1379447877407074,0.097812220454216,-0.048818282783031464
1772526322731833900,1.858833740234375,0.13177931308746338,0.05036241188645363,-0.065244659781456
1772526322741816000,1.868816162109375,0.12474632263183594,-0.013913976028561592,-0.07061672955751419
1772526322751798300,1.87879833984375,0.1199909895658493,-0.03791278600692749,-0.0595875047147274
1772526322761781000,1.888781005859375,0.11222095787525177,-0.03222000226378441,-0.04739954322576523
1772526322771763200,1.89876318359375,0.10531377792358398,-0.020392637699842453,-0.027902008965611458
1772526322781746200,1.90874609375,0.10504142194986343,-0.013735629618167877,-0.022177904844284058
1772526322791728000,1.91872802734375,0.1068611592054367,-0.011869286186993122,-0.012153767049312592
1772526322801710000,1.9287099609375,0.10560029000043869,0.01017443835735321,-0.008877850137650967
1772526322811693000,1.938693115234375,0.10998358577489853,0.034089360386133194,-0.003837551921606064
1772526322821675000,1.948675048828125,0.10978849977254868,0.0372532457113266,0.0016219615936279297
1772526322831658200,1.958658203125,0.11404237151145935,0.0380450040102005,0.0031120004132390022
1772526322841640000,1.968639892578125,0.12002159655094147,0.0398392491042614,0.005787219852209091
1772526322851622100,1.9786220703125,0.12572449445724487,0.03864455595612526,0.00797340925782919
1772526322861604900,1.98860498046875,0.13097447156906128,0.03133862838149071,0.008937393315136433
1772526322871587000,1.998587158203125,0.13072839379310608,0.026283415034413338,0.015324186533689499
1772526322881570000,2.008570068359375,0.1278313398361206,0.03178934007883072,0.028545023873448372
1772526322891552000,2.018552001953125,0.12166532874107361,0.030973613262176514,0.040228307247161865
1772526322901535000,2.028534912109375,0.11610063910484314,0.0293703805655241,0.050686001777648926
1772526322911517200,2.03851708984375,0.11091865599155426,0.015547776594758034,0.0578315295279026
1772526322921499100,2.0484990234375,0.10694941133260727,-0.0060018859803676605,0.0559634268283844
1772526322931482000,2.058482177734375,0.10654354840517044,-0.02869015373289585,0.04718618094921112
1772526322941464000,2.068464111328125,0.1033608615398407,-0.04439307376742363,0.03484337031841278
1772526322951447000,2.078447021484375,0.09436576068401337,-0.06027643010020256,0.018332572653889656
1772526322961429000,2.088428955078125,0.08440849930047989,-0.06326260417699814,0.009366801008582115
1772526322971411000,2.098410888671875,0.06533999741077423,-0.059391431510448456,0.012175104580819607
1772526322981394200,2.108394287109375,0.05082758888602257,-0.04829063639044762,0.016827069222927094
1772526322991376000,2.1183759765625,0.03812937065958977,-0.04242608696222305,0.028673609718680382
1772526323001359000,2.128359130859375,0.030561748892068863,-0.03418678045272827,0.0437292717397213
1772526323011341000,2.138341064453125,0.026968080550432205,-0.025585569441318512,0.051102496683597565
1772526323021323000,2.148322998046875,0.02936572954058647,-0.013792285695672035,0.06077883392572403
1772526323031306000,2.158305908203125,0.02892124652862549,-0.008636405691504478,0.057499684393405914
1772526323041288200,2.1682880859375,0.02730826660990715,-0.0003191668074578047,0.056629013270139694
1772526323051271000,2.17827099609375,0.024202488362789154,0.003534693503752351,0.045510049909353256
1772526323061253000,2.188253173828125,0.024470854550600052,0.018920669332146645,0.040763597935438156
1772526323071234800,2.19823486328125,0.020816197618842125,0.04542018845677376,0.04190609231591225
1772526323081218000,2.208218017578125,0.01643385924398899,0.06301868706941605,0.04276130348443985
1772526323091200000,2.218199951171875,0.004087178502231836,0.0678805559873581,0.04088696837425232
1772526323101183000,2.228182861328125,-0.006292399484664202,0.05051372945308685,0.03147554025053978
1772526323111165000,2.2381650390625,-0.013919958844780922,0.025492003187537193,0.015394574031233788
1772526323121147000,2.24814697265625,-0.012372639030218124,-0.013587996363639832,-0.008909141644835472
1772526323131129900,2.2581298828125,-0.004508590325713158,-0.051759082823991776,-0.03183309733867645
1772526323141112000,2.268112060546875,-0.0031050466932356358,-0.060913823544979095,-0.05347699671983719
1772526323151095000,2.278094970703125,-0.0011042137630283833,-0.03429313004016876,-0.0701523870229721
1772526323161077000,2.288076904296875,-0.011186573654413223,0.002583854366093874,-0.08983907103538513
1772526323171059200,2.29805908203125,-0.02795090526342392,0.0260151457041502,-0.11862172186374664
1772526323181042000,2.3080419921875,-0.04332471266388893,0.02404910884797573,-0.15414731204509735
1772526323191024000,2.318024169921875,-0.05576353892683983,-0.003439508145675063,-0.19327287375926971
1772526323201007000,2.328007080078125,-0.05861968174576759,-0.03824364021420479,-0.21740145981311798
1772526323210989000,2.337989013671875,-0.05168614536523819,-0.0670396015048027,-0.22452595829963684
1772526323220972000,2.347971923828125,-0.04417503625154495,-0.08433938771486282,-0.21274055540561676
1772526323230954000,2.3579541015625,-0.024798143655061722,-0.09180077165365219,-0.18315443396568298
1772526323240936000,2.36793603515625,-0.004891558084636927,-0.08354710787534714,-0.13611531257629395
1772526323250919200,2.377919189453125,0.02127426490187645,-0.07388302683830261,-0.08280546963214874
1772526323260900900,2.38790087890625,0.05147084966301918,-0.07067350298166275,-0.03413871303200722
1772526323270884000,2.397884033203125,0.08632577210664749,-0.06570777297019958,0.013459164649248123
1772526323280866000,2.407865966796875,0.12113027274608612,-0.048143863677978516,0.05532468482851982
1772526323290848000,2.417847900390625,0.1462460160255432,-0.03768749162554741,0.0819307267665863
1772526323300831000,2.4278310546875,0.1549035906791687,-0.03827276453375816,0.09842031449079514
1772526323310813000,2.43781298828125,0.1568508893251419,-0.05373534560203552,0.09851405769586563
1772526323320796000,2.4477958984375,0.15038207173347473,-0.09759548306465149,0.09011977910995483
1772526323330778000,2.457778076171875,0.1385882943868637,-0.13828828930854797,0.08751016110181808
1772526323340760000,2.467760009765625,0.12600421905517578,-0.15706242620944977,0.08780266344547272
1772526323350743000,2.477742919921875,0.11387326568365097,-0.15589702129364014,0.08803355693817139
1772526323360725000,2.48772509765625,0.10356183350086212,-0.14206922054290771,0.0924321785569191
1772526323370708000,2.4977080078125,0.08711574971675873,-0.12555523216724396,0.09239569306373596
1772526323380690200,2.507690185546875,0.05762984976172447,-0.11621960252523422,0.08819714188575745
1772526323390672000,2.517671875,0.0215847659856081,-0.1009993702173233,0.07305493950843811
1772526323400655000,2.527655029296875,-0.007000960409641266,-0.08070720732212067,0.044083673506975174
1772526323410637000,2.537636962890625,-0.0329020656645298,-0.04426184669137001,0.005805792286992073
1772526323420620000,2.5476201171875,-0.046532683074474335,0.008861529640853405,-0.048768263310194016
1772526323430602000,2.55760205078125,-0.050989750772714615,0.06627395749092102,-0.10176730155944824
1772526323440584000,2.567583984375,-0.05304715782403946,0.11780555546283722,-0.15496262907981873
1772526323450567000,2.57756689453125,-0.05305754393339157,0.1616414487361908,-0.19058534502983093
1772526323460549000,2.587549072265625,-0.04685463756322861,0.18944570422172546,-0.21106980741024017
1772526323470531800,2.59753173828125,-0.03681665286421776,0.20501002669334412,-0.22114400565624237
1772526323480514000,2.60751416015625,-0.0238296240568161,0.20326080918312073,-0.21595434844493866
1772526323490496000,2.61749609375,-0.007162231486290693,0.19120654463768005,-0.2109217792749405
1772526323500479000,2.62747900390625,0.009197168983519077,0.1674538552761078,-0.19762617349624634
1772526323510461200,2.637461181640625,0.02676284685730934,0.11752224713563919,-0.18877461552619934
1772526323520444000,2.64744384765625,0.04770037531852722,0.05800248309969902,-0.18541155755519867
1772526323530426000,2.657426025390625,0.07332637906074524,0.00796248484402895,-0.1846645325422287
1772526323540409000,2.6674091796875,0.09531830251216888,-0.014103236608207226,-0.18392109870910645
1772526323550391000,2.67739111328125,0.11453701555728912,-0.0015879767015576363,-0.18590247631072998
1772526323560373000,2.687373046875,0.12985175848007202,0.036372698843479156,-0.18978911638259888
1772526323570356200,2.697356201171875,0.14741051197052002,0.08776478469371796,-0.2038961499929428
1772526323580338000,2.707337890625,0.16186343133449554,0.12133404612541199,-0.2198592722415924
1772526323590321200,2.717321044921875,0.16923905909061432,0.1326412856578827,-0.23873737454414368
1772526323600302800,2.727302734375,0.17037054896354675,0.12569187581539154,-0.23876336216926575
1772526323610285000,2.73728515625,0.16640803217887878,0.10909159481525421,-0.21529053151607513
1772526323620268000,2.74726806640625,0.15529686212539673,0.08025289326906204,-0.18185201287269592
1772526323630250000,2.75725,0.13227036595344543,0.0432400144636631,-0.13687947392463684
1772526323640233000,2.76723291015625,0.11040610074996948,0.004680142737925053,-0.0959881991147995
1772526323650215200,2.777215087890625,0.07743270695209503,-0.04512256756424904,-0.07131800055503845
1772526323660197000,2.787197021484375,0.04464491829276085,-0.11515147238969803,-0.05355127900838852
1772526323670180000,2.79718017578125,0.03230968862771988,-0.15232200920581818,-0.04082083702087402
1772526323680162600,2.80716259765625,0.024708222597837448,-0.1581607311964035,-0.03089257888495922
1772526323690145800,2.817145751953125,0.02629919722676277,-0.13143058121204376,-0.022119591012597084
1772526323700127500,2.82712744140625,0.027048900723457336,-0.07393450289964676,-0.019960274919867516
1772526323710109700,2.837109619140625,0.03761419281363487,-0.026452478021383286,-0.01541345939040184
1772526323720092700,2.8470927734375,0.05151207000017166,0.02155614271759987,-0.012708140537142754
1772526323730074600,2.85707470703125,0.05891326069831848,0.05930006131529808,-0.0155156459659338
1772526323740057600,2.8670576171875,0.06630982458591461,0.07429320365190506,-0.01821788027882576
1772526323750039600,2.87703955078125,0.07363990694284439,0.06381765753030777,-0.02452930435538292
1772526323760021800,2.887021728515625,0.07420602440834045,0.04737727344036102,-0.026029620319604874
1772526323770004700,2.897004638671875,0.07374264299869537,0.039023201912641525,-0.026589415967464447
1772526323779986700,2.906986572265625,0.06842874735593796,0.050215497612953186,-0.01763284206390381
1772526323789969700,2.9169697265625,0.06335382908582687,0.0807260051369667,-0.0019862372428178787
1772526323799951600,2.92695166015625,0.05507134273648262,0.1338120549917221,0.011896763928234577
1772526323809934600,2.9369345703125,0.04889201000332832,0.19976204633712769,0.02427273988723755
1772526323819916800,2.946916748046875,0.0471528135240078,0.27540749311447144,0.028217347338795662
1772526323829898500,2.9568984375,0.04300840198993683,0.3476603925228119,0.02845090813934803
1772526323839881700,2.9668818359375,0.03575154393911362,0.40174198150634766,0.016073323786258698
1772526323849863700,2.97686376953125,0.026939675211906433,0.426896333694458,-0.003927549812942743
1772526323859846700,2.9868466796875,0.008212241344153881,0.42081350088119507,-0.024695854634046555
1772526323869828600,2.99682861328125,-0.004678257275372744,0.404192179441452,-0.05212614685297012
1772526323879810600,3.006810546875,-0.026773527264595032,0.372712105512619,-0.07190509140491486
1772526323889793500,3.01679345703125,-0.03223434090614319,0.30644145607948303,-0.08011215180158615
1772526323899775700,3.026775634765625,-0.01866763085126877,0.22492241859436035,-0.06928849965333939
1772526323909758500,3.036758544921875,0.007067827042192221,0.1620529145002365,-0.04175007715821266
1772526323919740700,3.04674072265625,0.041099533438682556,0.1176779493689537,-0.0035017901100218296
1772526323929722600,3.05672265625,0.07295253872871399,0.08064216375350952,0.032341960817575455
1772526323939705600,3.06670556640625,0.09397349506616592,0.04764551669359207,0.05509725585579872
1772526323949687800,3.076687744140625,0.10541682690382004,0.017646342515945435,0.06390539556741714
1772526323959670500,3.08667041015625,0.11251001060009003,-0.019171128049492836,0.060965199023485184
1772526323969652700,3.09665283203125,0.11274969577789307,-0.06566325575113297,0.04927844926714897
1772526323979634700,3.106634765625,0.109820656478405,-0.09897718578577042,0.04346459358930588
1772526323989617700,3.11661767578125,0.10732661187648773,-0.12417415529489517,0.04672297090291977
1772526323999599600,3.126599609375,0.10587357729673386,-0.1319013237953186,0.06006193906068802
1772526324009582800,3.136582763671875,0.09896080940961838,-0.11806034296751022,0.0772438496351242
1772526324019564500,3.146564453125,0.09332987666130066,-0.09528830647468567,0.09487172961235046
1772526324029546800,3.156546630859375,0.0867404192686081,-0.07398302108049393,0.1110008955001831
1772526324039529500,3.166529541015625,0.07595205307006836,-0.06784638017416,0.11741556972265244
1772526324049511700,3.17651171875,0.06559715420007706,-0.05709705874323845,0.12610973417758942
1772526324059494700,3.18649462890625,0.051906198263168335,-0.04098554700613022,0.13497744500637054
1772526324069476600,3.1964765625,0.03630087524652481,-0.01949996128678322,0.14143960177898407
1772526324079458800,3.206458740234375,0.022927556186914444,0.005104195326566696,0.13878150284290314
1772526324089441800,3.21644189453125,0.014344453811645508,0.043971698731184006,0.1323198825120926
1772526324099423700,3.226423828125,0.00420047901570797,0.08454176783561707,0.11348148435354233
1772526324109406700,3.23640673828125,-0.01245919056236744,0.11647839844226837,0.08871088922023773
1772526324119388700,3.246388671875,-0.04500240087509155,0.12850886583328247,0.051151175051927567
1772526324129371600,3.25637158203125,-0.08974536508321762,0.13150492310523987,0.0041479794308543205
1772526324139353900,3.266353759765625,-0.13679446280002594,0.13364166021347046,-0.04688422381877899
1772526324149335600,3.27633544921875,-0.18642805516719818,0.15527930855751038,-0.08272743970155716
1772526324159318800,3.28631884765625,-0.23118259012699127,0.20292574167251587,-0.11663180589675903
1772526324169300500,3.296300537109375,-0.27283069491386414,0.26371079683303833,-0.1403999775648117
1772526324179283700,3.30628369140625,-0.3153741955757141,0.34194669127464294,-0.1586437225341797
1772526324189265700,3.316265625,-0.36479368805885315,0.4278397560119629,-0.18637415766716003
1772526324199247600,3.32624755859375,-0.4138956665992737,0.5025039315223694,-0.2125636488199234
1772526324209230600,3.336230712890625,-0.4729589819908142,0.5351385474205017,-0.24013082683086395
1772526324219212800,3.346212890625,-0.5255456566810608,0.5136611461639404,-0.2519572079181671
1772526324229195500,3.356195556640625,-0.5587981343269348,0.44662779569625854,-0.23267407715320587
1772526324239177700,3.366177734375,-0.5792675614356995,0.340655118227005,-0.1833983212709427
1772526324249159700,3.37615966796875,-0.5611719489097595,0.1989176869392395,-0.10289681702852249
1772526324259142700,3.386142578125,-0.5149082541465759,0.04836415871977806,0.006525582633912563
1772526324269124900,3.396124755859375,-0.4384404122829437,-0.0993717759847641,0.12765653431415558
1772526324279107600,3.406107666015625,-0.3508767783641815,-0.2577923536300659,0.25064340233802795
1772526324289089800,3.41608984375,-0.26223453879356384,-0.4066619873046875,0.35221582651138306
1772526324299071500,3.426071533203125,-0.16546808183193207,-0.5186043381690979,0.4304924011230469
1772526324309054700,3.4360546875,-0.06025085225701332,-0.5926804542541504,0.4738049805164337
1772526324319036700,3.44603662109375,0.03126058727502823,-0.6239746809005737,0.4738617539405823
1772526324329019600,3.45601953125,0.1106392964720726,-0.6163164973258972,0.4411570727825165
1772526324339001600,3.466001708984375,0.17166732251644135,-0.5903414487838745,0.37754154205322266
1772526324348983800,3.47598388671875,0.2118874490261078,-0.5354499816894531,0.30564042925834656
1772526324358966500,3.485966552734375,0.22857524454593658,-0.45953649282455444,0.23133538663387299
1772526324368948700,3.49594873046875,0.2244872897863388,-0.3600064218044281,0.16946056485176086
1772526324378931700,3.505931640625,0.20941832661628723,-0.24378551542758942,0.1172056496143341
1772526324388913700,3.51591357421875,0.1845364272594452,-0.12085799127817154,0.08136136084794998
1772526324398896600,3.525896728515625,0.162886843085289,-0.010504191741347313,0.06284187734127045
1772526324408878600,3.535878662109375,0.1561381220817566,0.08938512206077576,0.0656650960445404
1772526324418860800,3.54586083984375,0.16202738881111145,0.16751547157764435,0.0810638889670372
1772526324428843800,3.55584375,0.17160731554031372,0.2268536388874054,0.10785182565450668
1772526324438825700,3.56582568359375,0.1894754320383072,0.2633797526359558,0.14233477413654327
1772526324448808700,3.57580859375,0.2056775689125061,0.27056923508644104,0.17745441198349
1772526324458790700,3.585790771484375,0.2223852425813675,0.2656633257865906,0.21980416774749756
1772526324468772600,3.595772705078125,0.22837762534618378,0.25754493474960327,0.25742799043655396
1772526324478755800,3.605755859375,0.2299521565437317,0.22961732745170593,0.28697508573532104
1772526324488737500,3.615737548828125,0.22994576394557953,0.20593437552452087,0.3017258048057556
1772526324498720800,3.625720703125,0.23109334707260132,0.18600010871887207,0.30815020203590393
1772526324508702700,3.63570263671875,0.22724401950836182,0.16648685932159424,0.3072633743286133
1772526324518684700,3.6456845703125,0.21930637955665588,0.12818163633346558,0.29871097207069397
1772526324528667600,3.655667724609375,0.20489440858364105,0.09834065288305283,0.2860031723976135
1772526324538649600,3.665649658203125,0.1880529671907425,0.06945408135652542,0.27461543679237366
1772526324548632600,3.675632568359375,0.1691056489944458,0.04691174998879433,0.256693959236145
1772526324558614800,3.68561474609375,0.14742465317249298,0.033704765141010284,0.23938703536987305
1772526324568596500,3.695596435546875,0.12327243387699127,0.014938268810510635,0.21409578621387482
1772526324578579700,3.705579833984375,0.09620371460914612,-0.011314287781715393,0.1894288808107376
1772526324588561700,3.715561767578125,0.07357323914766312,-0.024675101041793823,0.161066472530365
1772526324598544600,3.725544677734375,0.05219433456659317,-0.03176863491535187,0.13424132764339447
1772526324608526600,3.735526611328125,0.03047545626759529,-0.02330803871154785,0.10179682821035385
1772526324618508500,3.745508544921875,0.015712853521108627,-0.013401158154010773,0.06814131885766983
1772526324628491500,3.755491455078125,-0.003568964311853051,-0.012045342475175858,0.0314277783036232
1772526324638473700,3.7654736328125,-0.025917157530784607,-0.021793058142066002,-0.012288819998502731
1772526324648456400,3.77545654296875,-0.04831087589263916,-0.042880766093730927,-0.06024356186389923
1772526324658438700,3.785438720703125,-0.06902868300676346,-0.07073797285556793,-0.1029883623123169
1772526324668421600,3.795421630859375,-0.08774351328611374,-0.08842961490154266,-0.14242205023765564
1772526324678402800,3.80540283203125,-0.09768816828727722,-0.09222813695669174,-0.1783263236284256
1772526324688385000,3.815385009765625,-0.09947914630174637,-0.08240373432636261,-0.21733364462852478
1772526324698368000,3.825367919921875,-0.08997485041618347,-0.0647570937871933,-0.25305622816085815
1772526324708350000,3.835349853515625,-0.09188753366470337,-0.0346311554312706,-0.285275399684906
1772526324718333000,3.8453330078125,-0.0962006002664566,-0.011108677834272385,-0.30822908878326416
1772526324728315000,3.85531494140625,-0.10221374779939651,0.012252571061253548,-0.32553830742836
1772526324738297000,3.865297119140625,-0.11251592636108398,0.04137023910880089,-0.3344383239746094
1772526324748280000,3.875280029296875,-0.12487858533859253,0.054702822118997574,-0.3352934718132019
1772526324758262000,3.885261962890625,-0.13887068629264832,0.05036832392215729,-0.3317636549472809
1772526324768245000,3.895244873046875,-0.1407090574502945,0.042586565017700195,-0.3163902759552002
1772526324778227200,3.905227294921875,-0.13918814063072205,0.030467845499515533,-0.28844279050827026
1772526324788209000,3.915208984375,-0.13408046960830688,0.004400826059281826,-0.24972178041934967
1772526324798192000,3.925192138671875,-0.11858367174863815,-0.019550902768969536,-0.1968274712562561
1772526324808173800,3.935173828125,-0.10149310529232025,-0.033873382955789566,-0.13909518718719482
1772526324818157000,3.945156982421875,-0.08229419589042664,-0.034487415105104446,-0.0794413685798645
1772526324828139000,3.955138916015625,-0.056363530457019806,-0.02296045795083046,-0.0225535798817873
1772526324838121000,3.965120849609375,-0.031065452843904495,-0.016133353114128113,0.0299035906791687
1772526324848104000,3.97510400390625,-0.007231759373098612,0.003168970812112093,0.0675622895359993
1772526324858086100,3.985086181640625,0.013282028958201408,0.026483871042728424,0.09678753465414047
1772526324868068900,3.99506884765625,0.027201306074857712,0.03397667407989502,0.11280644685029984
1772526324878051000,4.005051025390625,0.0376618430018425,0.030606262385845184,0.11861356347799301
1772526324888033000,4.015032958984375,0.04183688387274742,0.021038057282567024,0.11761487275362015
1772526324898016000,4.02501611328125,0.048478975892066956,0.012900056317448616,0.11984030157327652
1772526324907998200,4.034998291015625,0.05485086143016815,0.01277595292776823,0.1204989030957222
1772526324917981000,4.04498095703125,0.05800790339708328,0.008229618892073631,0.11931721866130829
1772526324927963100,4.054963134765625,0.0633198469877243,-0.006460643373429775,0.12070872634649277
1772526324937944800,4.06494482421875,0.0756823867559433,-0.013550978153944016,0.12406941503286362
1772526324947928000,4.074927978515625,0.08819551765918732,-0.005391051527112722,0.13313135504722595
1772526324957910000,4.084909912109375,0.10322336852550507,0.005321328062564135,0.14382855594158173
1772526324967893000,4.09489306640625,0.1120232492685318,0.01094033196568489,0.15948739647865295
1772526324977875000,4.104875,0.12770727276802063,0.015499606728553772,0.16482646763324738
1772526324987857200,4.114857177734375,0.13989070057868958,0.011507261544466019,0.16732823848724365
1772526324997840000,4.12483984375,0.1543848216533661,0.004895483609288931,0.16707049310207367
1772526325007822000,4.134822021484375,0.16008079051971436,0.006736793089658022,0.16338759660720825
1772526325017805000,4.14480517578125,0.1558503657579422,0.01380749512463808,0.14862224459648132
1772526325027787000,4.154787109375,0.14576178789138794,0.01587703824043274,0.11979379504919052
1772526325037770000,4.16477001953125,0.13997521996498108,0.02598864771425724,0.08855053782463074
1772526325047752000,4.174751953125,0.13379348814487457,0.03614514693617821,0.05324447900056839
1772526325057734000,4.18473388671875,0.12298863381147385,0.05234626680612564,0.024177422747015953
1772526325067717000,4.194717041015625,0.11189869791269302,0.07288403064012527,-0.00011832965537905693
1772526325077699000,4.204698974609375,0.09473517537117004,0.07940080761909485,-0.02670517936348915
1772526325087682000,4.21468212890625,0.07500302046537399,0.08351485431194305,-0.057190652936697006
1772526325097664000,4.2246640625,0.05754172056913376,0.07751686871051788,-0.08293304592370987
1772526325107646000,4.23464599609375,0.038809046149253845,0.07034417241811752,-0.1199861466884613
1772526325117629000,4.24462890625,0.021494479849934578,0.06189500540494919,-0.1540416032075882
1772526325127611000,4.25461083984375,0.017522374168038368,0.046767719089984894,-0.18044205009937286
1772526325137594000,4.264593994140625,0.012635938823223114,0.028646087273955345,-0.19239367544651031
1772526325147576000,4.274576171875,0.007287513930350542,0.017209142446517944,-0.18187205493450165
1772526325157558000,4.28455810546875,0.0031068683601915836,0.012285471893846989,-0.1601039320230484
1772526325167541000,4.294541015625,-0.0006548464298248291,0.009892354719340801,-0.12702719867229462
1772526325177523000,4.30452294921875,-0.0016071726568043232,0.013441572897136211,-0.09643039107322693
1772526325187506000,4.314505859375,0.006583112291991711,0.01216778252273798,-0.07337567210197449
1772526325197488000,4.324488037109375,0.015332830138504505,0.010337738320231438,-0.06511233001947403
1772526325207469800,4.3344697265625,0.028174862265586853,0.016146358102560043,-0.061915744096040726
1772526325217453000,4.344453125,0.03933120518922806,0.044838644564151764,-0.06258746981620789
1772526325227435000,4.35443505859375,0.04666794836521149,0.08226405084133148,-0.0536043606698513
1772526325237418000,4.36441796875,0.049984417855739594,0.11376953125,-0.04868945851922035
1772526325247400000,4.37439990234375,0.03986387327313423,0.12834422290325165,-0.03867437317967415
1772526325257382000,4.3843818359375,0.02792230062186718,0.11729943007230759,-0.031368665397167206
1772526325267364900,4.39436474609375,0.016703467816114426,0.09386174380779266,-0.01976899988949299
1772526325277347000,4.40434716796875,0.01060066930949688,0.06291227787733078,-0.009892743080854416
1772526325287329800,4.414329833984375,0.0007195435464382172,0.0396927110850811,-0.0014356090687215328
1772526325297312000,4.42431201171875,-0.010578548535704613,0.03442063927650452,0.0030227149836719036
1772526325307294000,4.4342939453125,-0.010592130944132805,0.043615467846393585,0.004972947761416435
1772526325317277000,4.44427685546875,-0.013726507313549519,0.05291184410452843,0.002179099712520838
1772526325327259100,4.454259033203125,-0.01881634071469307,0.04938448593020439,-0.005046056117862463
1772526325337241900,4.464241943359375,-0.02325955405831337,0.03742556273937225,-0.01531599834561348
1772526325347224000,4.47422412109375,-0.027858300134539604,0.029243800789117813,-0.016749845817685127
1772526325357207000,4.48420703125,-0.028359167277812958,0.019300516694784164,-0.02076306939125061
1772526325367189000,4.49418896484375,-0.03198692575097084,0.011711573228240013,-0.01931883580982685
1772526325377171000,4.5041708984375,-0.03367074206471443,-0.0029302954208105803,-0.024156277999281883
1772526325387154200,4.514154296875,-0.031584955751895905,-0.01985148712992668,-0.0276868287473917
1772526325397136000,4.524135986328125,-0.029891008511185646,-0.040413402020931244,-0.03235047310590744
1772526325407119000,4.534119140625,-0.02852454036474228,-0.04828570783138275,-0.035990212112665176
1772526325417100800,4.544100830078125,-0.022098807618021965,-0.05678504705429077,-0.04035072773694992
1772526325427083000,4.5540830078125,-0.016632404178380966,-0.0572524331510067,-0.036644406616687775
1772526325437066000,4.56406591796875,-0.01719927042722702,-0.051638003438711166,-0.03205716982483864
1772526325447048000,4.5740478515625,-0.013543814420700073,-0.05011014640331268,-0.02357872761785984
1772526325457031000,4.584031005859375,-0.011094428598880768,-0.06248648837208748,-0.01618296466767788
1772526325467012900,4.594012939453125,-0.008893325924873352,-0.08778146654367447,-0.016979249194264412
1772526325476995000,4.6039951171875,-0.010912529192864895,-0.12010370939970016,-0.024148739874362946
1772526325486978000,4.61397802734375,-0.014009784907102585,-0.1474602371454239,-0.02982579916715622
1772526325496960000,4.6239599609375,-0.016555506736040115,-0.16523897647857666,-0.03321680799126625
1772526325506943000,4.63394287109375,-0.018650349229574203,-0.17730335891246796,-0.03225620836019516
1772526325516925200,4.64392529296875,-0.020035739988088608,-0.18086375296115875,-0.020246431231498718
1772526325526907000,4.653906982421875,-0.02347574569284916,-0.174846351146698,-0.007351404521614313
1772526325536890000,4.66389013671875,-0.022303054109215736,-0.17333294451236725,0.010715937241911888
1772526325546871800,4.673871826171875,-0.029993463307619095,-0.16093991696834564,0.021527839824557304
1772526325556855000,4.68385498046875,-0.024998951703310013,-0.13469845056533813,0.03405563533306122
1772526325566837000,4.6938369140625,-0.019004708155989647,-0.11173133552074432,0.045948512852191925
1772526325576819000,4.70381884765625,-0.006958809681236744,-0.07628939300775528,0.06404316425323486
1772526325586802000,4.713802001953125,0.0029249796643853188,-0.040167611092329025,0.07549901306629181
1772526325596783900,4.723783935546875,0.008224070072174072,0.003159202868118882,0.08833609521389008
1772526325606766800,4.733766845703125,-0.0064629968255758286,0.026435231789946556,0.10969837754964828
1772526325616749000,4.7437490234375,-0.016578059643507004,0.04027653858065605,0.11802134662866592
1772526325626731000,4.75373095703125,-0.022792279720306396,0.05788403004407883,0.12280865013599396
1772526325636714000,4.7637138671875,-0.02257985807955265,0.08148370683193207,0.12357544898986816
1772526325646696200,4.7736962890625,-0.023131931200623512,0.08487364649772644,0.12463831901550293
1772526325656679000,4.783678955078125,-0.031212015077471733,0.08725783973932266,0.12292230874300003
1772526325666661000,4.7936611328125,-0.043263617902994156,0.08516992628574371,0.12029164284467697
1772526325676643000,4.80364306640625,-0.07013241946697235,0.07179251313209534,0.1140323281288147
1772526325686626000,4.8136259765625,-0.0942113921046257,0.0413840115070343,0.09911409765481949
1772526325696608000,4.82360791015625,-0.12055489420890808,0.022786835208535194,0.07666413486003876
1772526325706591200,4.83359130859375,-0.13545581698417664,0.015740111470222473,0.06204364448785782
1772526325716573000,4.843572998046875,-0.14465060830116272,0.021104024723172188,0.04441355541348457
1772526325726556200,4.85355615234375,-0.14917105436325073,0.03621852770447731,0.025161294266581535
1772526325736537900,4.863537841796875,-0.1477169245481491,0.05996660143136978,0.0014611673541367054
1772526325746520000,4.87352001953125,-0.1413453072309494,0.06978700309991837,-0.029963068664073944
1772526325756503000,4.8835029296875,-0.1351199746131897,0.05171675235033035,-0.06551085412502289
1772526325766485000,4.893485107421875,-0.12061428278684616,0.03658174350857735,-0.10125046968460083
1772526325776467200,4.90346728515625,-0.10882994532585144,0.039270415902137756,-0.1358623057603836
1772526325786450200,4.9134501953125,-0.09807849675416946,0.038721803575754166,-0.176682710647583
1772526325796432100,4.92343212890625,-0.09252607077360153,0.017185088247060776,-0.22198760509490967
1772526325806415000,4.9334150390625,-0.09798715263605118,-0.0035843730438500643,-0.2596479058265686
1772526325816397000,4.94339697265625,-0.11587990075349808,-0.043182965368032455,-0.2885674834251404
1772526325826379000,4.95337890625,-0.13498622179031372,-0.07891007512807846,-0.29644137620925903
1772526325836362200,4.9633623046875,-0.1480732560157776,-0.09133903682231903,-0.2784874141216278
1772526325846344000,4.973343994140625,-0.15764892101287842,-0.09148737788200378,-0.24949701130390167
1772526325856327200,4.9833271484375,-0.1611422598361969,-0.09450143575668335,-0.21350669860839844
1772526325866308900,4.993308837890625,-0.16135399043560028,-0.0997859463095665,-0.17666852474212646
1772526325876292000,5.0032919921875,-0.16139860451221466,-0.1098301038146019,-0.14453034102916718
1772526325886274000,5.013274169921875,-0.15536148846149445,-0.10019931197166443,-0.10910870134830475
1772526325896256000,5.023256103515625,-0.1535157561302185,-0.0909399762749672,-0.08684861660003662
1772526325906239000,5.033239013671875,-0.15102356672286987,-0.10117290914058685,-0.07507451623678207
1772526325916221200,5.04322119140625,-0.1445404440164566,-0.11633630841970444,-0.07522355020046234
1772526325926204000,5.053203857421875,-0.1358548104763031,-0.12137794494628906,-0.08351104706525803
1772526325936186000,5.06318603515625,-0.13340073823928833,-0.11265400797128677,-0.09564816951751709
1772526325946168000,5.07316796875,-0.1338241845369339,-0.09109598398208618,-0.10968702286481857
1772526325956151000,5.083151123046875,-0.1309463381767273,-0.061289820820093155,-0.120961993932724
1772526325966133000,5.093133056640625,-0.11821002513170242,-0.026999760419130325,-0.13078878819942474
1772526325976116000,5.103115966796875,-0.10485058277845383,-0.007966452278196812,-0.1310490220785141
1772526325986098200,5.11309814453125,-0.09153743833303452,-0.010903386399149895,-0.12219400703907013
1772526325996079900,5.123079833984375,-0.07863479852676392,-0.014877294190227985,-0.10367138683795929
1772526326006063000,5.13306298828125,-0.05680220201611519,-0.017016343772411346,-0.08341698348522186
1772526326016045000,5.143045166015625,-0.03763975203037262,-0.036179784685373306,-0.06358563154935837
1772526326026028000,5.153028076171875,-0.022906877100467682,-0.0677691400051117,-0.04571715369820595
1772526326036010000,5.163010009765625,-0.010459156706929207,-0.09762989729642868,-0.03708086162805557
1772526326045992200,5.1729921875,-0.003624154254794121,-0.12171526998281479,-0.026074813678860664
1772526326055975000,5.182974853515625,0.0030273119919002056,-0.12891145050525665,-0.012718038633465767
1772526326065957000,5.19295703125,0.012460494413971901,-0.11185789108276367,0.0003447658382356167
1772526326075940000,5.202940185546875,0.02161727100610733,-0.08682680875062943,0.012654457241296768
1772526326085922000,5.212922119140625,0.029458684846758842,-0.0350315198302269,0.02217179536819458
1772526326095904000,5.222904052734375,0.03757862374186516,0.027493057772517204,0.023739296942949295
1772526326105887000,5.232886962890625,0.045010972768068314,0.08587834239006042,0.01859140396118164
1772526326115869000,5.242868896484375,0.05402239039540291,0.1377163976430893,0.0037338014226406813
1772526326125852200,5.25285205078125,0.06308619678020477,0.18763922154903412,-0.010498397052288055
1772526326135833900,5.262833740234375,0.07439089566469193,0.21957659721374512,-0.03012143261730671
1772526326145816000,5.272816162109375,0.0783558115363121,0.23345805704593658,-0.03510526940226555
1772526326155799000,5.282799072265625,0.08689925819635391,0.22949610650539398,-0.03299388661980629
1772526326165781000,5.292781005859375,0.08949370682239532,0.1953597068786621,-0.014307551085948944
1772526326175764000,5.302763916015625,0.08715417981147766,0.1344967633485794,0.013178011402487755
1772526326185746000,5.312745849609375,0.08042889833450317,0.0714525431394577,0.04757460206747055
1772526326195729000,5.32272900390625,0.0755368024110794,0.030494429171085358,0.08727243542671204
1772526326205711000,5.332711181640625,0.06676355004310608,-0.0006933172699064016,0.12035316228866577
1772526326215693000,5.342693115234375,0.056939661502838135,-0.013203013688325882,0.13161669671535492
1772526326225676000,5.352676025390625,0.04744415730237961,-0.013543365523219109,0.11662070453166962
1772526326235658000,5.362657958984375,0.04107627272605896,-0.0050558713264763355,0.08620128035545349
1772526326245641000,5.372640869140625,0.03540400415658951,-0.007800790946930647,0.039468929171562195
1772526326255623200,5.382623046875,0.028539709746837616,-0.019174620509147644,-0.006983787752687931
1772526326265604900,5.39260498046875,0.017209023237228394,-0.03696666657924652,-0.047837212681770325
1772526326275588000,5.402588134765625,0.0008320258930325508,-0.054838672280311584,-0.08229565620422363
1772526326285570000,5.412570068359375,-0.016903560608625412,-0.09074394404888153,-0.11031077802181244
1772526326295553000,5.422552978515625,-0.03449270874261856,-0.15156179666519165,-0.1273728907108307
1772526326305535000,5.432534912109375,-0.04542898014187813,-0.22700755298137665,-0.1279824823141098
1772526326315517000,5.442516845703125,-0.06138070672750473,-0.2818770110607147,-0.09114813804626465
1772526326325500000,5.4525,-0.07609467208385468,-0.2974775433540344,-0.03000381961464882
1772526326335482000,5.462482177734375,-0.0825008824467659,-0.29178503155708313,0.0387294627726078
1772526326345464800,5.47246484375,-0.07983212918043137,-0.2593863308429718,0.10282029211521149
1772526326355447000,5.482447021484375,-0.06976698338985443,-0.20527596771717072,0.15041789412498474
1772526326365429000,5.492428955078125,-0.05622294172644615,-0.14660732448101044,0.1726536899805069
1772526326375412000,5.502411865234375,-0.04438857361674309,-0.10274835675954819,0.1702495664358139
1772526326385394200,5.512394287109375,-0.02682236023247242,-0.04843078553676605,0.1525328904390335
1772526326395377000,5.522376953125,-0.007421600632369518,-0.006663563661277294,0.12003014981746674
1772526326405359000,5.532359130859375,0.004059287253767252,0.02082984521985054,0.08315709233283997
1772526326415341000,5.542341064453125,0.017942704260349274,0.045617133378982544,0.0551043301820755
1772526326425324000,5.552323974609375,0.01900291070342064,0.05781121551990509,0.03940233215689659
1772526326435306000,5.562305908203125,0.02043990232050419,0.06043270230293274,0.030194053426384926
1772526326445289200,5.572289306640625,0.024752892553806305,0.050774749368429184,0.039217375218868256
1772526326455271000,5.58227099609375,0.032711632549762726,0.04423461854457855,0.04799361526966095
1772526326465253000,5.592253173828125,0.03717562556266785,0.03881748020648956,0.06368602812290192
1772526326475235800,5.60223583984375,0.04327559098601341,0.0361764170229435,0.08253693580627441
1772526326485218000,5.612218017578125,0.05127865448594093,0.03774102404713631,0.0975896567106247
1772526326495201000,5.622200927734375,0.050930142402648926,0.04056123271584511,0.10645230859518051
1772526326505183000,5.632182861328125,0.05324389785528183,0.04055111110210419,0.10514922440052032
1772526326515165200,5.642165283203125,0.05544053390622139,0.03725532442331314,0.09318060427904129
1772526326525148200,5.652148193359375,0.05852287635207176,0.04658491164445877,0.07853268086910248
1772526326535130000,5.662130126953125,0.06339531391859055,0.05572230741381645,0.06158015504479408
1772526326545113000,5.672113037109375,0.06649017333984375,0.05909786373376846,0.04472074657678604
1772526326555095000,5.682094970703125,0.06810786575078964,0.0734516829252243,0.03561531379818916
1772526326565077000,5.692076904296875,0.07127463072538376,0.09099259227514267,0.02628226764500141
1772526326575060200,5.702060302734375,0.06631912291049957,0.09720541536808014,0.02072630263864994
1772526326585042000,5.7120419921875,0.06227537989616394,0.11236785352230072,0.013003401458263397
1772526326595025200,5.722025146484375,0.05208054184913635,0.10612329095602036,0.0015387698076665401
1772526326605006800,5.7320068359375,0.04020657390356064,0.0736154168844223,-0.009736788459122181
1772526326614989000,5.741989013671875,0.03336406871676445,0.03276139125227928,-0.025765594094991684
1772526326624972000,5.751971923828125,0.024777770042419434,0.006497561000287533,-0.036245666444301605
1772526326634954000,5.7619541015625,0.019276056438684464,-0.015220832079648972,-0.04925527796149254
1772526326644937000,5.77193701171875,0.011159541085362434,-0.00234471564181149,-0.05423485487699509
1772526326654919200,5.781919189453125,0.004434023983776569,0.03355153650045395,-0.05598931759595871
1772526326664902000,5.79190185546875,-0.006702517159283161,0.05637722462415695,-0.05448303371667862
1772526326674884000,5.801884033203125,-0.01805761642754078,0.06529846042394638,-0.06049733981490135
1772526326684866000,5.811865966796875,-0.026353362947702408,0.06748997420072556,-0.06744526326656342
1772526326694848800,5.821848876953125,-0.03344554454088211,0.043834347277879715,-0.08270340412855148
1772526326704831000,5.8318310546875,-0.03663494437932968,0.01601576805114746,-0.090556800365448
1772526326714814000,5.84181396484375,-0.0324595607817173,-0.01486554741859436,-0.1014857068657875
1772526326724796000,5.8517958984375,-0.02921396680176258,-0.038588717579841614,-0.10795319825410843
1772526326734777900,5.86177783203125,-0.024319540709257126,-0.03886554017663002,-0.10740256309509277
1772526326744760800,5.8717607421875,-0.029722029343247414,-0.025074094533920288,-0.10044931620359421
1772526326754742800,5.88174267578125,-0.03399363160133362,-0.00962409470230341,-0.09010753780603409
1772526326764726000,5.89172607421875,-0.037224311381578445,0.013071630150079727,-0.08264616131782532
1772526326774707700,5.901707763671875,-0.032327912747859955,0.026390988379716873,-0.07106317579746246
1772526326784690000,5.91168994140625,-0.02777683734893799,0.025792043656110764,-0.06088271364569664
1772526326794673000,5.9216728515625,-0.021106485277414322,0.029322976246476173,-0.044693779200315475
1772526326804654800,5.93165478515625,-0.010087655857205391,0.027457166463136673,-0.024353621527552605
1772526326814637800,5.941637939453125,-0.0027913120575249195,0.022487876936793327,-0.0058929515071213245
1772526326824619800,5.951619873046875,0.011798017658293247,0.010670101270079613,0.008115807548165321
1772526326834602000,5.96160205078125,0.01613025926053524,-0.0002329831477254629,0.017680451273918152
1772526326844585000,5.9715849609375,0.020442448556423187,0.0005313439760357141,0.01870017498731613
1772526326854567000,5.98156689453125,0.017393333837389946,0.007755552418529987,0.020437471568584442
1772526326864550000,5.9915498046875,0.012692056596279144,0.026234429329633713,0.024647928774356842
1772526326874532000,6.001531982421875,0.008864616975188255,0.04137064516544342,0.02703932486474514
1772526326884513800,6.011513671875,0.008322929963469505,0.051151636987924576,0.023480810225009918
1772526326894497000,6.0214970703125,0.007906291633844376,0.038673967123031616,0.020006511360406876
1772526326904478700,6.031478759765625,0.009417900815606117,0.033666957169771194,0.019416354596614838
1772526326914462000,6.0414619140625,0.004980735946446657,0.020011449232697487,0.023573119193315506
1772526326924444000,6.05144384765625,-0.0031986304093152285,0.001795160467736423,0.020378923043608665
1772526326934425900,6.06142578125,-0.008615368977189064,-0.004599655047059059,0.013830961659550667
1772526326944408800,6.071408935546875,-0.013801874592900276,0.0002960336860269308,0.010399479418992996
1772526326954390800,6.081390869140625,-0.022196613252162933,0.004709855653345585,-0.0006468812935054302
1772526326964373800,6.091373779296875,-0.026380173861980438,0.013304142281413078,-0.011877166107296944
1772526326974356000,6.10135595703125,-0.02684110961854458,0.037267133593559265,-0.018395371735095978
1772526326984338000,6.111337890625,-0.028123954311013222,0.06866206973791122,-0.023409835994243622
1772526326994321000,6.12132080078125,-0.024605359882116318,0.07626011222600937,-0.036606308072805405
1772526327004303000,6.13130322265625,-0.025317756459116936,0.06649430096149445,-0.049664851278066635
1772526327014285800,6.141285888671875,-0.025138720870018005,0.04624750465154648,-0.05431403964757919
1772526327024268000,6.15126806640625,-0.028250887989997864,0.03476501628756523,-0.046987418085336685
1772526327034249700,6.161249755859375,-0.025942660868167877,0.03931277617812157,-0.02905273251235485
1772526327044233000,6.17123291015625,-0.019291948527097702,0.0488215908408165,-0.014215994626283646
1772526327054215000,6.18121484375,-0.006383135914802551,0.05516324192285538,-0.0024766684509813786
1772526327064198000,6.191197998046875,0.001875326968729496,0.04827737435698509,-0.001540567260235548
1772526327074179800,6.201179931640625,-0.00027277879416942596,0.027471426874399185,-0.007016825955361128
1772526327084161800,6.211161865234375,-0.004873922094702721,0.007863370701670647,-0.016819389536976814
1772526327094144800,6.221144775390625,-0.008116500452160835,-0.006539095658808947,-0.02310027927160263
1772526327104127000,6.231126953125,-0.007596118841320276,-0.013950672000646591,-0.024135183542966843
1772526327114109700,6.241109619140625,0.0005528973415493965,-0.008991055190563202,-0.02024056576192379
1772526327124092000,6.251091796875,0.005839538294821978,-0.004305755719542503,-0.012439901009202003
1772526327134073900,6.261073974609375,0.01683392934501171,0.011073339730501175,-0.011253043077886105
1772526327144056800,6.271056884765625,0.02020362764596939,0.016844142228364944,-0.010256755165755749
1772526327154038800,6.281038818359375,0.015486650168895721,0.013815619982779026,-0.01342031080275774
1772526327164022000,6.29102197265625,0.010192552581429482,-0.013892173767089844,-0.018280845135450363
1772526327174003700,6.301003662109375,0.006541527807712555,-0.041754886507987976,-0.02798878587782383
1772526327183987000,6.310987060546875,-0.00013981061056256294,-0.07464918494224548,-0.03388448804616928
1772526327193969000,6.320968994140625,-0.009126017801463604,-0.08766067773103714,-0.03745400533080101
1772526327203950800,6.330950927734375,-0.010828310623764992,-0.06802598387002945,-0.03306325152516365
1772526327213933800,6.340933837890625,-0.02182500995695591,-0.04476803541183472,-0.027975259348750114
1772526327223915800,6.350915771484375,-0.026659181341528893,-0.026868395507335663,-0.019268855452537537
1772526327233898800,6.360898681640625,-0.032528169453144073,-0.018335718661546707,-0.014283239841461182
1772526327243881000,6.370880859375,-0.036984436213970184,-0.008518773131072521,-0.010769465938210487
1772526327253863000,6.38086279296875,-0.04126032069325447,-0.006597393658012152,-0.006664026994258165
1772526327263846000,6.390845947265625,-0.03921394795179367,-0.00786931999027729,-0.0016365121118724346
1772526327273827800,6.400827880859375,-0.03867752104997635,-0.007913111709058285,0.005809843074530363
1772526327283810800,6.410810791015625,-0.03565456345677376,-0.023356249555945396,0.013004106469452381
1772526327293793000,6.42079296875,-0.03713693469762802,-0.034518759697675705,0.01921285316348076
1772526327303774700,6.430774658203125,-0.03761604055762291,-0.03770097345113754,0.02723882347345352
1772526327313758000,6.440758056640625,-0.034589383751153946,-0.029005516320466995,0.03181091323494911
1772526327323739600,6.45073974609375,-0.034411750733852386,-0.01886286586523056,0.03689542040228844
1772526327333723000,6.460722900390625,-0.031030140817165375,-0.008199726231396198,0.03788568824529648
1772526327343704800,6.470704833984375,-0.024600472301244736,-0.0025820548180490732,0.03619164973497391
1772526327353686800,6.480686767578125,-0.020518144592642784,-0.00276932236738503,0.03243815898895264
1772526327363669800,6.490669677734375,-0.018120234832167625,-0.00613582506775856,0.02036205306649208
1772526327373652000,6.50065185546875,-0.019030852243304253,-0.014855446293950081,0.00943227019160986
1772526327383634700,6.510634765625,-0.019211947917938232,-0.02617627941071987,0.00008643884211778641
1772526327393617000,6.520616943359375,-0.025346359238028526,-0.03251264616847038,-0.004913289099931717
1772526327403598800,6.530598876953125,-0.02861432358622551,-0.035174209624528885,-0.009278743527829647
1772526327413581800,6.540581787109375,-0.02928643301129341,-0.013576887547969818,-0.00807935744524002
1772526327423564000,6.55056396484375,-0.028990289196372032,0.0035962401889264584,-0.01151243969798088
1772526327433546800,6.560546630859375,-0.02034473791718483,0.013655504211783409,-0.01331411674618721
1772526327443529000,6.570529052734375,-0.009605808183550835,0.017888065427541733,-0.011275200173258781
1772526327453510700,6.5805107421875,-0.0009806286543607712,0.00430514570325613,-0.017659328877925873
1772526327463494000,6.590493896484375,0.0071835583075881,-0.010225859470665455,-0.02330656349658966
1772526327473475800,6.600475830078125,0.005713580176234245,-0.02307756617665291,-0.034986745566129684
1772526327483458800,6.610458740234375,-0.0011898656375706196,-0.029075272381305695,-0.05495379492640495
1772526327493440800,6.620440673828125,-0.011879203841090202,-0.022495796903967857,-0.07778546214103699
1772526327503423000,6.630423095703125,-0.02365969680249691,-0.015043740160763264,-0.10293342173099518
1772526327513405700,6.64040576171875,-0.03863447904586792,0.023509852588176727,-0.12324101477861404
1772526327523388000,6.650387939453125,-0.0544174388051033,0.06414595991373062,-0.13564148545265198
1772526327533371000,6.660370849609375,-0.059838611632585526,0.07453510165214539,-0.1409090906381607
1772526327543352800,6.670352783203125,-0.052504267543554306,0.07425547391176224,-0.13261733949184418
1772526327553335000,6.6803349609375,-0.0432896688580513,0.08705051243305206,-0.10486118495464325
1772526327563317800,6.69031787109375,-0.032002393156290054,0.08980927616357803,-0.06088653951883316
1772526327573300000,6.700300048828125,-0.01877385750412941,0.07284697145223618,-0.017695222049951553
1772526327583283000,6.710282958984375,-0.00535312294960022,0.05087243393063545,0.027666401118040085
1772526327593265000,6.720264892578125,0.011510835960507393,0.028363961726427078,0.0608973503112793
1772526327603246800,6.730246826171875,0.02569456584751606,0.011663012206554413,0.08472678065299988
1772526327613229800,6.740229736328125,0.02842339128255844,-0.007120744790881872,0.09485378116369247
1772526327623211800,6.750211669921875,0.02624066174030304,-0.009444085881114006,0.09910710901021957
1772526327633195000,6.760195068359375,0.024730917066335678,-0.010896041989326477,0.08791811019182205
1772526327643176700,6.7701767578125,0.029350969940423965,-0.01385428011417389,0.07711312919855118
1772526327653159000,6.780158935546875,0.03725292906165123,0.0015871827490627766,0.06688997149467468
1772526327663142000,6.790141845703125,0.04599209502339363,0.01115671917796135,0.05430654063820839
1772526327673123800,6.800123779296875,0.05981641262769699,0.02365247718989849,0.03185682371258736
1772526327683107300,6.810107421875,0.07391917705535889,0.044507693499326706,0.009713971056044102
1772526327693089300,6.82008935546875,0.08588837087154388,0.05807521194219589,-0.013874121941626072
1772526327703071200,6.8300712890625,0.08982265740633011,0.051597073674201965,-0.022466279566287994
1772526327713054200,6.84005419921875,0.10157210379838943,0.027126826345920563,-0.030147967860102654
1772526327723036400,6.850036376953125,0.11419974267482758,0.012471185065805912,-0.0327320322394371
1772526327733019400,6.860019287109375,0.11799369007349014,-0.0013506151735782623,-0.030611885711550713
1772526327743001300,6.87000146484375,0.12019160389900208,-0.01524406112730503,-0.02951732464134693
1772526327752983300,6.8799833984375,0.11064644902944565,-0.02575497329235077,-0.029917538166046143
1772526327762966300,6.88996630859375,0.08644230663776398,-0.019905339926481247,-0.034798312932252884
1772526327772948200,6.8999482421875,0.042132023721933365,0.020689329132437706,-0.03376384079456329
1772526327782931200,6.90993115234375,-0.016365109011530876,0.08785159140825272,-0.03355318680405617
1772526327792913200,6.9199130859375,-0.06903764605522156,0.1350712925195694,-0.04144813120365143
1772526327802895400,6.929895263671875,-0.09883202612400055,0.14589011669158936,-0.04975399747490883
1772526327812878300,6.93987841796875,-0.09842800348997116,0.12268389016389847,-0.04435015842318535
1772526327822860300,6.9498603515625,-0.07271438837051392,0.09718278795480728,-0.020161733031272888
1772526327832843300,6.95984326171875,-0.03911968320608139,0.0698172003030777,0.016190938651561737
1772526327842825200,6.9698251953125,-0.00006815744563937187,0.03202188387513161,0.051198191940784454
1772526327852807200,6.97980712890625,0.034015778452157974,-0.01366038154810667,0.0838346928358078
1772526327862790400,6.989790283203125,0.0482916533946991,-0.07446860522031784,0.11477583646774292
1772526327872772000,6.999772216796875,0.054637275636196136,-0.13646039366722107,0.1348634511232376
1772526327882755300,7.00975537109375,0.05002600699663162,-0.19700896739959717,0.14384549856185913
1772526327892737300,7.0197373046875,0.038425132632255554,-0.23242880403995514,0.14278070628643036
1772526327902720300,7.02972021484375,0.030539244413375854,-0.23585017025470734,0.13064628839492798
1772526327912702200,7.0397021484375,0.016950687393546104,-0.21909813582897186,0.10540266335010529
1772526327922684200,7.04968408203125,0.012546351179480553,-0.180306538939476,0.07422477006912231
1772526327932667100,7.059667236328125,0.010795241221785545,-0.12610338628292084,0.03837445750832558
1772526327942649300,7.0696494140625,0.009378706105053425,-0.08412503451108932,-0.0032829740084707737
1772526327952632000,7.079632080078125,0.013554953038692474,-0.0426233634352684,-0.039963167160749435
1772526327962614300,7.0896142578125,0.011499524116516113,-0.012486765161156654,-0.07071228325366974
1772526327972596200,7.09959619140625,0.013393206521868706,-0.0003189649432897568,-0.09139750897884369
1772526327982579200,7.1095791015625,0.010421119630336761,0.005931207910180092,-0.0935666561126709
1772526327992561400,7.1195615234375,0.006030583288520575,0.016360562294721603,-0.08396876603364944
1772526328002544400,7.12954443359375,0.009118253365159035,0.02355056442320347,-0.06335003674030304
1772526328012526300,7.1395263671875,0.009104210883378983,0.023152844980359077,-0.04587234556674957
1772526328022508300,7.14950830078125,0.02095421403646469,0.03165365383028984,-0.03133947774767876
1772526328032491300,7.1594912109375,0.030922971665859222,0.027576373890042305,-0.024714848026633263
1772526328042473200,7.16947314453125,0.03631933405995369,0.012577451765537262,-0.02229456789791584
1772526328052456400,7.17945654296875,0.04200286418199539,-0.007420329377055168,-0.028447100892663002
1772526328062438100,7.189438232421875,0.0486152283847332,-0.008355631493031979,-0.031716663390398026
1772526328072420400,7.19942041015625,0.0602077953517437,-0.0033252639696002007,-0.030487697571516037
1772526328082403000,7.209403076171875,0.06841778755187988,-0.003546040039509535,-0.02075144648551941
1772526328092385300,7.21938525390625,0.07466278225183487,-0.012052926234900951,-0.012982942163944244
1772526328102368300,7.2293681640625,0.072363942861557,-0.02971474453806877,-0.0001614200882613659
1772526328112350200,7.23935009765625,0.07736095786094666,-0.04236480966210365,0.019425800070166588
1772526328122332400,7.24933251953125,0.07764270901679993,-0.04534116014838219,0.03292962536215782
1772526328132315400,7.2593154296875,0.06614048779010773,-0.03989984095096588,0.046231284737586975
1772526328142297300,7.26929736328125,0.049401987344026566,-0.02376321144402027,0.05348147451877594
1772526328152280300,7.2792802734375,0.040039654821157455,0.01840929128229618,0.05102311819791794
1772526328162262300,7.28926220703125,0.03380359709262848,0.06828577071428299,0.042203258723020554
1772526328172244200,7.299244140625,0.024792365729808807,0.10366074740886688,0.02901734597980976
1772526328182227500,7.3092275390625,0.019552329555153847,0.12337931990623474,0.012148085981607437
1772526328192209200,7.319209228515625,0.02737937495112419,0.12534821033477783,0.0006437767297029495
1772526328202192400,7.3291923828125,0.03141193464398384,0.12800630927085876,0.002629695925861597
1772526328212174000,7.339174072265625,0.03319259360432625,0.12354940176010132,0.010652896016836166
1772526328222156300,7.34915625,0.0170154869556427,0.12367936223745346,0.012026553973555565
1772526328232139300,7.35913916015625,0.008478183299303055,0.1342097669839859,0.011954108253121376
1772526328242121200,7.369121337890625,0.0035039312206208706,0.14339900016784668,0.016635945066809654
1772526328252104200,7.379104248046875,-0.005092210602015257,0.14651145040988922,0.03131716325879097
1772526328262086400,7.38908642578125,-0.01921282336115837,0.1339607685804367,0.04497545212507248
1772526328272068400,7.399068359375,-0.030449792742729187,0.11319312453269958,0.05513458698987961
1772526328282051300,7.40905126953125,-0.04875636100769043,0.09241753816604614,0.045836690813302994
1772526328292033300,7.419033203125,-0.060654956847429276,0.07731607556343079,0.02430499903857708
1772526328302016300,7.429016357421875,-0.07191719859838486,0.04798294976353645,-0.0014142123982310295
1772526328311998500,7.43899853515625,-0.07178351283073425,0.02618204429745674,-0.027119582518935204
1772526328321980200,7.448980224609375,-0.06405288726091385,0.01786339469254017,-0.04470975697040558
1772526328331963400,7.45896337890625,-0.05085526034235954,0.018559696152806282,-0.053764618933200836
1772526328341945000,7.468945068359375,-0.03436043858528137,0.013959885574877262,-0.05347992479801178
1772526328351928300,7.47892822265625,-0.029215844348073006,-0.007452125661075115,-0.04733460769057274
1772526328361910300,7.48891015625,-0.04008447378873825,-0.027820248156785965,-0.04144422709941864
1772526328371892200,7.498892333984375,-0.06714369356632233,-0.033979423344135284,-0.04877839237451553
1772526328381875200,7.508875244140625,-0.08090584725141525,-0.08656007796525955,-0.07559828460216522
1772526328391857400,7.518857421875,-0.08874725550413132,-0.1511760950088501,-0.10135078430175781
1772526328401840000,7.528840087890625,-0.08457808196544647,-0.184306338429451,-0.11687754839658737
1772526328411822300,7.538822265625,-0.08362486213445663,-0.18954622745513916,-0.12446100264787674
1772526328421804300,7.54880419921875,-0.0782490074634552,-0.16453516483306885,-0.13195940852165222
1772526328431787300,7.558787353515625,-0.06675639748573303,-0.13018330931663513,-0.12573426961898804
1772526328441769500,7.56876953125,-0.05028374493122101,-0.08739230036735535,-0.11740031838417053
1772526328451752200,7.578752197265625,-0.04428098350763321,-0.03602312505245209,-0.09986500442028046
1772526328461734400,7.588734375,-0.04032698646187782,0.015962043777108192,-0.07259823381900787
1772526328471716400,7.59871630859375,-0.055524032562971115,0.05529589205980301,-0.043194517493247986
1772526328481699300,7.60869921875,-0.08317376673221588,0.05513610318303108,-0.012269090861082077
1772526328491681300,7.618681396484375,-0.10859887301921844,0.013183512724936008,0.018519898876547813
1772526328501664500,7.62866455078125,-0.12228938937187195,-0.03333977982401848,0.05284538120031357
1772526328511646200,7.638646240234375,-0.12131103128194809,-0.0681738406419754,0.08361456543207169
1772526328521628400,7.64862841796875,-0.1109452024102211,-0.07643523812294006,0.10068036615848541
1772526328531611100,7.658611083984375,-0.09160973131656647,-0.059012290090322495,0.11569903790950775
1772526328541593300,7.66859326171875,-0.07637432217597961,-0.01981881447136402,0.11790866404771805
1772526328551576300,7.678576416015625,-0.05950381979346275,0.011206296272575855,0.11962302774190903
1772526328561558300,7.688558349609375,-0.05353860557079315,0.015871355310082436,0.11718090623617172
1772526328571540500,7.69854052734375,-0.04547886922955513,0.021215135231614113,0.11530455946922302
1772526328581523200,7.708523193359375,-0.04098132252693176,0.024597615003585815,0.10972604155540466
1772526328591505400,7.71850537109375,-0.029734259471297264,0.021647898480296135,0.1001724898815155
1772526328601488400,7.72848828125,-0.032323919236660004,0.009297489188611507,0.09501446783542633
1772526328611470300,7.73847021484375,-0.03134938329458237,0.0077855149284005165,0.09058047831058502
1772526328621452300,7.748452392578125,-0.036106325685977936,-0.0033211982809007168,0.08576016128063202
1772526328631435500,7.758435546875,-0.03315025940537453,-0.01416992861777544,0.07755971699953079
1772526328641417200,7.768417236328125,-0.023569537326693535,-0.005523444153368473,0.07320491224527359
1772526328651400400,7.778400390625,-0.00784948281943798,0.005992485210299492,0.06982468068599701
1772526328661382100,7.788382080078125,0.003967228811234236,0.010894033126533031,0.055667318403720856
1772526328671364400,7.7983642578125,0.015527904964983463,-0.0010331415105611086,0.0386175662279129
1772526328681346800,7.808346923828125,0.026034340262413025,-0.013408584520220757,0.013360414654016495
1772526328691328800,7.818328857421875,0.03331529349088669,-0.025304412469267845,-0.00837448425590992
1772526328701311700,7.828311767578125,0.030664384365081787,-0.03093619830906391,-0.026953762397170067
1772526328711294000,7.8382939453125,0.02901371568441391,-0.02949788235127926,-0.03128862753510475
1772526328721276000,7.84827587890625,0.022902026772499084,-0.02426263876259327,-0.03132990747690201
1772526328731259000,7.8582587890625,0.016368698328733444,-0.011657768860459328,-0.024778950959444046
1772526328741241000,7.868240966796875,0.01735966093838215,0.021081002429127693,-0.018282968550920486
1772526328751223800,7.878223876953125,0.037337079644203186,0.0446784533560276,-0.007597579620778561
1772526328761206000,7.8882060546875,0.04767627269029617,0.0610307939350605,0.001603642012923956
1772526328771187700,7.898187744140625,0.0532262809574604,0.06726229935884476,0.016324248164892197
1772526328781171000,7.9081708984375,0.06215506047010422,0.07435242831707001,0.04198460280895233
1772526328791153000,7.91815283203125,0.06124749407172203,0.07102513313293457,0.06320257484912872
1772526328801135900,7.928135986328125,0.061099957674741745,0.07071700692176819,0.07810989022254944
1772526328811117800,7.938117919921875,0.06784041225910187,0.05976368859410286,0.08740032464265823
1772526328821099800,7.948099853515625,0.06708647310733795,0.04958721622824669,0.0909401997923851
1772526328831082800,7.958082763671875,0.062282267957925797,0.04049148038029671,0.09051653742790222
1772526328841065000,7.96806494140625,0.05819857493042946,0.047695863991975784,0.08684483915567398
1772526328851047700,7.978047607421875,0.055792082101106644,0.053817007690668106,0.07988904416561127
1772526328861030000,7.98802978515625,0.048883043229579926,0.05081935226917267,0.0673639252781868
1772526328871012000,7.99801220703125,0.04396548867225647,0.040501683950424194,0.04524901509284973
1772526328880994800,8.007994873046876,0.03434614837169647,0.0385274812579155,0.012805585749447346
1772526328890977000,8.01797705078125,0.017566753551363945,0.06094193831086159,-0.021133802831172943
1772526328900960000,8.0279599609375,0.001268740277737379,0.08974908292293549,-0.06363465636968613
1772526328910942000,8.03794189453125,-0.023638764396309853,0.126275897026062,-0.09638410806655884
1772526328920924000,8.047923828125,-0.035994768142700195,0.15873557329177856,-0.13143743574619293
1772526328930907000,8.057906982421875,-0.041780970990657806,0.1774403601884842,-0.1688108593225479
1772526328940888800,8.067888916015624,-0.03915802389383316,0.19259107112884521,-0.1978110820055008
1772526328950872000,8.0778720703125,-0.03289828449487686,0.19971713423728943,-0.21913689374923706
1772526328960853800,8.087853759765625,-0.033695902675390244,0.19861139357089996,-0.23240795731544495
1772526328970836000,8.0978359375,-0.03047643043100834,0.1898716539144516,-0.23620060086250305
1772526328980819000,8.10781884765625,-0.023297080770134926,0.14848773181438446,-0.22627125680446625
1772526328990801000,8.11780078125,-0.0064191618002951145,0.10379746556282043,-0.19329844415187836
1772526329000784000,8.127783935546875,0.01624327339231968,0.07857120782136917,-0.13792333006858826
1772526329010765800,8.137765869140624,0.03465684503316879,0.08831002563238144,-0.06602603197097778
1772526329020747800,8.147747802734376,0.056925129145383835,0.11183798313140869,-0.004519792273640633
1772526329030731000,8.15773095703125,0.06769634783267975,0.15371814370155334,0.034941643476486206
1772526329040713000,8.167712890625,0.07309882342815399,0.1951444149017334,0.04457775875926018
1772526329050696000,8.177696044921875,0.06806640326976776,0.23300795257091522,0.023763354867696762
1772526329060678000,8.187677978515625,0.06054776534438133,0.2713010311126709,0.014703545719385147
1772526329070659800,8.197659912109375,0.02268356643617153,0.2617172598838806,0.040953706949949265
1772526329080642800,8.207642822265624,-0.022265799343585968,0.15986336767673492,0.04899511858820915
1772526329090624800,8.217624755859376,-0.02628219500184059,0.06279762834310532,0.04141639173030853
1772526329100608000,8.22760791015625,-0.013370123691856861,-0.0044205584563314915,0.03081434965133667
1772526329110590000,8.23758984375,-0.011340809985995293,-0.03776948153972626,0.036168888211250305
1772526329120572000,8.247572021484375,-0.009354357607662678,-0.02954164706170559,0.041458189487457275
1772526329130555000,8.257554931640625,-0.0008565736934542656,-0.010746847838163376,0.0473390631377697
1772526329140536800,8.267536865234375,0.012556435540318489,-0.003785610431805253,0.04589270055294037
1772526329150519800,8.277519775390624,0.02201111428439617,-0.015360398218035698,0.028627794235944748
1772526329160502000,8.287501953125,0.021603118628263474,-0.036883533000946045,-0.008764051832258701
1772526329170483700,8.297483642578126,0.02517816424369812,-0.04948451742529869,-0.056306786835193634
1772526329180467000,8.307467041015625,0.04866218566894531,-0.023350117728114128,-0.0935492292046547
1772526329190448600,8.31744873046875,0.06893785297870636,0.006622895132750273,-0.07407888770103455
