time,seconds_elapsed,z,y,x
1772527331510443000,0.085443115234375,0.08179565515518188,-1.0960039698645472,-0.4747692101348191
1772527331520425000,0.095425048828125,-0.1008656818062067,-0.9438283720597624,-1.1805031848900018
1772527331530407000,0.105406982421875,-0.20674071620702741,-0.7298688105151057,-1.6379079301826656
1772527331540389000,0.11538916015625,-0.09001870909929274,-0.48840369466841216,-1.689938853932172
1772527331550370800,0.125370849609375,0.2815817299187183,-0.23357436259686945,-1.4341776478379964
1772527331560353000,0.13535302734375,0.9710019179284572,0.025848727005720138,-1.1291843549326062
1772527331570335000,0.1453349609375,1.843728170543909,0.2693266439795494,-0.8908996957529336
1772527331580317000,0.15531689453125,2.5961153945982454,0.3572945580288768,-0.6315298707075416
1772527331590297900,0.1652978515625,3.1437744113117456,0.4188593260601163,-0.5711788258476183
1772527331600280000,0.175280029296875,3.4279730457305906,0.4529273076176643,-0.6806805628456175
1772527331610262000,0.185261962890625,3.3821184725284574,0.39470512801259755,-0.7772326923016458
1772527331620244000,0.195243896484375,3.1581904746770855,0.17828180670291185,-0.8372222469054162
1772527331630226000,0.205225830078125,2.982896451613307,0.034684359890222546,-0.8156999317314475
1772527331640208100,0.2152080078125,2.917920998355746,0.1319756903409958,-0.5812518915725872
1772527331650189800,0.22518994140625,2.6564742939710615,0.15095160896778106,-0.29130764444014057
1772527331660172000,0.235172119140625,2.035208189254999,0.017442717710137366,-0.09240501971393823
1772527331670154000,0.245154052734375,1.0778437515348196,-0.12090104635804891,-0.005099515096098184
1772527331680135000,0.255135009765625,-0.022170915275812147,-0.14103724093586206,-0.09013510202057659
1772527331690116900,0.265116943359375,-1.0794587855160236,0.24155951613187787,-0.20722155852653085
1772527331700099000,0.27509912109375,-2.0282810203403234,0.625258096961677,-0.45175760625116523
1772527331710080800,0.285080810546875,-2.8435476021558044,0.7838792176440358,-0.4586369174361229
1772527331720063000,0.29506298828125,-4.020500547218322,2.078470407876372,0.6837526637673378
1772527331730045200,0.305045166015625,-5.341558011832833,3.091777682092786,0.4933803140372038
1772527331740027000,0.31502685546875,-6.195520527267456,2.9661247650325295,-1.2325944605246186
1772527331750009000,0.325009033203125,-6.303873349958658,1.6736179798588156,-3.807212016803026
1772527331759991000,0.334990966796875,-5.746323638349772,0.12014613633751868,-6.088515612053871
1772527331769973000,0.344972900390625,-4.594886242815852,-0.7345593064188957,-6.415843194103241
1772527331779954000,0.354953857421875,-3.1471278133928773,-1.057081534013152,-4.882962010928988
1772527331789936000,0.36493603515625,-1.3019254786431789,-0.9595753917679191,-3.0264208283022045
1772527331799917800,0.374917724609375,1.040384081712365,-0.483415092600882,-1.5088812989056108
1772527331809900000,0.384900146484375,3.674417995816469,0.1789493307009339,0.04166351472046226
1772527331819882000,0.394882080078125,5.404831337347626,0.5696218421965837,1.5150482971027492
1772527331829864000,0.404864013671875,5.673616129535437,0.6225599439188838,2.8591914537504315
1772527331839846000,0.414845947265625,4.65932510497868,0.5493573450639844,3.636634500867128
1772527331849828000,0.424828125,3.116061059477925,0.9244190304517745,3.5290599690720437
1772527331859809800,0.434809814453125,1.8308470616608856,1.7920754324570296,2.82694747274965
1772527331869791000,0.444791015625,1.1266852315932512,2.3999182842373847,2.0358359657645226
1772527331879773000,0.45477294921875,0.9633709846585988,2.4803140094667673,1.5455189848206936
1772527331889755100,0.464755126953125,1.168517709672451,1.944742320910096,1.4383040801182387
1772527331899736800,0.47473681640625,1.3203081075519323,1.0681342584252358,1.5446438094213604
1772527331909719000,0.484718994140625,1.270731298956275,0.6359419880613685,1.1136189754016697
1772527331919700700,0.49470068359375,0.8760089275479316,0.6634668315857648,0.5599830762356519
1772527331929683000,0.504682861328125,0.27692659758925436,0.8515159990653395,0.10959306854326277
1772527331939665200,0.5146650390625,0.27885142817199227,1.2987600003495812,-0.4833089653452858
1772527331949646800,0.524646728515625,0.4506184461534023,1.358833945301175,-0.4346647248920053
1772527331959627800,0.534627685546875,1.594013405007124,2.0510899412587285,-0.3233654734853655
1772527331969610000,0.54460986328125,2.645700971022248,2.4940157870829105,0.45217674497868865
1772527331979592200,0.55459228515625,3.302732801124453,2.7575033496454355,1.4605486451521514
1772527331989574000,0.564573974609375,4.2013878602445125,3.445079955615103,2.0369228842183946
1772527331999556000,0.57455615234375,4.927535312148929,4.090290415020287,2.339722758732736
1772527332009538000,0.5845380859375,5.113095877683162,4.402389740538597,2.354915213298052
1772527332019520000,0.59452001953125,4.606802890580893,4.3079996844872825,2.3885157234743235
1772527332029502000,0.604501953125,6.164233993121981,3.4032989154621958,2.409147592614591
1772527332039484000,0.61448388671875,6.564087297677993,2.6762588986322284,1.333122142548114
1772527332049464800,0.62446484375,6.769507578936219,1.9315613522976636,0.8116236952684819
1772527332059447000,0.634447021484375,6.8482654738307,1.2791530903428792,0.5260878939617425
1772527332069429000,0.644428955078125,6.475198469391465,0.944054874292016,0.11966799743175506
1772527332079411000,0.654410888671875,5.163467051526903,0.7403183083370327,0.09159830644093453
1772527332089393000,0.664392822265625,2.6092168682336805,0.3173579766988754,0.5907068619318306
1772527332099375000,0.674375,-1.48047879576385,-0.4252390902251005,2.040053875720501
1772527332109356300,0.684356201171875,-6.3791714597880835,-0.8556338096477091,3.9984710862398147
1772527332119338200,0.694338134765625,-11.377851853740214,-0.0880383489370346,5.145165086638928
1772527332129320400,0.704320556640625,-16.534071418356895,1.2410279423490167,5.4095256326437
1772527332139302100,0.71430224609375,-21.710861477315426,1.408811589782685,5.141781873941421
1772527332149283300,0.724283447265625,-26.145095970404146,0.5063263048499822,2.83423996784538
1772527332159265300,0.734265380859375,-27.872970733368394,0.31708003654032946,-1.5337036054730415
1772527332169247500,0.74424755859375,-24.26557051029205,0.030990035416930913,-6.615055852892994
1772527332179229200,0.754229248046875,-19.277906015872954,-2.42289920072183,-10.994746854889392
1772527332189211400,0.76421142578125,-16.036739151823518,-4.960730894786119,-12.644247753840684
1772527332199193300,0.774193359375,-16.58368329826593,-5.749554875355958,-10.502052185028791
1772527332209175300,0.78417529296875,-18.891936859762666,-5.585016639584302,-7.221611879733205
1772527332219157500,0.794157470703125,-19.25770026319027,-4.861872753410041,-6.036022039228677
1772527332229139500,0.804139404296875,-18.032025665056704,-3.905598449014127,-6.418000664398074
1772527332239120100,0.8141201171875,-15.841894625115394,-2.4845339652493594,-5.276227169266343
1772527332249102300,0.824102294921875,-12.554615998232364,-1.1509580875843763,-3.056467299258709
1772527332259084500,0.83408447265625,-7.927683342814445,-0.1568529419660568,-1.1147462258659302
1772527332269066200,0.844066162109375,-2.4652573101103306,-0.019838965196907518,-0.4299693336173892
1772527332279048400,0.85404833984375,2.4912013141840696,-0.7461299172252416,-1.4765315194427966
1772527332289030400,0.864030517578125,6.401041346290707,-1.1572928435638545,-3.4472090765982863
1772527332299012400,0.874012451171875,9.730249481886625,-0.9347434405893087,-4.444829536861181
1772527332308994300,0.883994384765625,12.450573439955711,-0.10298252782970667,-4.345245711559057
1772527332318976500,0.8939765625,14.273220244026183,1.0613365611091254,-3.6039591427117585
1772527332328957400,0.90395751953125,15.178903009825945,2.4723519445464013,-2.685830444575846
1772527332338939400,0.913939453125,15.179776285529135,3.936829161319136,-2.0965005700856447
1772527332348921300,0.92392138671875,14.600567699819802,5.183167192775011,-1.5705255619138478
1772527332358903300,0.9339033203125,13.790944092327356,6.3394660568654535,-0.9543308421779423
1772527332368885200,0.94388525390625,13.048396709764003,7.385623461282253,-0.32085060458760706
1772527332378867500,0.953867431640625,12.444188122832774,8.129864788281917,0.12942489161333068
1772527332388849200,0.96384912109375,11.820225034117698,8.425235389578342,0.7309235802650451
1772527332398831400,0.973831298828125,11.18934588240385,8.224733860021828,1.4465379477173088
1772527332408813300,0.983813232421875,10.709769052791595,7.716006923770904,1.8759280201420188
1772527332418795300,0.993795166015625,10.482669439166784,6.986562768408656,1.916288087581098
1772527332428776200,1.003776123046875,10.618386069601774,6.296940920346975,1.7716741572022436
1772527332438758400,1.01375830078125,10.782281331294774,5.659270208796858,1.8766729932904243
1772527332448740400,1.023740234375,10.866058515655993,4.986635735893249,1.8745954563640057
1772527332458722300,1.033722412109375,10.980140821909904,4.45173215585649,1.6145948591344057
1772527332468704500,1.04370458984375,11.064730491697787,3.981942268504202,1.2615075435370207
1772527332478686200,1.053686279296875,11.011755272835492,3.6017476041421292,0.7065148959998041
1772527332488668400,1.06366845703125,10.85039917423129,3.271616362848878,0.18275148119656368
1772527332498650400,1.073650390625,10.693234097576141,2.982841506555676,-0.3438782462906092
1772527332508631600,1.083631591796875,10.495887817180156,2.8214079588010907,-0.8842401647984981
1772527332518613200,1.09361328125,10.196738866388797,2.729628377509117,-1.512978505091369
1772527332528595500,1.103595458984375,9.554358661973476,2.7620243342012167,-1.9681457005903125
1772527332538577400,1.113577392578125,8.479942546799778,2.7463734683439136,-2.2250258277118204
1772527332548559400,1.123559326171875,7.091808272734284,2.6445751818627117,-2.371960163862258
1772527332558541300,1.133541259765625,5.694239230847359,2.6334751111775634,-2.5475448404356835
1772527332568523500,1.1435234375,4.279619685438275,2.656417595347762,-2.856860964976251
1772527332578505200,1.153505126953125,2.714704364621639,2.4757050543665886,-3.0917090007707473
1772527332588487400,1.1634873046875,0.9414742101490498,1.929005238074064,-2.6643378669530153
1772527332598469400,1.173469482421875,-0.6985626948863267,1.0904041040308774,-1.7543989050135016
1772527332608450300,1.1834501953125,-2.213933355811238,0.21307722575217483,-0.8607469148777425
1772527332618432300,1.193432373046875,-4.258212155750393,-1.6364723444215952,-0.0068312707921490065
1772527332628414500,1.20341455078125,-7.338990889444947,-4.759295299249887,0.8213596379935741
1772527332638396200,1.213396240234375,-11.421625529015063,-8.398724983793496,1.684204840324819
1772527332648378400,1.22337841796875,-15.55929933423996,-11.15532904651165,1.7968781565636396
1772527332658360300,1.2333603515625,-19.584249262082576,-12.525312746858596,0.6716499188456684
1772527332668342300,1.24334228515625,-24.39525019865036,-13.691315843361615,-1.2031762044690548
1772527332678324500,1.253324462890625,-28.12554264190197,-13.319403269654511,-5.0322214290261265
1772527332688306400,1.263306396484375,-26.755818469274043,-10.72829839669466,-10.227239218592644
1772527332698287400,1.273287353515625,-22.353356248021125,-7.362765148264169,-11.278645629578827
1772527332708269300,1.283269287109375,-20.554048233962057,-2.9131378557324408,-7.4814049716919655
1772527332718251500,1.29325146484375,-20.430515377795697,-0.6360838807500898,-3.0824694632604714
1772527332728233200,1.303233154296875,-19.42698247861862,0.5787785237289965,-0.4860350658409297
1772527332738215400,1.31321533203125,-17.875789978206157,2.4498563273608682,1.4314794947952032
1772527332748197400,1.323197265625,-16.38534333065748,4.059486111433804,3.150848002959788
1772527332758179300,1.333179443359375,-14.295557163518666,4.756823940700293,5.075304199427366
1772527332768161300,1.343161376953125,-10.314515350985527,4.47547251240611,6.084569504776597
1772527332778142500,1.353142578125,-4.6112779901683325,3.604837971372902,5.7960039073199034
1772527332788124400,1.36312451171875,0.7606623004466295,2.8326836783140896,5.56767738224864
1772527332798106400,1.3731064453125,4.555176748239994,2.977903173370659,5.564547267529368
1772527332808088300,1.38308837890625,6.294443258312344,4.084937655815482,5.569007754069567
1772527332818070500,1.393070556640625,6.316144217988849,5.07652818826437,5.2259156166553495
1772527332828052200,1.40305224609375,5.747448842987418,5.632629454630613,3.9196968247324224
1772527332838034400,1.413034423828125,4.9800236242771145,5.663072523689269,2.206422103398293
1772527332848016400,1.423016357421875,4.526141207891702,5.45777148489654,0.8388766630489378
1772527332857998300,1.432998291015625,4.823155484741926,5.426936786171794,0.22011370026022195
1772527332867979300,1.442979248046875,5.715983445143699,5.315349803864955,0.22167495822757483
1772527332877961500,1.45296142578125,6.531744532477855,4.92281471336782,0.2981065290663391
1772527332887943200,1.462943115234375,7.447132699733972,4.2753617357328535,0.41041605349406596
1772527332897925400,1.47292529296875,8.95676394022405,3.57692237496525,0.22954596559731288
1772527332907907300,1.4829072265625,10.921111125314235,2.8220427495732903,-0.09163949696784839
1772527332917889300,1.49288916015625,12.77434011465311,2.0561609609127043,-0.26712995591918004
1772527332927871500,1.50287158203125,14.222736257457733,1.5806752000063657,-0.5232824080869555
1772527332937853400,1.512853515625,15.067750327283143,1.3466957637399435,-1.1061582110669463
1772527332947835400,1.52283544921875,15.375485904633997,1.3323907595336437,-1.9497424672849475
1772527332957816300,1.53281640625,15.170142195743322,1.4056629164934158,-2.877243535530567
1772527332967798300,1.54279833984375,14.26762987667322,1.6539149160012603,-3.5764538806706665
1772527332977780200,1.5527802734375,12.990506830853223,2.0065479119598866,-3.969899948532879
1772527332987762400,1.562762451171875,11.779548155814409,2.2118080342203377,-4.194330927470326
1772527332997744400,1.572744384765625,10.802755964046716,2.3539517750933765,-4.3730812284678215
1772527333007726300,1.582726318359375,9.995359384953975,2.513399994249642,-4.746083643238246
1772527333017708300,1.592708251953125,9.232388223043083,2.2808941376671195,-5.184409886312484
1772527333027690500,1.6026904296875,8.658194835147262,2.2114970685750244,-5.3385787037611
1772527333037672200,1.612672119140625,8.266872043049336,2.3811717904523015,-4.802195698821544
1772527333047653400,1.6226533203125,8.126712461730838,2.8213614893108603,-3.775803317582607
1772527333057635300,1.63263525390625,8.095857304739951,3.2500159409374,-2.6558926946908232
1772527333067617500,1.642617431640625,7.721761541774868,3.0625398971706628,-1.5222200884282588
1772527333077599200,1.65259912109375,6.592711919137835,2.294279688940942,-0.07116261745989322
1772527333087581400,1.66258154296875,4.049377097612619,1.3853873134449124,1.3903157097578047
1772527333097563400,1.6725634765625,0.27050036393404003,1.033260951834172,2.4953733391717074
1772527333107545300,1.68254541015625,-4.197562748998403,0.6555357463255524,3.5591584624767303
1772527333117527600,1.692527587890625,-8.4304972556293,-0.2993640548467636,4.177808831736445
1772527333127509200,1.70250927734375,-11.56697040401697,-3.50326414129734,4.557925462426245
1772527333137490400,1.712490478515625,-13.238008596515655,-6.4343947498381135,2.3416664401464162
1772527333147472400,1.722472412109375,-12.84105159792304,-7.089551433718204,-1.8086159406304358
1772527333157454600,1.73245458984375,-11.022826117426156,-6.373889719992875,-4.868738547526299
1772527333167436300,1.742436279296875,-10.42098016797304,-5.815527522957325,-5.920511745998263
1772527333177418500,1.75241845703125,-12.04336977263689,-5.747100467941165,-6.702950993967056
1772527333187400400,1.762400390625,-15.000105947077273,-6.892528978449106,-5.630768336933851
1772527333197382400,1.77238232421875,-17.809077325892446,-7.405745042812824,-4.830886663515866
1772527333207364400,1.7823642578125,-20.072044469463822,-6.011820494908094,-4.75408662469089
1772527333217346300,1.79234619140625,-22.36783836236,-4.7831724339216946,-2.1980466353714463
1772527333227327200,1.8023271484375,-23.10156764769554,-2.805007735881209,-0.7194493425052613
1772527333237309400,1.812309326171875,-21.485808859348296,-0.34806576110832393,-0.4408049081474542
1772527333247291400,1.82229150390625,-19.503753583610056,1.66478819219321,-0.3949890595205128
1772527333257273300,1.8322734375,-17.87861789510846,2.9274913752555847,-0.25001411380954086
1772527333267255600,1.842255615234375,-15.739133338820933,3.642019408775866,0.0956864525374025
1772527333277237500,1.852237548828125,-12.975728948438167,4.343036218816041,0.706619525418058
1772527333287219500,1.862219482421875,-9.648455580297112,5.091696531301737,1.1926322332967072
1772527333297201400,1.872201416015625,-6.110891109991074,5.51398261694014,1.622763990934193
1772527333307183600,1.88218359375,-2.594702605190873,5.649552532380819,2.3631224851511416
1772527333317164500,1.89216455078125,1.1391419775843619,5.629700999963283,3.1462402169033883
1772527333327146500,1.902146484375,4.716421203163266,5.775123031854629,3.2043986836224794
1772527333337128400,1.91212841796875,7.76575499728024,5.937780860707163,2.962171935753524
1772527333347110400,1.9221103515625,9.878068053525686,5.412037323203682,2.7630224053278565
1772527333357092400,1.93209228515625,11.651207022583485,4.338205145397782,2.201382940187305
1772527333367074600,1.942074462890625,14.135221640133857,2.732104704494774,1.0055500842183829
1772527333377056300,1.95205615234375,16.96267326301336,0.8750649246960878,-1.3407967688292264
1772527333387038500,1.96203857421875,18.884083223652837,-0.9299719884037971,-4.525828780941665
1772527333397020400,1.9720205078125,19.19567080025673,-2.517472650516033,-7.659352724134922
1772527333407001600,1.982001708984375,18.03122837719917,-3.3498169161215423,-10.009593662011623
1772527333416983300,1.9919833984375,15.971361547505854,-3.068460519391298,-10.957120011806488
1772527333426965500,2.001965576171875,14.093687852740286,-1.7806822240442037,-10.376745889449118
1772527333436947500,2.011947509765625,13.093436459451913,0.20943331629186868,-8.907447828391193
1772527333446929400,2.021929443359375,12.598697132021188,2.273912608216703,-7.1151932399749755
1772527333456911400,2.031911376953125,12.241493467146158,4.073662520824373,-5.51954083558917
1772527333466893300,2.041893310546875,11.733206091356276,5.465283175700903,-4.246707595917583
1772527333476875500,2.05187548828125,10.859579675030707,6.490732138609886,-2.932870437945425
1772527333486857500,2.061857421875,9.985710097599029,7.2646461348176,-1.4082495719857513
1772527333496838400,2.07183837890625,9.721667531502247,7.610632824629545,0.28894889768585563
1772527333506820400,2.0818203125,9.973299528837204,7.3887670200049875,2.0708613941773772
1772527333516802600,2.091802490234375,10.187858809840678,6.784434514433145,3.665193655875325
1772527333526784500,2.101784423828125,9.339199661511183,6.02279547790885,4.47319872225523
1772527333536766500,2.111766357421875,6.902261267912388,4.780945405521988,4.431302239029109
1772527333546748400,2.12174853515625,3.2183500520855186,2.9526500741705295,4.193788198895752
1772527333556730600,2.131730712890625,-1.008916345781088,0.5897799563452601,4.78754465765655
1772527333566712300,2.14171240234375,-4.703819495743513,-1.9217408000290392,6.229864110895991
1772527333576693500,2.151693603515625,-7.670146505349874,-4.541203460206091,7.568276614937186
1772527333586675500,2.161675537109375,-10.462845963799953,-7.596167076903582,7.09673988391757
1772527333596657400,2.171657470703125,-14.021305338096617,-9.702988549995421,3.424581357465684
1772527333606639400,2.181639404296875,-18.686734605169296,-9.473575398731231,-0.9409539856672287
1772527333616621600,2.19162158203125,-23.18273435729742,-7.534099620047211,-2.2798228551737965
1772527333626603300,2.201603271484375,-26.44500012347698,-5.665167450141906,-1.11301194941923
1772527333636585500,2.21158544921875,-27.897607161974904,-4.286561175139248,-0.2816521648064256
1772527333646567400,2.2215673828125,-25.40041508294344,-3.927061800542474,-2.75891321644336
1772527333656549400,2.23154931640625,-20.120697733473776,-5.185148721981048,-4.992209736633301
1772527333666530300,2.2415302734375,-14.063708894062042,-6.625563218382,-4.563845207864046
1772527333676512500,2.251512451171875,-8.43049608658552,-6.890406579467654,-2.084949833023548
1772527333686494500,2.261494384765625,-4.159363074463606,-6.6304317012012,1.1721439373455942
1772527333696476400,2.271476318359375,-0.7880576723724603,-6.0366620906978845,3.5610242563486096
1772527333706458400,2.281458251953125,2.095974500384927,-5.313613773852587,3.675173198097944
1772527333716440300,2.2914404296875,4.762060672309994,-4.8905999584615225,2.791474008308351
1772527333726422500,2.301422607421875,7.918803286266327,-4.496642141684889,2.678355286389589
1772527333736404500,2.311404541015625,10.630108071577549,-2.5651024166971443,3.0289661288708447
1772527333746386400,2.321386474609375,11.797609882205723,0.21899930927753447,4.513003493899107
1772527333756367400,2.331367431640625,12.13937866206169,2.8217233083605766,6.24282822188735
1772527333766349300,2.341349365234375,11.982979309082031,4.495678265088796,6.751437084716558
1772527333776331500,2.35133154296875,10.886659405136108,5.544288323354721,5.867800731030107
1772527333786313500,2.3613134765625,8.871763351547717,6.338256681075692,4.207243016013503
1772527333796295400,2.37129541015625,5.71473198377788,6.646690177562832,2.3594459885954855
1772527333806277600,2.381277587890625,2.2525457028001545,6.499192508441209,0.7520625221446156
1772527333816259300,2.39125927734375,-0.33313305345773697,6.333897901344299,0.24606910251080988
1772527333826241500,2.401241455078125,-1.4326479540526866,6.162213300949335,0.24173297300264238
1772527333836222500,2.411222412109375,-0.8381903612852096,5.396479104065895,-0.4558395418025553
1772527333846204400,2.421204345703125,1.1476029319375753,4.578020155949891,-1.6527172306492923
1772527333856186400,2.431186279296875,3.7050434357047077,4.046298713080585,-2.3250579813033343
1772527333866168600,2.44116845703125,6.478954022532701,4.100470740512013,-2.436250119073689
1772527333876150300,2.451150390625,8.958596416348218,4.28947589354217,-1.8863591055244207
1772527333886132500,2.461132568359375,10.116616112881898,4.380328423117101,-1.1771010482963173
1772527333896114400,2.471114501953125,10.378209532260895,4.483323518167436,-0.3481554121531546
1772527333906096400,2.481096435546875,10.196704964119196,4.600740814062953,0.11067987739928066
1772527333916078300,2.491078369140625,9.769644503685832,4.672596674484014,0.24381204429902134
1772527333926059500,2.5010595703125,9.485780215787887,4.7090731784880155,0.10482092223800718
1772527333936041500,2.51104150390625,9.516500932744146,4.512814693328738,-0.11554828715324401
1772527333946023400,2.5210234375,10.069386744195223,4.29606900819689,-0.20414558514729142
1772527333956005400,2.53100537109375,10.845060151290893,4.118215656039118,-0.2551310914970934
1772527333965987300,2.5409873046875,11.630203982043266,3.9350943003505465,-0.049814782069996
1772527333975969300,2.55096923828125,12.320353653371333,3.9580654260933397,0.3529330748837441
1772527333985951500,2.560951416015625,12.707168028134108,4.063939291450381,0.5350920152809471
1772527333995933400,2.570933349609375,12.934789035284519,4.154814617379009,0.09943221493698656
1772527334005915400,2.580915283203125,12.807454448747635,4.127487342253327,-0.681410996012017
1772527334015896300,2.590896240234375,11.755770974385738,4.115520425605774,-1.3716874355249107
1772527334025878500,2.60087841796875,9.309489582902193,3.498868828947842,-1.508122004970908
1772527334035860500,2.610860595703125,5.675348067894578,2.296446803846955,-0.6146583770141005
1772527334045842400,2.620842529296875,1.9954402424901723,1.7566913998648523,0.7570994933985173
1772527334055824600,2.63082470703125,-1.4501777655243873,1.2135580438822506,2.389770107449591
1772527334065806300,2.640806396484375,-5.061686592963338,-0.5756885948896407,3.6417625114053487
1772527334075788500,2.65078857421875,-8.396936931332945,-3.6240862772002815,4.270712740883231
1772527334085770500,2.6607705078125,-11.27411090875864,-5.833693878766894,3.5177576538130637
1772527334095751400,2.67075146484375,-15.610578270578383,-5.392903583666682,1.5936274744294583
1772527334105733400,2.6807333984375,-21.973141125392914,-3.6449648145779965,0.7537767056513577
1772527334115715300,2.69071533203125,-27.19068638858795,-1.6749007131457327,-0.2136507878564298
1772527334125697300,2.700697265625,-28.750868835663795,-0.5064535844914615,-1.7514155052885412
1772527334135679200,2.71067919921875,-28.0172728213191,-0.7862358637727797,-3.0335712845787404
1772527334145661400,2.720661376953125,-26.440352005410194,-1.71847214384675,-4.06556426230371
1772527334155643100,2.73064306640625,-24.800094735622405,-2.3574098065927624,-4.91221908507347
1772527334165625300,2.740625244140625,-23.495348354339598,-2.0031597308263183,-4.53238360941261
1772527334175607300,2.750607177734375,-22.692949437403676,-0.9048473378889262,-2.854430522958934
1772527334185588500,2.76058837890625,-22.454067031526563,0.252518132519722,0.20238175381254403
1772527334195570200,2.770570068359375,-21.893445072865486,1.140783753442019,3.244681301911175
1772527334205552400,2.780552490234375,-20.33309895966053,1.3356849787734448,4.130634115846455
1772527334215534300,2.790534423828125,-17.87254237458706,1.1356064969345927,3.350952934414148
1772527334225516300,2.800516357421875,-14.585953483533858,1.0411758166119456,2.333818649255484
1772527334235498200,2.810498291015625,-10.615904189658165,1.0295593208372593,1.7033140299424527
1772527334245480200,2.820480224609375,-5.902011043667793,0.9839964240580796,1.4196680609703063
1772527334255462400,2.83046240234375,-0.9304951354950666,0.8625351134687662,1.1021217951577156
1772527334265443300,2.840443359375,3.7024411442518232,0.7909773592114449,0.39187322905492034
1772527334275425300,2.85042529296875,7.38848235784471,1.1772633261859415,-0.41324857350625094
1772527334285407200,2.8604072265625,9.67525883154869,2.000233614246547,-1.09923221119605
1772527334295389400,2.870389404296875,10.630032083731889,3.2118808560714123,-1.4382624329335987
1772527334305371400,2.880371337890625,10.606107602787016,4.4600402577355505,-1.313305243052542
1772527334315353300,2.890353271484375,10.184428835391998,5.527249510270357,-1.0949544608116148
1772527334325335300,2.900335205078125,9.888405907666682,6.336944429433346,-1.0469520619258283
1772527334335317200,2.910317138671875,10.108826774179935,6.826231336677074,-1.1355828968632966
1772527334345299200,2.92029931640625,10.576661728072166,6.954766531175374,-1.285485946626216
1772527334355280400,2.9302802734375,10.996907247793674,6.779649033722281,-1.3831395345181225
1772527334365262300,2.940262451171875,11.439206778413057,6.296479732576012,-1.390785373096168
1772527334375244300,2.950244384765625,11.89394493484497,5.684699833607674,-1.5698391870848833
1772527334385226200,2.960226318359375,12.442757213246821,5.014077869570255,-1.9735694792047143
1772527334395208400,2.97020849609375,13.249661624908446,4.900392161418497,-2.09758222784251
1772527334405190100,2.980190185546875,13.796329877018927,5.049270763504505,-1.5503911209017038
1772527334415172400,2.99017236328125,13.871791652977466,5.419214667487144,-1.7683812531366943
1772527334425154300,3.000154296875,13.113701833367347,5.685248115140199,-2.3376265171058477
1772527334435136300,3.01013623046875,11.975027473294734,5.412986002230644,-2.8367364608362315
1772527334445117200,3.0201171875,11.299930409669875,4.976576114171743,-3.3634532272860405
1772527334455099400,3.030099365234375,11.082755977731942,4.678067214849591,-3.950995049315691
1772527334465081000,3.0400810546875,10.95485908113718,4.488422302611172,-4.425082049340009
1772527334475063300,3.050063232421875,11.101797362810373,4.101791759982705,-4.631178037902712
1772527334485045200,3.060045166015625,11.412653118008375,3.82951035785079,-4.657313472895324
1772527334495027200,3.070027099609375,11.356493423891067,3.839120774500072,-4.349382957494258
1772527334505009400,3.080009521484375,10.200851562404631,3.8099803124725815,-3.6457121258139606
1772527334514991400,3.089991455078125,7.912723674091696,3.4372423938572405,-2.531604051721096
1772527334524972300,3.09997216796875,5.692732333415746,2.9067504927828907,-0.9057424600977451
1772527334534954200,3.109954345703125,4.6633916237652295,2.269383732615411,0.9565444265741855
1772527334544936400,3.1199365234375,4.498210998436808,1.3630521475180983,2.1334419151224195
1772527334554918400,3.12991845703125,3.7048780160099266,-0.11418079819232224,2.396497369877994
1772527334564900400,3.139900390625,0.9662509240090846,-2.315346442367136,2.5436674144804474
1772527334574882300,3.14988232421875,-4.082176374408602,-5.319775803613663,2.698419584774971
1772527334584864300,3.1598642578125,-10.703842000830173,-9.02485781776309,2.873772644549608
1772527334594846200,3.16984619140625,-16.602016242814063,-11.064926891052723,1.7252110967129468
1772527334604828400,3.179828369140625,-19.306978965622186,-11.659669730502367,-0.6240501094114035
1772527334614809300,3.189809326171875,-18.781103326171635,-12.342876450824736,-2.4288329746849833
1772527334624791300,3.199791259765625,-17.68191575783491,-12.350872710275649,-3.941835006782412
1772527334634773200,3.209773193359375,-18.341207349562644,-12.070403910034894,-4.023900418789685
1772527334644755500,3.21975537109375,-19.731904167592525,-11.19786821155548,-3.310644889423251
1772527334654737200,3.229737060546875,-20.334207213163374,-9.726425539684294,-2.7691283209875226
1772527334664719400,3.23971923828125,-20.218333931839464,-7.545507149246334,-2.962321281096339
1772527334674701300,3.249701416015625,-19.919706374573707,-5.1319712585449215,-2.288778753437102
1772527334684683300,3.259683349609375,-19.231431849467754,-2.9430288438662884,-0.5127775268159807
1772527334694664200,3.269664306640625,-17.965724516153333,-1.30770464656651,1.1718906932368873
1772527334704646400,3.279646484375,-16.120267329859733,-0.5894143379032611,2.6009341930568217
1772527334714628000,3.289628173828125,-13.421062147665022,-0.30746260562837124,3.629327977246046
1772527334724610300,3.2996103515625,-9.985957934880256,-0.3311033011958003,4.1387072399258615
1772527334734592300,3.30959228515625,-6.275640358164906,-0.6042392743304371,4.667306166860461
1772527334744574200,3.31957421875,-2.7381641506642103,-0.7257531918898225,5.196767848104238
1772527334754556400,3.329556396484375,0.0647457361549139,-0.38954029259532685,5.15573382692635
1772527334764538400,3.339538330078125,2.0342823065817357,0.6614549072414636,4.357686675459147
1772527334774520300,3.349520263671875,3.0500030716806648,1.9424960032880305,3.368796926401555
1772527334784501200,3.359501220703125,2.9313223317205903,3.3218016587316987,2.4045006435915828
1772527334794483500,3.3694833984375,2.191374902522564,4.2830449837118385,1.5360960535675285
1772527334804465400,3.37946533203125,2.2055483893036842,4.816534020775556,0.4013395245257765
1772527334814447400,3.389447265625,3.137915748411417,5.355088524535298,-1.0518436333596706
1772527334824429300,3.39942919921875,4.566184464466572,5.426077538993955,-2.023174929372966
1772527334834411300,3.409411376953125,6.297769772386551,5.113415026634931,-2.5740523236110806
1772527334844393200,3.419393310546875,8.264652028912305,4.816080139528214,-2.9541829828262327
1772527334854375400,3.42937548828125,10.34170263311863,4.593644718322158,-3.207663238376379
1772527334864356400,3.4393564453125,12.208437585240603,4.473858355207741,-3.361147872953117
1772527334874338300,3.44933837890625,13.83841779116392,4.582691070370376,-3.3924954896360635
1772527334884320300,3.4593203125,15.023917030775547,4.773219195184112,-3.3707395849019286
1772527334894302500,3.469302490234375,15.547199731123447,5.1633255972295995,-3.3920758029192686
1772527334904284200,3.4792841796875,15.361356841516494,5.780820366713404,-3.510404076179862
1772527334914266400,3.489266357421875,14.433726447802782,6.236921043670177,-3.653445934936404
1772527334924248300,3.499248291015625,13.157965337985754,6.957999521747231,-3.4340134949386116
1772527334934230300,3.509230224609375,11.776139224153756,7.616210332500934,-2.948926377472281
1772527334944212200,3.519212158203125,10.808766018116474,8.159687679615617,-2.5269085873812434
1772527334954193400,3.529193359375,10.089096822315454,8.226779102113843,-1.923074678981304
1772527334964175000,3.539175048828125,9.776389301770925,7.953250330269336,-1.480968478976935
1772527334974157300,3.5491572265625,9.577619126051664,7.392850489926338,-1.297525490118563
1772527334984139300,3.55913916015625,9.175040780445933,6.44307431537807,-1.0602964044064283
1772527334994121200,3.569121337890625,8.788657198315859,5.5826376354932785,-0.6541055673919618
1772527335004103400,3.579103515625,8.61772546211481,4.76229331202209,-0.12126045425496995
1772527335014085400,3.58908544921875,8.247780973610281,3.5739895363837477,0.24802118642665444
1772527335024067300,3.5990673828125,7.081699551174045,1.4010793880954384,0.3134760206989944
1772527335034048300,3.60904833984375,4.687583231213688,-1.2888473858833311,0.7857574326060712
1772527335044030200,3.6190302734375,0.3575783434063196,-3.4282831345930695,1.69211532118842
1772527335054012400,3.629012451171875,-6.562597351381182,-4.351373546789587,2.369204873804748
1772527335063994400,3.638994384765625,-13.996145177876949,-6.347475175797939,3.352667337116599
1772527335073976300,3.648976318359375,-18.29254122607112,-8.768947120195627,3.15116130669266
1772527335083958300,3.658958251953125,-19.494424614250658,-10.532088426852226,1.1612301830127834
1772527335093940200,3.668940185546875,-19.291533559209107,-11.679029095488787,-0.05430559068322181
1772527335103922400,3.67892236328125,-18.115944303715228,-11.971169628822803,0.4499071195462718
1772527335113903400,3.6889033203125,-16.334326260125636,-11.761481753247976,0.9386110027376562
1772527335123885300,3.69888525390625,-15.172206727057695,-11.335575723546743,0.8967143003158271
1772527335133867300,3.7088671875,-15.003624768853186,-10.76356377134323,0.5487840752206743
1772527335143849500,3.718849365234375,-15.02486278719306,-10.55136362068653,-0.21057379156388342
1772527335153831200,3.7288310546875,-14.440289459580182,-10.505675051701068,-1.2445720446966588
1772527335163813400,3.7388134765625,-13.403282160824537,-9.318880511581897,-1.130929591164738
1772527335173795300,3.74879541015625,-12.183776606714725,-7.509996275404095,0.5250042269108817
1772527335183777300,3.75877734375,-10.526584568738937,-5.476493721023202,2.5484575713664293
1772527335193759200,3.76875927734375,-8.643962311655283,-3.5447985132128,4.6762622112542385
1772527335203740400,3.778740478515625,-6.995613505348563,-1.8113506262913346,6.522780304777622
1772527335213722000,3.78872216796875,-5.34307367709279,-0.21766630710810422,7.914716309213638
1772527335223704300,3.798704345703125,-3.2840327768296,1.1605457078799604,8.544267427194118
1772527335233686300,3.808686279296875,-0.8645639889478683,2.4348507736697793,7.898297673854231
1772527335243668200,3.818668212890625,1.4300240352898834,3.609922727291286,5.950812191715836
1772527335253650200,3.828650146484375,3.180269620016217,4.709489358073473,3.6473204377934336
1772527335263632400,3.83863232421875,4.409830119672417,5.596906983864307,1.7512904176041484
1772527335273614300,3.8486142578125,4.788218611395359,6.270372062373161,-0.23727128088604657
1772527335283595300,3.85859521484375,4.679832470956445,6.1389855700969695,-2.025164641885459
1772527335293577200,3.8685771484375,5.187815895363689,5.333482841926813,-3.0706080528140065
1772527335303559400,3.878559326171875,6.536683742445707,3.646787646090984,-5.0698815898567435
1772527335313541400,3.888541259765625,9.372702702662348,2.6170909626096486,-7.173644259899854
1772527335323523300,3.8985234375,13.479528365159034,2.9409558369845152,-6.874013663071394
1772527335333505300,3.90850537109375,16.366294931316375,3.641463236197829,-4.707235149405896
1772527335343487200,3.9184873046875,17.41700809934139,4.004723132371902,-3.4057015926897525
1772527335353469400,3.928469482421875,17.531740393936634,4.246832099080086,-3.427782199333608
1772527335363451100,3.938451171875,17.133879724502563,4.325437433761358,-4.005197764146327
1772527335373432300,3.948432373046875,16.271611737537384,4.541367418596148,-4.476690071502327
1772527335383414300,3.958414306640625,14.99321326495409,5.016650934928656,-4.404638688509166
1772527335393396500,3.968396484375,13.615000665444136,5.766578490871191,-4.094624937093258
1772527335403378200,3.978378173828125,12.438480851101875,6.770814569881558,-3.8103088137745855
1772527335413360400,3.9883603515625,11.461191815727949,7.859711045828461,-3.4051211624532938
1772527335423342300,3.99834228515625,10.64742979325652,8.930537612077593,-2.6726538598775864
1772527335433324300,4.00832421875,9.543940143811701,9.811922387444973,-1.9010336736954747
1772527335443306200,4.01830615234375,8.174674236345291,10.346658209699392,-1.3435500130601226
1772527335453287400,4.028287353515625,7.090369764363765,10.195065964740515,-1.0460612505659461
1772527335463269000,4.03826904296875,6.18605711787343,9.352247359132766,-0.7890706488072872
1772527335473251300,4.048251220703125,5.317385109084844,8.111894831827282,-0.005071750306338071
1772527335483233300,4.0582333984375,4.653650566473603,6.652090575301647,1.3368132521510123
1772527335493215200,4.06821533203125,3.9878684436827894,5.3866041912615295,2.6900316956579684
1772527335503197200,4.078197265625,2.3501439072430133,4.16432654208988,3.594032791981101
1772527335513179400,4.088179443359375,-1.000495723438263,2.4654063631922005,3.602847966599464
1772527335523161300,4.098161376953125,-5.8797787535935635,0.22502982161343096,3.227563870632648
1772527335533143300,4.108143310546875,-11.50352289097905,-2.21382726508826,3.7630119328096505
1772527335543124200,4.118124267578125,-16.17238563963175,-4.779862578721344,4.250415218263864
1772527335553106400,4.1281064453125,-18.38774464433193,-6.901981866449117,3.2842797373279926
1772527335563088400,4.13808837890625,-18.876926337635517,-8.481843996506928,0.8381374620541929
1772527335573070300,4.1480703125,-18.01731675622463,-10.462392374813556,-0.6147858027860522
1772527335583052300,4.15805224609375,-14.994560003387926,-12.331955243837832,-1.3979776226878164
1772527335593034200,4.1680341796875,-12.071011812800169,-12.77228727377653,-2.5019123855516314
1772527335603016400,4.178016357421875,-11.809568031024932,-12.55557344508767,-1.96598223894611
1772527335612998100,4.187998046875,-12.614948009598255,-11.66352523688674,-2.3318378507018087
1772527335622979300,4.197979248046875,-12.65445467507839,-10.103249266308545,-4.0105256811708205
1772527335632961300,4.207961181640625,-13.316729666531085,-8.54148393395543,-3.7885043937236067
1772527335642943500,4.217943603515625,-15.551850187277793,-6.507929357126355,-0.7916462714489549
1772527335652925200,4.22792529296875,-18.060182084482907,-4.492469824436307,2.4479675910048186
1772527335662907400,4.237907470703125,-19.41467478570938,-3.350598714148998,3.6765509161919354
1772527335672889300,4.247889404296875,-19.230996965181827,-2.7850027664676307,3.1693709171220656
1772527335682871300,4.257871337890625,-17.673662308752537,-2.088060366259515,2.694301335801184
1772527335692853200,4.267853271484375,-14.348399111390114,-1.2964929322004317,2.493915833839774
1772527335702834400,4.27783447265625,-9.537131632840634,-0.5880298978075384,2.2611375900566575
1772527335712816000,4.287816162109375,-3.954697995486855,-0.13731559006422758,1.6702940961331127
1772527335722798300,4.29779833984375,1.3433932150632142,0.34675767418444153,0.7529924234058708
1772527335732780300,4.3077802734375,5.394074965533614,1.0486281784445046,-0.36848756769448515
1772527335742762200,4.31776220703125,8.003942406630516,2.0498051621451974,-1.5436197270706296
1772527335752744200,4.327744140625,9.613870004606246,3.596414426420629,-2.425917379499227
1772527335762726400,4.337726318359375,10.550345383554696,5.2610430441379545,-3.0137989548772572
1772527335772708400,4.347708251953125,10.604661495631932,6.6159419880777595,-3.1828631436407564
1772527335782689300,4.357689208984375,10.074849685776233,7.474471957558393,-2.9751892382368443
1772527335792671200,4.367671142578125,9.940849211609363,7.735272765254974,-2.565388247901201
1772527335802653400,4.3776533203125,10.697049856472015,7.632669299870729,-2.306191076008975
1772527335812635400,4.387635498046875,11.9260047914505,7.264920275583862,-2.2866619074136016
1772527335822617300,4.397617431640625,13.224141399204731,6.79626816008985,-2.0108866718165577
1772527335832599300,4.407599365234375,14.515109430503845,6.5443409792006015,-1.52079122466892
1772527335842581200,4.417581298828125,15.450141040384768,6.529989213243127,-1.2628696256704628
1772527335852563500,4.4275634765625,15.673655196738242,6.6350599455237385,-1.2157496356423942
1772527335862544400,4.43754443359375,15.370077908110618,6.873311067759991,-1.3859092914924025
1772527335872526300,4.4475263671875,14.639900177776813,7.169613396948575,-1.9001590828180313
1772527335882508300,4.45750830078125,13.411430395966768,7.412348971122503,-2.5947867763429877
1772527335892490500,4.467490478515625,11.64832416062355,7.339903328114747,-3.1152287003070116
1772527335902472200,4.47747216796875,10.00506712449789,7.146887185877561,-3.533675353913009
1772527335912454400,4.487454345703125,8.91010214229226,6.872768631446361,-3.7951334564745425
1772527335922436400,4.497436279296875,8.469281452053785,6.450442798319458,-3.7408468627527354
1772527335932418300,4.507418212890625,8.588847742676734,5.7451943420588965,-3.6947178565233942
1772527335942400300,4.517400146484375,8.454365622472762,4.810160978612304,-3.5474738699018955
1772527335952381400,4.52738134765625,7.524891646718978,3.6380090040907263,-3.169071934175491
1772527335962363100,4.537363037109375,6.2703954432487485,2.1400264080792666,-2.761118909794092
1772527335972345300,4.547345458984375,4.782590834641456,-0.0018210779473185538,-2.4066923084169627
1772527335982327300,4.557327392578125,2.957054738870263,-2.5883190416336057,-2.1080469232335686
1772527335992309200,4.567309326171875,0.30839900969564915,-4.716430263252556,-1.462939778072387
1772527336002291200,4.577291259765625,-3.561193767696619,-5.920231760013103,-0.4593621629707515
1772527336012273400,4.5872734375,-8.826882007291912,-6.179701026844978,0.9565582359038293
1772527336022255400,4.59725537109375,-14.534202253508568,-6.265743818050622,2.7502397883832455
1772527336032236300,4.607236328125,-19.602957469683883,-6.679379564243555,4.214676088623702
1772527336042218200,4.61721826171875,-23.294464547467232,-7.07859281733036,4.673091764524579
1772527336052200200,4.6272001953125,-24.716152716088292,-6.875007350283861,4.360954737344384
1772527336062182400,4.637182373046875,-24.414389783406257,-7.248510992574691,3.9617008599862453
1772527336072164400,4.647164306640625,-24.721170251989363,-8.283508120551705,3.5406808487609025
1772527336082146300,4.657146240234375,-25.479514923143384,-9.207762900352478,2.921649371229112
1772527336092128300,4.667128173828125,-24.821125833213326,-9.739280929604172,0.8524003806844354
1772527336102110500,4.6771103515625,-23.08554239556789,-9.778162156662344,-2.8248481623828408
1772527336112091000,4.6870908203125,-21.411953349542618,-9.259090936529637,-4.43169328417331
1772527336122072800,4.69707275390625,-19.813028791618347,-7.554773574763536,-3.347408101414144
1772527336132055000,4.707054931640625,-18.6744923787117,-5.134947059485316,-0.3417011214472353
1772527336142037000,4.717037109375,-18.18940467672348,-2.4856302360534666,3.870816181707382
1772527336152019000,4.72701904296875,-17.020682384389637,0.12189181096106767,7.866311467006802
1772527336162001000,4.7370009765625,-14.022991099226473,1.766257392850518,9.601558220043778
1772527336171983000,4.746983154296875,-9.219805220323801,1.653786613446474,8.827942329999804
1772527336181964800,4.75696484375,-3.248101631748676,0.22141806085705756,5.345092615699768
1772527336191946000,4.766946044921875,2.946954200616479,0.2390928337574005,1.9247030108354986
1772527336201928000,4.776927978515625,7.915136580452322,2.3655127412885424,0.20263974716160446
1772527336211910000,4.786909912109375,10.581012909018993,4.6149429424166675,-0.8434133566305041
1772527336221891800,4.796891845703125,11.401778672772645,5.3377399148494,-2.5849808371216056
1772527336231874000,4.8068740234375,12.036996145951747,6.6844076215386385,-3.2960549307957288
1772527336241855700,4.816855712890625,12.799499105829,8.402372400385142,-1.7799331592425702
1772527336251838000,4.826837890625,13.75992000851035,9.704873633089662,-0.16313932875916362
1772527336261820000,4.83681982421875,15.05634162904024,10.434220757818222,0.6227025672599673
1772527336271801900,4.8468017578125,16.264702688801286,10.385567493808269,0.8286825282275676
1772527336281782800,4.85678271484375,17.05661528303623,10.32279218094349,0.8042907220318913
1772527336291765000,4.866764892578125,17.490176211404798,10.516346083319187,1.5337801778405904
1772527336301747000,4.876746826171875,17.58310350142717,9.810521872997283,0.7244720660381019
1772527336311729000,4.88672900390625,17.83279722417593,9.677783381590247,0.33846900765821336
1772527336321710800,4.8967109375,17.92065554037094,9.696330845671891,0.13687675112239084
1772527336331693000,4.906693115234375,17.691175753611326,9.379843222066759,-0.5443157341675833
1772527336341675000,4.916675048828125,16.815501172584295,9.383898634937404,-1.7748140626631677
1772527336351657000,4.926656982421875,15.386542720699309,9.38126185669303,-2.9770968254238364
1772527336361638000,4.936637939453125,12.133806999409199,9.557069674497843,-3.1191619481027124
1772527336371619800,4.946619873046875,8.71480110398829,9.665023268738388,-2.9587364083468914
1772527336381602000,4.95660205078125,6.946597253245115,9.513386015594005,-3.3508144027262925
1772527336391584000,4.966583984375,5.7500803605347865,8.757924790921807,-3.6920080130428072
1772527336401566000,4.97656591796875,4.997184017914534,7.892670481622218,-3.6946509287670253
1772527336411548000,4.9865478515625,5.0398389182925225,7.170690086269378,-3.2452515030145643
1772527336421530000,4.996530029296875,5.448246700704098,6.302685016956925,-2.4922195513159036
1772527336431511800,5.00651171875,5.548508571398258,5.116223654314875,-1.761727640466392
1772527336441493000,5.016492919921875,5.239450221011042,3.467258761936426,-0.4551880190912634
1772527336451475000,5.026474853515625,4.972404965966939,2.1138415809869766,0.9965866602357476
1772527336461457000,5.036456787109375,4.633301605927944,1.4935428599983454,1.735050645942986
1772527336471438800,5.04643896484375,3.466286702033877,0.9749497787714004,1.3216891866467892
1772527336481421000,5.056421142578125,1.2847791135311126,-0.6157672150388359,0.5874825295904651
1772527336491402800,5.06640283203125,-1.9778642537891864,-3.4914500771239396,0.605743358750455
1772527336501385000,5.076385009765625,-7.058353162378072,-6.513592205193638,1.5592638709262012
1772527336511367000,5.086366943359375,-13.930935915863513,-8.096127353852987,2.12731890219748
1772527336521348000,5.09634814453125,-20.27805570235252,-8.283859418207406,1.2867122735507786
1772527336531329800,5.106329833984375,-24.14078210110664,-8.977700345268845,-0.7712566866319626
1772527336541312000,5.11631201171875,-24.772065741968152,-10.568443350303172,-3.386484851044416
1772527336551294000,5.1262939453125,-23.460641782617568,-11.705831762218475,-5.515708125558495
1772527336561276000,5.13627587890625,-22.595409100627897,-11.982261516201495,-5.384661240500211
1772527336571257900,5.1462578125,-23.02860762542486,-10.521294645637273,-3.285912891487777
1772527336581240000,5.156239990234375,-24.11835516524315,-7.622631889981031,-0.6423314699027687
1772527336591222000,5.166221923828125,-25.07389881727695,-4.697012446077168,1.6600183474428951
1772527336601204000,5.176203857421875,-25.4144389321208,-1.689458523069322,3.6728038386180994
1772527336611185000,5.186184814453125,-24.63987494757175,0.28525428095161914,6.20351386410892
1772527336621166800,5.196166748046875,-22.402198897123334,0.9849968332722783,8.685238909417391
1772527336631148800,5.206148681640625,-18.685394880998132,0.9685583241686224,9.995857397603988
1772527336641131000,5.216131103515625,-14.07905843888521,0.7634656674295663,9.569939677464962
1772527336651113000,5.226113037109375,-9.453469014769793,0.6515954842671752,7.7435267988592384
1772527336661095000,5.236094970703125,-5.152462842431664,0.6555129499718546,5.109475349098443
1772527336671077000,5.2460771484375,-1.361877550780773,0.45877574138492344,1.9423443198576569
1772527336681058000,5.25605810546875,2.1114485483706,-0.023161095356941223,-1.6841460958749055
1772527336691040000,5.2660400390625,5.2045717998534435,-0.1480044495999813,-4.879402272620797
1772527336701022000,5.27602197265625,7.618898548671603,0.08680471548885106,-7.1394508983969684
1772527336711004000,5.28600390625,9.231081232097745,0.9877890943393111,-8.028427444067598
1772527336720985900,5.29598583984375,10.38774892950058,2.9126392585605383,-7.002710770133137
1772527336730968000,5.305968017578125,11.29201364519596,5.221189172655344,-4.727414598603547
1772527336740949800,5.31594970703125,11.763895828652382,6.931506651619077,-2.7268787865400315
1772527336750932000,5.325931884765625,12.264229030567407,8.073177270898222,-1.5929624346494673
1772527336760913000,5.335912841796875,13.042649690544604,8.75737884747684,-0.9753193427361547
1772527336770895000,5.34589501953125,14.06637899005413,9.04852394003272,-0.5919898144144564
1772527336780876800,5.355876708984375,15.057426501667498,9.030291533249617,-0.43601708934903144
1772527336790859000,5.36585888671875,15.750148069310187,8.811270596662164,-0.3190827546648681
1772527336800841000,5.375841064453125,15.884764629548787,8.37120803131461,-0.16702245380282402
1772527336810823000,5.385822998046875,15.722731654596327,7.959382549414038,-0.28966574071832
1772527336820804900,5.395804931640625,15.466578964966535,7.810179829940199,-0.5771077409725636
1772527336830786800,5.405786865234375,14.98910992128849,7.834151657158136,-1.0007152114078401
1772527336840768800,5.415768798828125,14.307924477660656,7.780462152546644,-1.4535919578820466
1772527336850750000,5.42575,13.567699985086916,7.735164628705382,-1.9644746108621358
1772527336860732000,5.43573193359375,12.690045043897628,7.656987748569249,-2.3610835266694425
1772527336870713900,5.4457138671875,11.489956137919425,7.684697593271732,-2.739514103968441
1772527336880695800,5.45569580078125,10.18380924218893,7.616488564920425,-3.1431229616656897
1772527336890678000,5.465677978515625,9.1159070389539,7.236723524147272,-3.525592585222423
1772527336900660000,5.475659912109375,8.305307279905676,6.607358284127712,-3.923393048901856
1772527336910642000,5.485641845703125,7.517617271801829,5.8245350052773945,-3.998992479765415
1772527336920624000,5.4956240234375,6.82153879494667,5.162219097292423,-3.1435169294193384
1772527336930605000,5.50560498046875,6.200328804332018,4.538583925357461,-1.5768381060615182
1772527336940587000,5.5155869140625,5.534476538914442,3.7325285317406056,0.1055913220886141
1772527336950569000,5.52556884765625,5.0626855408728115,2.378323415283859,1.7327958527535199
1772527336960551000,5.535551025390625,4.67461853570044,0.3045426265284419,2.7529730127394196
1772527336970532900,5.545532958984375,3.7142934946089983,-2.6958208004534243,3.5047187240198254
1772527336980515000,5.55551513671875,2.1356208665966987,-6.2307169283330435,4.6264317201584575
1772527336990496800,5.565496826171875,-0.35274317833483215,-8.707810806709528,5.475687080815434
1772527337000479000,5.57547900390625,-4.32739149043858,-9.537474162667989,5.022883107316494
1772527337010460000,5.5854599609375,-9.543401799151301,-9.748085582828521,4.226982612489164
1772527337020442000,5.595442138671875,-15.294907224053144,-9.42712169059217,3.352758230270445
1772527337030423800,5.605423828125,-21.872654798293112,-8.694275617831945,2.0090518576048315
1772527337040406000,5.615406005859375,-29.747897175252437,-7.895052408322692,1.83036819210276
1772527337050388000,5.625387939453125,-36.54284490039348,-7.080732167446613,3.3500641688808797
1772527337060370000,5.635369873046875,-39.266118355917925,-5.6909781832247965,4.796983809392154
1772527337070352000,5.645351806640625,-37.48955525763034,-3.889746507626772,5.024090145018697
1772527337080333800,5.655333740234375,-33.56171078227758,-1.8283790641121564,3.9698414963439106
1772527337090314800,5.665314697265625,-29.036599501955507,0.41517844559028744,2.8238717185661195
1772527337100297000,5.675296875,-24.278539881980418,1.835675650861114,3.333401787893474
1772527337110279700,5.68527978515625,-19.67987938132286,2.832473834955692,4.694612691459059
1772527337120262000,5.695261962890625,-14.97280877482891,3.0007565179526803,5.70563039343357
1772527337130243800,5.705243896484375,-9.688827922695875,2.563647833974659,5.72060701329112
1772527337140225800,5.715225830078125,-4.773523731088638,2.0052087723106147,4.362185155922174
1772527337150207700,5.725207763671875,-0.6040092649668455,1.4431705171108244,2.0791882007569074
1772527337160190000,5.73518994140625,3.112088648715615,1.1472086719229817,-0.37865240335613487
1772527337170171000,5.7451708984375,6.181873694708943,1.2999775594457983,-2.5460247912615537
1772527337180152800,5.75515283203125,8.384259820589422,1.9226827570542693,-3.989230964207649
1772527337190134800,5.765134765625,9.857108267605303,2.7486750232845543,-4.495392726145685
1772527337200117000,5.775116943359375,10.637202998274564,3.3891847576528784,-4.312008627867699
1772527337210098700,5.7850986328125,10.819752691555022,3.761360950732231,-4.157038430908322
1772527337220081000,5.795080810546875,10.744487314951419,4.101806957551837,-4.362219642713666
1772527337230062800,5.805062744140625,10.085369910746813,4.342176387116313,-4.563433119931817
1772527337240044800,5.815044921875,8.84141789764464,4.334567373417317,-4.517825214967131
1772527337250025700,5.825025634765625,7.89984957947135,4.126721618577838,-4.311123661726713
1772527337260008000,5.835008056640625,7.7268474667370315,3.871263925474882,-4.219257571195066
1772527337269989600,5.84498974609375,8.512664082184433,3.4154467416346073,-4.148606410388648
1772527337279971800,5.854971923828125,10.059454548245668,2.685665024881065,-4.208160715380311
1772527337289953800,5.864953857421875,12.00400105432272,2.029238759456575,-4.559126362648606
1772527337299935700,5.874935791015625,13.886269091141223,1.5006313569545744,-4.916699445357918
1772527337309917700,5.884917724609375,15.206993962800501,1.206552841295302,-5.210083841273188
1772527337319900000,5.89489990234375,15.783783796930312,1.0707140457853674,-5.449914926177263
1772527337329880800,5.904880859375,15.711868899798393,1.301322544313967,-5.627913532024621
1772527337339862800,5.91486279296875,14.891737926816939,1.7588661135554313,-5.614551361626386
1772527337349844700,5.9248447265625,13.366049285495281,2.229568147316575,-5.515707541036606
1772527337359826700,5.93482666015625,11.305281123048067,2.440632279680669,-4.809650983263552
1772527337369809000,5.944808837890625,9.409300202697516,2.5812977646946904,-3.769839440742135
1772527337379790800,5.954790771484375,7.983267867392301,2.848205364833772,-3.2821053158983586
1772527337389772800,5.964772705078125,6.996243619945645,3.144585143172741,-3.0892583927482367
1772527337399754800,5.974754638671875,6.128768711987138,3.0189138136729596,-2.7236776524111628
1772527337409736000,5.98473583984375,5.19724949414134,2.616461140273511,-2.08307687875852
1772527337419718000,5.9947177734375,3.966597107595205,2.3412764179155228,-1.2727429310396312
1772527337429699800,6.004699951171875,2.422210195544362,1.9071882508024571,-0.18894158627465366
1772527337439681800,6.014681884765625,1.1352321106642485,1.1321192393407224,1.1017155524443834
1772527337449664000,6.0246640625,0.3503489766746759,0.11210633000582455,1.9525313673511147
1772527337459645700,6.034645751953125,0.18706863200962542,-1.2092334586814044,1.7384832507401704
1772527337469628000,6.0446279296875,0.23770108713805674,-2.980798018029332,1.0119942188564688
1772527337479609600,6.054609619140625,-0.7434867092400789,-4.826961014504731,0.386090225206688
1772527337489590800,6.0645908203125,-3.533703118702769,-6.273219268497824,0.29993359836302697
1772527337499572700,6.07457275390625,-7.6121385530173775,-6.460638029119372,0.6336213630940765
1772527337509555000,6.084554931640625,-12.07426993781328,-6.184186647826433,1.554424906462431
1772527337519536600,6.09453662109375,-15.466184997212887,-5.898374732992052,2.528365800452232
1772527337529518800,6.104518798828125,-17.160754871946573,-6.329349151998758,2.950236291027069
1772527337539500800,6.114500732421875,-17.668649449026585,-6.976425405275822,2.337389639610052
1772527337549482800,6.124482666015625,-17.198230908381937,-7.173515080562233,0.3303823665101081
1772527337559464700,6.134464599609375,-16.039652408921718,-7.575441684260964,-1.7832880226284265
1772527337569446000,6.14444580078125,-14.227873035824299,-7.8975921559333795,-2.687980900608003
1772527337579427800,6.154427734375,-12.275447174674271,-6.069055124780536,-3.70363152308017
1772527337589409800,6.164409912109375,-10.58103628989458,-3.0813372443601486,-4.002739849600196
1772527337599391700,6.174391845703125,-9.820974293428659,-0.34937633225023745,-2.7087469175219536
1772527337609373700,6.184373779296875,-10.471770444011687,1.8024819679200648,-0.6864269244778901
1772527337619356000,6.19435595703125,-11.218340506219864,3.171353030849993,1.7855583056479691
1772527337629337900,6.204337890625,-11.09340947369337,3.769131876994669,3.9488977847754954
1772527337639318800,6.21431884765625,-10.03203462640047,3.7932089181527493,4.890303021341562
1772527337649300700,6.22430078125,-8.015853793698549,3.383488007315993,4.9096249769270415
1772527337659283000,6.234282958984375,-5.102859730350971,3.082116704300046,4.3454812738806
1772527337669265000,6.244264892578125,-1.836715661433339,2.845038717496395,3.4965921161875126
1772527337679246800,6.254246826171875,1.3366349729746578,2.6948963790848848,2.748625338923931
1772527337689228800,6.264228759765625,4.12895449219644,2.5973145412549377,2.252234298763424
1772527337699211000,6.2742109375,6.137126205965877,2.6337343466356393,2.0489118665672836
1772527337709192700,6.284192626953125,7.318474755638837,2.5821637338742613,2.0186703114300966
1772527337719174000,6.294173828125,8.04052354005277,2.5321473648175594,1.9667144987434149
1772527337729155800,6.30415576171875,8.601932265177368,2.5808023823931814,1.7399103609338402
1772527337739137800,6.3141376953125,9.049900489082932,2.4834219123542307,1.3137963875703513
1772527337749119700,6.32411962890625,9.37566330603361,2.269836737079918,0.7643519487448036
1772527337759102000,6.33410205078125,9.597299393555522,1.9855945557802914,0.1225678105264902
1772527337769083600,6.344083740234375,9.678348029735684,1.6281828011125326,-0.5165335914138705
1772527337779065900,6.35406591796875,9.523619240316748,1.1868094454273581,-1.1631234494134783
1772527337789047800,6.3640478515625,9.22213804718554,0.8789841439664363,-1.8323979443646967
1772527337799029000,6.374029052734375,8.878819115278125,0.6054600482970476,-2.4140729201875626
1772527337809010700,6.3840107421875,8.754141180729865,0.48976504614949223,-2.860445545464754
1772527337818993000,6.393992919921875,8.82636470541954,0.4693459429770708,-3.169262488311529
1772527337828974800,6.403974853515625,9.057942925763129,0.7627896678641438,-3.2656559931397435
1772527337838956800,6.413956787109375,9.333490636214613,1.4280918981835244,-3.218858293868601
1772527337848938800,6.423938720703125,9.280485022214055,2.0899843200594184,-2.9708228597208857
1772527337858920700,6.433920654296875,8.501787298861146,2.581425482727587,-2.7188921717002987
1772527337868903000,6.44390283203125,7.086317858624458,2.8610449726626275,-2.6120205274775623
1772527337878883800,6.4538837890625,5.739607481837273,3.0369653109312056,-2.543921973763406
1772527337888865800,6.46386572265625,5.1323699024736875,3.010367226862907,-2.6258140750303864
1772527337898847700,6.47384765625,5.316991725853085,2.5117542728692293,-2.299919740654528
1772527337908829700,6.48382958984375,5.423357174119353,1.6352467481493949,-1.3916605484955011
1772527337918812000,6.49381201171875,4.320300070872903,0.9505068269103765,-0.07790237404368817
1772527337928793900,6.5037939453125,1.4756629199147224,-0.12778262256532907,2.225524132622778
1772527337938775800,6.51377587890625,-2.044870920613408,-1.5502897063538432,4.707174651390313
1772527337948757800,6.5237578125,-4.255122373041511,-2.4952704633191227,5.403457710906863
1772527337958738700,6.53373876953125,-5.7913049358487125,-2.899590391895175,3.4109967764884233
1772527337968721000,6.543720947265625,-8.611638251155615,-2.982737169398367,0.19951434515006838
1772527337978702800,6.553702880859375,-13.313970723211764,-3.3031396283596752,-1.9554449167102574
1772527337988684800,6.563684814453125,-17.299783403408526,-4.327236884398758,-3.1994691182658075
1772527337998666800,6.573666748046875,-16.53521474317312,-4.849823126915097,-2.145513607318699
1772527338008649000,6.58364892578125,-12.335200509369372,-5.035202490663528,1.317091483592987
1772527338018630700,6.593630615234375,-8.66731513019204,-4.429237707714736,3.5536166104406117
1772527338028612900,6.60361279296875,-7.960933870509266,-4.311655284385383,5.336243538811803
1772527338038593800,6.61359375,-9.648462010037898,-4.4381087041735645,6.2254410337567325
1772527338048576000,6.623575927734375,-11.84015956864357,-3.984587522315979,6.134734342393279
1772527338058557700,6.6335576171875,-13.325834179484843,-3.4126524347409606,5.847921726083755
1772527338068540000,6.643539794921875,-13.996894534939527,-2.6064026875957844,5.6272483461141585
1772527338078521900,6.65352197265625,-13.759523702669142,-1.5975161524310708,5.612337192708254
1772527338088503800,6.66350390625,-12.28966157798767,-0.8998992139622568,5.296230677375197
1772527338098485800,6.67348583984375,-9.894193843418359,-0.2809253118366003,4.703002626402676
1772527338108467000,6.683467041015625,-6.792534818780422,0.42970776007175443,3.8398879594802855
1772527338118448600,6.69344873046875,-3.451056984198093,0.987093513290584,2.859970329168439
1772527338128430800,6.703430908203125,-0.3035597529709339,1.4628691970542071,1.9558397612467406
1772527338138413000,6.7134130859375,2.365494621109962,1.7056795900300143,1.0735750612396746
1772527338148394800,6.723394775390625,4.5240725849241015,1.8041770814001559,0.14838554873890242
1772527338158377000,6.733376953125,6.275830327779055,1.8864488296344875,-0.8397543226663022
1772527338168359000,6.74335888671875,7.598066773045063,1.8635496000841258,-1.664917079269886
1772527338178340900,6.7533408203125,8.562953422963618,1.8779186094373463,-2.10796918182224
1772527338188321800,6.76332177734375,9.229998113036155,1.875173986904323,-2.332160214523971
1772527338198304000,6.773303955078125,9.506456508591771,1.788426846821606,-2.5753274581134318
1772527338208285700,6.78328564453125,9.556728313714265,1.645011770838499,-3.016566958285868
1772527338218268000,6.793267822265625,9.688627431687712,1.6153066606655715,-3.5321322161242366
1772527338228249900,6.803249755859375,9.952953490900994,1.6905752521395683,-3.8319799628347155
1772527338238231800,6.813231689453125,10.020456416809559,1.7413646513953804,-3.996181513997912
1772527338248213800,6.8232138671875,9.894253464651108,2.03199857955873,-4.41326623160094
1772527338258196000,6.833196044921875,9.714265730813144,2.3290558187678454,-5.0987400200724595
1772527338268177000,6.843177001953125,9.67099006818831,2.371541792319715,-5.905569612932205
1772527338278158800,6.853158935546875,9.666555300611257,2.7497362227752804,-6.147673903465271
1772527338288140800,6.863140869140625,9.662235099324583,3.7046994445726273,-5.686497238418459
1772527338298123000,6.873123046875,9.715509008872509,4.593383729298412,-4.81587526460588
1772527338308104700,6.883104736328125,9.809537538135052,4.942985979259014,-3.827978033716976
1772527338318087000,6.8930869140625,9.820772048854828,5.109919585734605,-2.910899721416831
1772527338328068600,6.903068603515625,9.81336264938116,5.118271234494447,-2.036709972120076
1772527338338050800,6.91305078125,10.146459462481737,4.742217615459859,-1.1767490930534898
1772527338348031700,6.92303173828125,10.223914458084106,4.23876745056808,-0.5318852551288903
1772527338358014000,6.933013916015625,9.403115376582742,3.6374116227194664,-0.17191650945469736
1772527338367995600,6.94299560546875,7.4848431294471025,2.54415753608495,0.3121566086634993
1772527338377977900,6.952977783203125,4.927858552753925,1.322343412771821,1.0875959147423506
1772527338387960000,6.9629599609375,2.3717869992524383,0.5152525386273861,2.131509193494171
1772527338397941800,6.972941650390625,0.3169038031905889,-0.28737025019228457,3.165494660210609
1772527338407924000,6.982924072265625,-1.2520756983250378,-0.9739777188688516,3.092942634218931
1772527338417906000,6.992906005859375,-3.085434450545907,-1.3668392648413776,2.016886204492301
1772527338427886800,7.002886962890625,-5.619605722406506,-1.9532082436993716,1.3030664653718471
1772527338437868800,7.012868896484375,-8.17806797043681,-2.4314988328933715,1.0140025630041956
1772527338447851000,7.02285107421875,-9.437325104698537,-1.7873621401995419,-1.0092769957870245
1772527338457832700,7.032832763671875,-8.580048934671282,-1.762506808145344,-3.754382051630318
1772527338467815000,7.04281494140625,-6.854798090469837,-2.896964135044813,-4.008725061489641
1772527338477796900,7.052796875,-5.765877064603567,-3.4000413749709724,-2.379865384028852
1772527338487778800,7.06277880859375,-6.243576409906148,-4.012694841903448,0.7673566835187375
1772527338497760800,7.0727607421875,-8.29645937206149,-3.50507382106781,3.6914343048080798
1772527338507742000,7.082741943359375,-10.357386524462699,-1.7817746954560278,4.491907222117483
1772527338517724000,7.092723876953125,-12.02971884842515,-0.430329691362381,4.124299944388866
1772527338527705900,7.102705810546875,-13.261239834499358,-0.04705138177126646,3.76968951087743
1772527338537687800,7.112687744140625,-13.38682786962986,-0.4052931575223803,3.8184064877733586
1772527338547669800,7.122669677734375,-12.393584893798828,-0.8889027497820555,4.079157026587427
1772527338557651700,7.132651611328125,-10.865018066692352,-1.1241448994606733,4.136369736889004
1772527338567634000,7.142634033203125,-9.112928899925947,-1.005253877750784,3.900903861457109
1772527338577614800,7.15261474609375,-7.265310736206174,-0.6984909448243677,3.4677915536388753
1772527338587596800,7.1625966796875,-5.475505879029631,-0.5218747332461178,2.8988708454489704
1772527338597578800,7.172578857421875,-3.8957892949223516,-0.6927902489647269,2.532474989336729
1772527338607561000,7.18256103515625,-2.535398767828941,-0.7611432158313691,2.256813881638646
1772527338617542700,7.192542724609375,-1.5420494090139865,-0.5667205677971243,2.0366677404135465
1772527338627524900,7.20252490234375,-1.037342229798436,-0.30434593491256234,1.8536968991115688
1772527338637507000,7.212507080078125,-0.8905255286782979,0.05072086406424641,1.6331198191232978
1772527338647488800,7.22248876953125,-0.7265764909714459,0.40632556931003927,1.2771715611368417
1772527338657469700,7.2324697265625,-0.3194260151445865,0.6635235302090644,0.8140756184652447
1772527338667452000,7.242451904296875,0.22422025879621504,0.6702389560692011,0.2905810654649511
1772527338677433900,7.252433837890625,0.8591443019866943,0.5304341795377433,-0.25890335831111294
1772527338687415800,7.262415771484375,1.608838049173355,0.47161213434338567,-0.7094353865563869
1772527338697398000,7.27239794921875,2.3587276111930606,0.47763037171959877,-1.023829691144079
1772527338707379700,7.282379638671875,3.024564094519615,0.6339050754062832,-1.1544473910048603
1772527338717362000,7.29236181640625,3.6411101849764584,0.9768338389523327,-1.047463737775013
1772527338727342800,7.3023427734375,4.049642470550537,1.287139705182612,-0.754433196798712
1772527338737325000,7.312324951171875,4.300860041865707,1.4173656292468308,-0.4976762211328372
1772527338747306800,7.322306640625,4.470854204955697,1.4154808384135364,-0.4049633410461247
1772527338757289000,7.3322890625,4.524669966295361,1.387773331798613,-0.42145712400097396
1772527338767271000,7.34227099609375,4.469588130542635,1.4815665910005569,-0.39873887704070654
1772527338777252900,7.3522529296875,4.235619800192118,1.5584128070548176,-0.3321902196496725
1772527338787234800,7.36223486328125,3.966603537335992,1.5619865738883614,-0.28016287609674034
1772527338797216800,7.372216796875,3.7155443714529275,1.5273179960891603,-0.188828371691145
1772527338807197700,7.38219775390625,3.4037580574065447,1.4046008402198553,-0.14505416669333354
1772527338817180000,7.392179931640625,3.1240450439691543,1.17240799510926,-0.16492493353430182
1772527338827161900,7.402161865234375,2.8771944356918335,0.9038330462798476,-0.20205847667492924
1772527338837143800,7.412143798828125,2.5549270596414804,0.5826721701666713,-0.23242891888879239
1772527338847125800,7.422125732421875,2.238508994141221,0.3148281659603119,-0.2907722041228786
1772527338857108000,7.43210791015625,2.053161194574833,0.22998130654096602,-0.3975842271128669
1772527338867089700,7.442089599609375,1.944895465645194,0.2738254167035222,-0.6348533160418272
1772527338877072000,7.45207177734375,1.7272651066333053,0.31636691983491183,-0.951083019363135
1772527338887052800,7.462052734375,1.385988494208455,0.2777402520596981,-1.223139745893702
1772527338897035000,7.472034912109375,1.0045645803123713,0.2859621369600296,-1.4050962225213646
1772527338907016700,7.4820166015625,0.5613385824978351,0.34198359165042636,-1.44647043543905
1772527338916999000,7.4919990234375,0.03035071460008621,0.37044250115454197,-1.270805533236265
1772527338926980600,7.501980712890625,-0.5078606748104095,0.4234562984615564,-0.9496004526551812
1772527338936962800,7.511962890625,-0.9831786779344082,0.5347831685274839,-0.572146355705522
1772527338946945000,7.521945068359375,-1.4124538918077945,0.7058478834584355,-0.19550616895463316
1772527338956926700,7.5319267578125,-1.7616262259185314,0.7943608641698956,0.11026081173699348
1772527338966907600,7.54190771484375,-1.982956608492136,0.7755842675074934,0.40997024595532566
1772527338976889900,7.551889892578125,-2.0825749205857513,0.6687076548486948,0.6580753478057683
1772527338986872000,7.5618720703125,-2.103191592156887,0.5364952331423759,0.8819421169891953
1772527338996853800,7.571853759765625,-2.1741467043459415,0.41734629114866256,1.0393170370027422
1772527339006836000,7.5818359375,-2.255228073751926,0.3512853807419538,1.1206689669784158
1772527339016818000,7.59181787109375,-2.24496386936903,0.35272681172192094,1.1005549111671744
1772527339026799900,7.6017998046875,-2.051435685956478,0.23256460103243587,1.0041646212093531
1772527339036780800,7.61178076171875,-1.774700227025151,0.07038578786849975,0.9756254860758781
1772527339046763000,7.621762939453125,-1.5013772068858147,0.007473696881532668,1.0217546384356915
1772527339056744700,7.63174462890625,-1.2981494672358036,0.009207973328232765,1.067624555337429
1772527339066727000,7.641726806640625,-1.1762211236566305,0.11614084621891378,1.1250587994351982
1772527339076708900,7.651708984375,-1.147741463625431,0.31850261668935415,1.2449724421910942
1772527339086690800,7.66169091796875,-1.1518769559949635,0.37994039734005924,1.2307985170185565
1772527339096672800,7.6716728515625,-0.9327309317231178,0.26069267114698885,0.9554337619185447
1772527339106655000,7.681655029296875,-0.5767968483924866,-0.005385200169682502,0.5295054107876495
1772527339116635100,7.69163525390625,-0.22607670031785965,-0.23758564406484364,0.07509252252103761
1772527339126616800,7.701616943359375,0.046236850517988204,-0.3447995258539915,-0.2909081785274669
1772527339136599000,7.71159912109375,0.20892741259634492,-0.3989478801488876,-0.6241410756304859
1772527339146581000,7.7215810546875,0.2891027730733156,-0.4305816202968359,-0.9446418073344975
1772527339156563000,7.73156298828125,0.42970659102797504,-0.3905591142490506,-1.1961572656176984
1772527339166545000,7.741544921875,0.6330436362713575,-0.22495471055060623,-1.3423733704961835
1772527339176527000,7.751527099609375,0.7787392244070768,-0.10010434204488992,-1.3929685623541475
1772527339186508800,7.7615087890625,0.8802800289958715,0.008165186277031899,-1.4537762284077702
1772527339196490000,7.771489990234375,1.0945715989738702,0.196931562115252,-1.5233336026281117
1772527339206472000,7.781471923828125,1.559713660520315,0.35201194145083425,-1.5410428623199461
1772527339216454100,7.7914541015625,2.0537544842928646,0.4423062526211142,-1.3743224602036177
1772527339226435800,7.801435791015625,2.3761381801992654,0.5023217453837394,-1.030722665528208
1772527339236418000,7.81141796875,2.2211720748931167,0.448957234942913,-0.737722227429226
1772527339246400000,7.82139990234375,1.9186030865252017,0.5663853444933891,-0.8411097558632492
1772527339256382000,7.8313818359375,1.763779020038247,0.7042980236679315,-1.3186806524805723
1772527339266363000,7.84136279296875,1.7645546805858612,0.585977349191904,-1.647747333282232
1772527339276345000,7.851344970703125,1.7135387790977954,0.32591976107805964,-1.7481478817947207
1772527339286326800,7.861326904296875,1.5402683708161116,0.4887406715378165,-1.6600450893193481
1772527339296309000,7.87130908203125,1.195142681747675,0.7419725052848458,-1.2563871317833661
