time,seconds_elapsed,z,y,x
1772527331510443000,0.085443115234375,0.706457793712616,-0.7721472382545471,0.8208016753196716
1772527331520425000,0.095425048828125,0.6621345281600952,-0.3771689832210541,0.822124719619751
1772527331530407000,0.105406982421875,0.6504541635513306,0.10712948441505432,0.8391658067703247
1772527331540389000,0.11538916015625,0.6891733407974243,0.571102499961853,0.8742824792861938
1772527331550370800,0.125370849609375,0.7591358423233032,0.8794501423835754,0.9180662035942078
1772527331560353000,0.13535302734375,0.8036205172538757,0.9697813391685486,0.9576418399810791
1772527331570335000,0.1453349609375,0.7924970984458923,0.8726086020469666,0.9949830174446106
1772527331580317000,0.15531689453125,0.7292174696922302,0.6453408002853394,1.0506728887557983
1772527331590297900,0.1652978515625,0.6189142465591431,0.3703816831111908,1.0960981845855713
1772527331600280000,0.175280029296875,0.46386417746543884,0.09730780869722366,1.0959367752075195
1772527331610262000,0.185261962890625,0.2955140769481659,-0.12809230387210846,1.0567166805267334
1772527331620244000,0.195243896484375,0.12582865357398987,-0.24720405042171478,0.976887047290802
1772527331630226000,0.205225830078125,-0.022420577704906464,-0.33666518330574036,0.8197387456893921
1772527331640208100,0.2152080078125,-0.13809843361377716,-0.49363431334495544,0.5559715628623962
1772527331650189800,0.22518994140625,-0.19939500093460083,-0.7409226894378662,0.22275091707706451
1772527331660172000,0.235172119140625,-0.21323543787002563,-0.9760169386863708,-0.12004878371953964
1772527331670154000,0.245154052734375,-0.22054576873779297,-1.0884699821472168,-0.43414366245269775
1772527331680135000,0.255135009765625,-0.22473599016666412,-1.0129908323287964,-0.7081674933433533
1772527331690116900,0.265116943359375,-0.19860680401325226,-0.7731982469558716,-0.9248650074005127
1772527331700099000,0.27509912109375,-0.15976087749004364,-0.4169730544090271,-1.1368640661239624
1772527331710080800,0.285080810546875,0.120722696185112,-0.3094266355037689,-1.2696374654769897
1772527331720063000,0.29506298828125,0.7485312223434448,-0.5357325077056885,-1.2338480949401855
1772527331730045200,0.305045166015625,1.252021074295044,-1.03407883644104,-1.1662659645080566
1772527331740027000,0.31502685546875,1.4327101707458496,-0.975064218044281,-0.9227789640426636
1772527331750009000,0.325009033203125,1.1992651224136353,-0.2926360070705414,-0.47819504141807556
1772527331759991000,0.334990966796875,0.6754457950592041,0.6143239736557007,0.05441266670823097
1772527331769973000,0.344972900390625,-0.009393604472279549,1.2898613214492798,0.5668174624443054
1772527331779954000,0.354953857421875,-0.7036575675010681,1.5675197839736938,1.0309652090072632
1772527331789936000,0.36493603515625,-1.2214266061782837,1.4535161256790161,1.4147050380706787
1772527331799917800,0.374917724609375,-1.4968013763427734,0.8767481446266174,1.5063507556915283
1772527331809900000,0.384900146484375,-1.58346426486969,-0.015838846564292908,1.1895848512649536
1772527331819882000,0.394882080078125,-1.485653281211853,-0.8674165606498718,0.6320566534996033
1772527331829864000,0.404864013671875,-1.2492061853408813,-1.4244372844696045,0.07555772364139557
1772527331839846000,0.414845947265625,-0.9457749128341675,-1.555071234703064,-0.3438030481338501
1772527331849828000,0.424828125,-0.6767603754997253,-1.2872517108917236,-0.5912736058235168
1772527331859809800,0.434809814453125,-0.5246864557266235,-0.7960302829742432,-0.7428492903709412
1772527331869791000,0.444791015625,-0.4916497468948364,-0.1625555008649826,-0.8350628018379211
1772527331879773000,0.45477294921875,-0.46690231561660767,0.4029656648635864,-0.9364413619041443
1772527331889755100,0.464755126953125,-0.46079540252685547,0.8018450140953064,-1.064115285873413
1772527331899736800,0.47473681640625,-0.5407746434211731,0.9550931453704834,-1.136076807975769
1772527331909719000,0.484718994140625,-0.6806948184967041,0.8162973523139954,-1.101081132888794
1772527331919700700,0.49470068359375,-0.8463894724845886,0.4668746292591095,-0.9351323843002319
1772527331929683000,0.504682861328125,-0.9989331364631653,-0.21002258360385895,-0.6911293864250183
1772527331939665200,0.5146650390625,-1.3558132648468018,-0.6954500079154968,-0.48385584354400635
1772527331949646800,0.524646728515625,-1.719901442527771,-1.028900384902954,-0.32672372460365295
1772527331959627800,0.534627685546875,-1.923081398010254,-1.4292477369308472,-0.2766304612159729
1772527331969610000,0.54460986328125,-1.8727630376815796,-1.804922103881836,-0.27814459800720215
1772527331979592200,0.55459228515625,-1.6516717672348022,-2.00915265083313,-0.2789483368396759
1772527331989574000,0.564573974609375,-1.3603943586349487,-2.0742504596710205,-0.27188926935195923
1772527331999556000,0.57455615234375,-1.0468460321426392,-1.9927655458450317,-0.3071146309375763
1772527332009538000,0.5845380859375,-0.6453703045845032,-1.1062403917312622,-0.4780578017234802
1772527332019520000,0.59452001953125,-0.3167293071746826,-0.9505738615989685,-0.591806173324585
1772527332029502000,0.604501953125,-0.10578561574220657,-0.5209653973579407,-0.7342057228088379
1772527332039484000,0.61448388671875,-0.07005984336137772,-0.22586077451705933,-0.9213268756866455
1772527332049464800,0.62446484375,-0.1206042468547821,-0.04777850583195686,-1.178667426109314
1772527332059447000,0.634447021484375,-0.21378745138645172,-0.13969938457012177,-1.486120581626892
1772527332069429000,0.644428955078125,-0.21683761477470398,-0.6515656113624573,-1.8224502801895142
1772527332079411000,0.654410888671875,-0.22238630056381226,-1.4047554731369019,-2.150085210800171
1772527332089393000,0.664392822265625,-0.2943548858165741,-1.8904588222503662,-2.3858609199523926
1772527332099375000,0.674375,-0.3296619951725006,-1.7534161806106567,-2.461815357208252
1772527332109356300,0.684356201171875,-0.1789902150630951,-0.9378517270088196,-2.4046449661254883
1772527332119338200,0.694338134765625,0.3125808537006378,-0.014249861240386963,-2.279442548751831
1772527332129320400,0.704320556640625,1.2098835706710815,0.5095580220222473,-1.9809908866882324
1772527332139302100,0.71430224609375,2.070176362991333,1.0061818361282349,-1.2706904411315918
1772527332149283300,0.724283447265625,2.755979061126709,1.6341052055358887,-0.0020397151820361614
1772527332159265300,0.734265380859375,3.25667667388916,2.4419755935668945,1.5304864645004272
1772527332169247500,0.74424755859375,3.1320865154266357,2.1071009635925293,2.3488714694976807
1772527332179229200,0.754229248046875,2.11690616607666,-0.010943015106022358,2.162801504135132
1772527332189211400,0.76421142578125,1.0451033115386963,-1.8283873796463013,1.918225884437561
1772527332199193300,0.774193359375,0.5602542757987976,-2.1314697265625,2.036072254180908
1772527332209175300,0.78417529296875,0.40877655148506165,-1.3443697690963745,2.060232162475586
1772527332219157500,0.794157470703125,0.33270707726478577,0.25046059489250183,1.83498215675354
1772527332229139500,0.804139404296875,0.35949504375457764,2.1271424293518066,1.5628852844238281
1772527332239120100,0.8141201171875,0.5607948303222656,3.464812994003296,1.4750961065292358
1772527332249102300,0.824102294921875,0.7921841144561768,3.9090840816497803,1.6778215169906616
1772527332259084500,0.83408447265625,1.0104365348815918,3.278513193130493,2.1125407218933105
1772527332269066200,0.844066162109375,1.0158382654190063,1.883060097694397,2.5968050956726074
1772527332279048400,0.85404833984375,0.7193781733512878,0.5324063301086426,2.9756767749786377
1772527332289030400,0.864030517578125,0.3188687264919281,-0.4313619136810303,3.1048922538757324
1772527332299012400,0.874012451171875,-0.04007666930556297,-0.9661744832992554,2.9159398078918457
1772527332308994300,0.883994384765625,-0.29503482580184937,-1.0575337409973145,2.408585548400879
1772527332318976500,0.8939765625,-0.40720370411872864,-0.8245558738708496,1.6728007793426514
1772527332328957400,0.90395751953125,-0.4239301085472107,-0.3520236909389496,0.8493762612342834
1772527332338939400,0.913939453125,-0.41615262627601624,0.29028043150901794,0.08474835753440857
1772527332348921300,0.92392138671875,-0.38174471259117126,0.9164459109306335,-0.5297096967697144
1772527332358903300,0.9339033203125,-0.3215375542640686,1.3927770853042603,-0.9753183126449585
1772527332368885200,0.94388525390625,-0.2776249647140503,1.6684941053390503,-1.2692921161651611
1772527332378867500,0.953867431640625,-0.22486159205436707,1.7522486448287964,-1.4304529428482056
1772527332388849200,0.96384912109375,-0.1501699537038803,1.742186188697815,-1.4639557600021362
1772527332398831400,0.973831298828125,-0.046127431094646454,1.6681060791015625,-1.4095617532730103
1772527332408813300,0.983813232421875,0.06026849150657654,1.534406304359436,-1.2936487197875977
1772527332418795300,0.993795166015625,0.14675623178482056,1.2509183883666992,-1.1603806018829346
1772527332428776200,1.003776123046875,0.23934419453144073,0.8516332507133484,-1.024438738822937
1772527332438758400,1.01375830078125,0.33076223731040955,0.43989047408103943,-0.886814296245575
1772527332448740400,1.023740234375,0.40278327465057373,0.071926549077034,-0.767164945602417
1772527332458722300,1.033722412109375,0.4639401137828827,-0.21822725236415863,-0.706716001033783
1772527332468704500,1.04370458984375,0.5200766324996948,-0.43859395384788513,-0.7060682773590088
1772527332478686200,1.053686279296875,0.5530806183815002,-0.6109356880187988,-0.760890007019043
1772527332488668400,1.06366845703125,0.573302149772644,-0.7292160391807556,-0.8778053522109985
1772527332498650400,1.073650390625,0.5756462812423706,-0.8006875514984131,-1.0316764116287231
1772527332508631600,1.083631591796875,0.5267454981803894,-0.871562123298645,-1.243728518486023
1772527332518613200,1.09361328125,0.43960264325141907,-0.9253361225128174,-1.4976731538772583
1772527332528595500,1.103595458984375,0.33534321188926697,-0.9244034290313721,-1.729088544845581
1772527332538577400,1.113577392578125,0.24588948488235474,-0.8546147346496582,-1.8807404041290283
1772527332548559400,1.123559326171875,0.1778133362531662,-0.7124243974685669,-1.9264476299285889
1772527332558541300,1.133541259765625,0.0958540216088295,-0.5750484466552734,-1.8731417655944824
1772527332568523500,1.1435234375,0.00033652130514383316,-0.5248763561248779,-1.7438691854476929
1772527332578505200,1.153505126953125,-0.06206773221492767,-0.44720393419265747,-1.5409929752349854
1772527332588487400,1.1634873046875,-0.08542978763580322,-0.3504732549190521,-1.3209065198898315
1772527332598469400,1.173469482421875,-0.08699040114879608,-0.3803129196166992,-1.154924988746643
1772527332608450300,1.1834501953125,-0.03103511780500412,-0.5220130085945129,-1.0901561975479126
1772527332618432300,1.193432373046875,0.01734386757016182,-0.5892016291618347,-1.114837646484375
1772527332628414500,1.20341455078125,-0.015130767598748207,-0.4291931986808777,-1.119258165359497
1772527332638396200,1.213396240234375,-0.12624743580818176,-0.05526061728596687,-1.0073561668395996
1772527332648378400,1.22337841796875,-0.297980397939682,0.09780456870794296,-0.7983391880989075
1772527332658360300,1.2333603515625,-0.5283688306808472,0.18005362153053284,-0.31976592540740967
1772527332668342300,1.24334228515625,-0.8556077480316162,0.5454180836677551,0.7090321183204651
1772527332678324500,1.253324462890625,-1.5087575912475586,0.8421549201011658,1.8387892246246338
1772527332688306400,1.263306396484375,-2.444387435913086,0.19498278200626373,2.0003409385681152
1772527332698287400,1.273287353515625,-2.701570749282837,-0.3600221276283264,1.5220288038253784
1772527332708269300,1.283269287109375,-2.2715792655944824,-0.00817316398024559,0.9631280899047852
1772527332718251500,1.29325146484375,-1.7669212818145752,0.6429484486579895,0.47846633195877075
1772527332728233200,1.303233154296875,-1.29892098903656,1.0978376865386963,0.1682267040014267
1772527332738215400,1.31321533203125,-0.9315140247344971,1.0997871160507202,0.1933315247297287
1772527332748197400,1.323197265625,-0.6276509165763855,0.6440644264221191,0.6000863313674927
1772527332758179300,1.333179443359375,-0.3491708040237427,-0.08697406947612762,1.2275880575180054
1772527332768161300,1.343161376953125,-0.20590436458587646,-1.0310570001602173,1.7018988132476807
1772527332778142500,1.353142578125,-0.15228265523910522,-1.7679635286331177,1.8207746744155884
1772527332788124400,1.36312451171875,-0.04614846035838127,-1.9798595905303955,1.524582028388977
1772527332798106400,1.3731064453125,0.18375423550605774,-1.6135647296905518,0.914657473564148
1772527332808088300,1.38308837890625,0.5414443612098694,-0.8100684881210327,0.2760384678840637
1772527332818070500,1.393070556640625,0.8732878565788269,0.0996212363243103,-0.24020785093307495
1772527332828052200,1.40305224609375,1.0760082006454468,0.9355819225311279,-0.5674412250518799
1772527332838034400,1.413034423828125,1.1281718015670776,1.6780050992965698,-0.670100212097168
1772527332848016400,1.423016357421875,1.0950452089309692,2.1873931884765625,-0.5607042908668518
1772527332857998300,1.432998291015625,1.038724422454834,2.244976758956909,-0.2803245782852173
1772527332867979300,1.442979248046875,0.973196268081665,1.9278697967529297,0.15533258020877838
1772527332877961500,1.45296142578125,0.9309138059616089,1.473539113998413,0.6712923049926758
1772527332887943200,1.462943115234375,0.8884061574935913,0.9884627461433411,1.144099235534668
1772527332897925400,1.47292529296875,0.8351634740829468,0.5217440128326416,1.475187063217163
1772527332907907300,1.4829072265625,0.7750341892242432,0.11434710025787354,1.605536699295044
1772527332917889300,1.49288916015625,0.7284464240074158,-0.15585483610630035,1.5314810276031494
1772527332927871500,1.50287158203125,0.7091525793075562,-0.14051328599452972,1.272645115852356
1772527332937853400,1.512853515625,0.6968794465065002,0.09428165853023529,0.8768733143806458
1772527332947835400,1.52283544921875,0.6673575639724731,0.3946492075920105,0.3910161852836609
1772527332957816300,1.53281640625,0.6067842245101929,0.6575832962989807,-0.09510684758424759
1772527332967798300,1.54279833984375,0.5391227006912231,0.8172516226768494,-0.47446408867836
1772527332977780200,1.5527802734375,0.4676210582256317,0.8097692131996155,-0.7067199945449829
1772527332987762400,1.562762451171875,0.38382279872894287,0.6070094108581543,-0.774725079536438
1772527332997744400,1.572744384765625,0.2760438621044159,0.2874479293823242,-0.7346436977386475
1772527333007726300,1.582726318359375,0.13459955155849457,-0.02435414120554924,-0.6334972381591797
1772527333017708300,1.592708251953125,-0.06522434204816818,-0.2591288089752197,-0.5330758690834045
1772527333027690500,1.6026904296875,-0.24321918189525604,-0.3951960802078247,-0.5003628730773926
1772527333037672200,1.612672119140625,-0.33205530047416687,-0.4318760633468628,-0.5870261192321777
1772527333047653400,1.6226533203125,-0.3124098479747772,-0.3942202627658844,-0.8311643004417419
1772527333057635300,1.63263525390625,-0.19491462409496307,-0.3215828239917755,-1.1930618286132812
1772527333067617500,1.642617431640625,-0.06511011719703674,-0.23222634196281433,-1.615700364112854
1772527333077599200,1.65259912109375,0.013893889263272285,-0.3055061399936676,-1.9487634897232056
1772527333087581400,1.66258154296875,0.05159909278154373,-0.5744091868400574,-2.025505542755127
1772527333097563400,1.6725634765625,0.11222302168607712,-1.0369025468826294,-1.7099717855453491
1772527333107545300,1.68254541015625,0.2369314581155777,-1.6962748765945435,-1.0073479413986206
1772527333117527600,1.692527587890625,0.4029822051525116,-2.3733558654785156,-0.15740711987018585
1772527333127509200,1.70250927734375,0.4479374289512634,-2.7138774394989014,0.5782977938652039
1772527333137490400,1.712490478515625,0.26732590794563293,-2.633932590484619,1.0881197452545166
1772527333147472400,1.722472412109375,-0.03586539998650551,-2.693490743637085,1.1694529056549072
1772527333157454600,1.73245458984375,-0.2022000551223755,-2.9858920574188232,0.747081458568573
1772527333167436300,1.742436279296875,-0.2778488099575043,-2.6133065223693848,-0.07223358750343323
1772527333177418500,1.75241845703125,-0.2607036232948303,-1.3210595846176147,-1.0910972356796265
1772527333187400400,1.762400390625,-0.2018640637397766,0.3212803304195404,-2.0509238243103027
1772527333197382400,1.77238232421875,-0.39127394556999207,1.5904605388641357,-2.7433900833129883
1772527333207364400,1.7823642578125,-0.5843964219093323,2.2554309368133545,-2.8871445655822754
1772527333217346300,1.79234619140625,-0.7267085313796997,2.2982447147369385,-2.438629388809204
1772527333227327200,1.8023271484375,-0.8313189148902893,1.4877445697784424,-1.687525987625122
1772527333237309400,1.812309326171875,-0.8707041144371033,0.2737242579460144,-0.9000247716903687
1772527333247291400,1.82229150390625,-0.7935108542442322,-0.6107639074325562,-0.16806314885616302
1772527333257273300,1.8322734375,-0.6076453924179077,-0.8630709648132324,0.4639289379119873
1772527333267255600,1.842255615234375,-0.3670307397842407,-0.616900622844696,1.0026425123214722
1772527333277237500,1.852237548828125,-0.11958816647529602,-0.10387303680181503,1.367918848991394
1772527333287219500,1.862219482421875,0.07479539513587952,0.5060104131698608,1.576551079750061
1772527333297201400,1.872201416015625,0.2197350114583969,0.9995644688606262,1.7607203722000122
1772527333307183600,1.88218359375,0.3530867099761963,1.2379270792007446,1.9300642013549805
1772527333317164500,1.89216455078125,0.44862228631973267,1.338922381401062,2.0462803840637207
1772527333327146500,1.902146484375,0.5023297071456909,1.3869144916534424,2.0683491230010986
1772527333337128400,1.91212841796875,0.5906555652618408,1.5885072946548462,2.0198256969451904
1772527333347110400,1.9221103515625,0.7366523146629333,2.0733871459960938,2.0190229415893555
1772527333357092400,1.93209228515625,0.9283309578895569,2.5194642543792725,2.0316359996795654
1772527333367074600,1.942074462890625,1.0595085620880127,2.7286248207092285,1.9386999607086182
1772527333377056300,1.95205615234375,0.9937130808830261,2.69107723236084,1.6581058502197266
1772527333387038500,1.96203857421875,0.6758496761322021,2.5229692459106445,1.2947832345962524
1772527333397020400,1.9720205078125,0.16239704191684723,2.3029263019561768,0.9978583455085754
1772527333407001600,1.982001708984375,-0.4072478413581848,2.1257615089416504,0.8665506839752197
1772527333416983300,1.9919833984375,-0.9060664772987366,1.9860291481018066,0.9005702137947083
1772527333426965500,2.001965576171875,-1.2754099369049072,1.83161199092865,0.9619216322898865
1772527333436947500,2.011947509765625,-1.4866137504577637,1.6366031169891357,0.9655669331550598
1772527333446929400,2.021929443359375,-1.5767524242401123,1.3697680234909058,0.9484928250312805
1772527333456911400,2.031911376953125,-1.6167593002319336,1.0507413148880005,0.9183684587478638
1772527333466893300,2.041893310546875,-1.6205283403396606,0.7671006321907043,0.928696870803833
1772527333476875500,2.05187548828125,-1.5412726402282715,0.5871968865394592,0.9714486002922058
1772527333486857500,2.061857421875,-1.3923803567886353,0.4702523648738861,0.9748172760009766
1772527333496838400,2.07183837890625,-1.1509150266647339,0.31910067796707153,0.8722019791603088
1772527333506820400,2.0818203125,-0.8540135622024536,0.1553436666727066,0.6520082950592041
1772527333516802600,2.091802490234375,-0.5441665053367615,-0.04941372945904732,0.3716500997543335
1772527333526784500,2.101784423828125,-0.29717037081718445,-0.30990293622016907,0.13268712162971497
1772527333536766500,2.111766357421875,-0.19926485419273376,-0.5839655995368958,0.008095650933682919
1772527333546748400,2.12174853515625,-0.18053124845027924,-0.8101576566696167,0.037177518010139465
1772527333556730600,2.131730712890625,-0.08611579239368439,-0.9018194079399109,0.11873496323823929
1772527333566712300,2.14171240234375,0.20754170417785645,-0.6722189784049988,0.1506853848695755
1772527333576693500,2.151693603515625,0.5540705919265747,-0.20370450615882874,0.08753970265388489
1772527333586675500,2.161675537109375,0.6375550627708435,0.2341783344745636,0.04833562672138214
1772527333596657400,2.171657470703125,0.2609407305717468,0.33555638790130615,0.24021877348423004
1772527333606639400,2.181639404296875,-0.2134457230567932,0.06151100620627403,0.7797146439552307
1772527333616621600,2.19162158203125,-0.5183982253074646,-0.7177866697311401,1.5645663738250732
1772527333626603300,2.201603271484375,-0.3586008548736572,-1.4146584272384644,2.571667432785034
1772527333636585500,2.21158544921875,-0.12731356918811798,-1.5318440198898315,3.2999346256256104
1772527333646567400,2.2215673828125,-0.1614144742488861,-1.2693337202072144,3.3626348972320557
1772527333656549400,2.23154931640625,-0.36675935983657837,-0.629035472869873,2.8768441677093506
1772527333666530300,2.2415302734375,-0.5788049697875977,-0.15673598647117615,2.1747262477874756
1772527333676512500,2.251512451171875,-0.6814517378807068,-0.04565607011318207,1.517332673072815
1772527333686494500,2.261494384765625,-0.6385122537612915,-0.24142536520957947,1.023868441581726
1772527333696476400,2.271476318359375,-0.6320229172706604,-0.7289031744003296,0.6970154643058777
1772527333706458400,2.281458251953125,-0.8319535851478577,-1.368439793586731,0.5652313232421875
1772527333716440300,2.2914404296875,-1.1365611553192139,-1.9228888750076294,0.39766520261764526
1772527333726422500,2.301422607421875,-1.4611332416534424,-2.2152459621429443,-0.02503557689487934
1772527333736404500,2.311404541015625,-1.561059832572937,-2.141251564025879,-0.6592631340026855
1772527333746386400,2.321386474609375,-1.3535125255584717,-1.6209168434143066,-1.4603900909423828
1772527333756367400,2.331367431640625,-0.9698320031166077,-0.9729889631271362,-2.3121583461761475
1772527333766349300,2.341349365234375,-0.5857216715812683,-0.316027969121933,-3.041344404220581
1772527333776331500,2.35133154296875,-0.2881022095680237,0.15903149545192719,-3.5127816200256348
1772527333786313500,2.3613134765625,-0.08771756291389465,0.3527507781982422,-3.578927516937256
1772527333796295400,2.37129541015625,0.02358206734061241,0.31248006224632263,-3.1376335620880127
1772527333806277600,2.381277587890625,0.061275556683540344,0.060265980660915375,-2.288378953933716
1772527333816259300,2.39125927734375,0.16484110057353973,-0.3345732092857361,-1.1926050186157227
1772527333826241500,2.401241455078125,0.24560756981372833,-0.7241345643997192,-0.08992397785186768
1772527333836222500,2.411222412109375,0.19049690663814545,-1.0101027488708496,0.7873777151107788
1772527333846204400,2.421204345703125,0.019979950040578842,-1.1366132497787476,1.3275561332702637
1772527333856186400,2.431186279296875,-0.15414577722549438,-1.165053129196167,1.489078402519226
1772527333866168600,2.44116845703125,-0.25819912552833557,-1.1301066875457764,1.275044322013855
1772527333876150300,2.451150390625,-0.27023130655288696,-0.9281184673309326,0.8824584484100342
1772527333886132500,2.461132568359375,-0.20494890213012695,-0.490779310464859,0.4262266755104065
1772527333896114400,2.471114501953125,-0.08049512654542923,-0.04460291191935539,0.0012087910436093807
1772527333906096400,2.481096435546875,0.034686166793107986,0.333518385887146,-0.3111259937286377
1772527333916078300,2.491078369140625,0.12206660956144333,0.5828896164894104,-0.46284523606300354
1772527333926059500,2.5010595703125,0.15293540060520172,0.6891306042671204,-0.458223432302475
1772527333936041500,2.51104150390625,0.1528451293706894,0.6159738898277283,-0.3695782721042633
1772527333946023400,2.5210234375,0.13793005049228668,0.3873750567436218,-0.279474675655365
1772527333956005400,2.53100537109375,0.12474741041660309,0.022035153582692146,-0.20174019038677216
1772527333965987300,2.5409873046875,0.16002075374126434,-0.3878927230834961,-0.15814031660556793
1772527333975969300,2.55096923828125,0.2598128616809845,-0.7403407692909241,-0.1638549268245697
1772527333985951500,2.560951416015625,0.3806438446044922,-0.990369439125061,-0.25385531783103943
1772527333995933400,2.570933349609375,0.4813118577003479,-1.02974534034729,-0.5500491261482239
1772527334005915400,2.580915283203125,0.6191177368164062,-0.810127854347229,-1.0730950832366943
1772527334015896300,2.590896240234375,0.7628378868103027,-0.24738673865795135,-1.7867647409439087
1772527334025878500,2.60087841796875,0.8819640278816223,0.57694411277771,-2.471714973449707
1772527334035860500,2.610860595703125,0.9428691864013672,1.4152590036392212,-3.0066375732421875
1772527334045842400,2.620842529296875,1.0481489896774292,1.8417164087295532,-3.312040090560913
1772527334055824600,2.63082470703125,1.1603692770004272,1.8006126880645752,-3.318138360977173
1772527334065806300,2.640806396484375,1.163678765296936,1.4555606842041016,-3.005434989929199
1772527334075788500,2.65078857421875,0.8903293013572693,0.6777985692024231,-2.5724611282348633
1772527334085770500,2.6607705078125,0.4243011176586151,-0.6325502395629883,-2.058248519897461
1772527334095751400,2.67075146484375,0.061293069273233414,-2.001469850540161,-1.1690082550048828
1772527334105733400,2.6807333984375,-0.06702730059623718,-2.911290407180786,0.08803883194923401
1772527334115715300,2.69071533203125,-0.07734598964452744,-3.308509111404419,1.1069806814193726
1772527334125697300,2.700697265625,-0.008273587562143803,-2.9712917804718018,1.4815765619277954
1772527334135679200,2.71067919921875,0.08626090735197067,-1.8913387060165405,1.255715250968933
1772527334145661400,2.720661376953125,0.07930510491132736,-0.6108565926551819,0.7212469577789307
1772527334155643100,2.73064306640625,-0.015020331367850304,0.39585021138191223,0.13317570090293884
1772527334165625300,2.740625244140625,-0.1069621667265892,0.9878766536712646,-0.39939722418785095
1772527334175607300,2.750607177734375,-0.09300640225410461,1.3139103651046753,-0.6871248483657837
1772527334185588500,2.76058837890625,0.1746855080127716,1.4262254238128662,-0.6264018416404724
1772527334195570200,2.770570068359375,0.5342138409614563,1.3688243627548218,-0.28862378001213074
1772527334205552400,2.780552490234375,0.7754944562911987,1.1453280448913574,0.27222952246665955
1772527334215534300,2.790534423828125,0.8552896976470947,0.7207025289535522,0.985692024230957
1772527334225516300,2.800516357421875,0.8333538770675659,0.17562009394168854,1.7599852085113525
1772527334235498200,2.810498291015625,0.7900726795196533,-0.3925592005252838,2.4385671615600586
1772527334245480200,2.820480224609375,0.7459631562232971,-0.8353034853935242,2.8498756885528564
1772527334255462400,2.83046240234375,0.6851224303245544,-1.041308879852295,2.88749098777771
1772527334265443300,2.840443359375,0.5979310274124146,-0.8697695136070251,2.5355160236358643
1772527334275425300,2.85042529296875,0.4868319034576416,-0.3753989040851593,1.9317638874053955
1772527334285407200,2.8604072265625,0.39038345217704773,0.32395410537719727,1.2390824556350708
1772527334295389400,2.870389404296875,0.3416752815246582,1.0720072984695435,0.6344496607780457
1772527334305371400,2.880371337890625,0.3414236009120941,1.6859421730041504,0.2217712700366974
1772527334315353300,2.890353271484375,0.3741338849067688,2.096506118774414,0.023475758731365204
1772527334325335300,2.900335205078125,0.41125261783599854,2.218250036239624,-0.012061039917171001
1772527334335317200,2.910317138671875,0.43909355998039246,2.060992956161499,0.06707532703876495
1772527334345299200,2.92029931640625,0.44770076870918274,1.708141565322876,0.24539190530776978
1772527334355280400,2.9302802734375,0.47138985991477966,1.2161006927490234,0.4951727092266083
1772527334365262300,2.940262451171875,0.4969472885131836,0.7074126601219177,0.7404404282569885
1772527334375244300,2.950244384765625,0.4600960314273834,0.2967071831226349,0.9286561608314514
1772527334385226200,2.960226318359375,0.3320179283618927,-0.11287980526685715,0.9691557288169861
1772527334395208400,2.97020849609375,0.3424018621444702,-0.4249340891838074,0.8862288594245911
1772527334405190100,2.980190185546875,0.42782357335090637,-0.4634345769882202,0.6274227499961853
1772527334415172400,2.99017236328125,0.5234859585762024,-0.2834986448287964,0.3010910451412201
1772527334425154300,3.000154296875,0.6318214535713196,0.15296974778175354,0.01200302317738533
1772527334435136300,3.01013623046875,0.6802183389663696,0.6719298362731934,-0.2544081509113312
1772527334445117200,3.0201171875,0.6295506954193115,1.0240705013275146,-0.5274959802627563
1772527334455099400,3.030099365234375,0.4746173024177551,1.205825924873352,-0.7617718577384949
1772527334465081000,3.0400810546875,0.2869676947593689,1.1996737718582153,-0.9433410167694092
1772527334475063300,3.050063232421875,0.06886757165193558,0.9633114337921143,-1.095025658607483
1772527334485045200,3.060045166015625,-0.13699354231357574,0.5269525051116943,-1.2102125883102417
1772527334495027200,3.070027099609375,-0.2954218089580536,-0.04880667105317116,-1.252306580543518
1772527334505009400,3.080009521484375,-0.39636701345443726,-0.5409624576568604,-1.1415810585021973
1772527334514991400,3.089991455078125,-0.41758015751838684,-0.7036914825439453,-0.8853703141212463
1772527334524972300,3.09997216796875,-0.2982316017150879,-0.6075906157493591,-0.6667656302452087
1772527334534954200,3.109954345703125,-0.07812240719795227,-0.43438613414764404,-0.6921465992927551
1772527334544936400,3.1199365234375,0.14219564199447632,-0.31781908869743347,-0.981829822063446
1772527334554918400,3.12991845703125,0.3026620149612427,-0.4261162579059601,-1.3274354934692383
1772527334564900400,3.139900390625,0.4049742519855499,-0.9047956466674805,-1.451662302017212
1772527334574882300,3.14988232421875,0.3981642723083496,-1.5744802951812744,-1.056307077407837
1772527334584864300,3.1598642578125,0.29627054929733276,-1.9489177465438843,-0.09599026292562485
1772527334594846200,3.16984619140625,0.11704303324222565,-2.076758861541748,1.034865140914917
1772527334604828400,3.179828369140625,-0.18721508979797363,-2.329881191253662,1.780390739440918
1772527334614809300,3.189809326171875,-0.6213870048522949,-2.9251224994659424,1.948581576347351
1772527334624791300,3.199791259765625,-1.0025784969329834,-3.2819087505340576,1.8099700212478638
1772527334634773200,3.209773193359375,-1.19375479221344,-3.1133484840393066,1.536720633506775
1772527334644755500,3.21975537109375,-1.182307243347168,-2.7147443294525146,1.1985435485839844
1772527334654737200,3.229737060546875,-1.1614190340042114,-2.419830799102783,0.8518681526184082
1772527334664719400,3.23971923828125,-1.1773425340652466,-2.283243179321289,0.6386395692825317
1772527334674701300,3.249701416015625,-1.0797646045684814,-2.2900373935699463,0.618750810623169
1772527334684683300,3.259683349609375,-0.8661416172981262,-2.337898015975952,0.7087211012840271
1772527334694664200,3.269664306640625,-0.6194005012512207,-2.1643481254577637,0.7953939437866211
1772527334704646400,3.279646484375,-0.29365646839141846,-1.5303648710250854,0.7482843995094299
1772527334714628000,3.289628173828125,0.02522965520620346,-0.4794404208660126,0.511269748210907
1772527334724610300,3.2996103515625,0.3019680380821228,0.6868903636932373,0.141145721077919
1772527334734592300,3.30959228515625,0.540214478969574,1.56421959400177,-0.2623277008533478
1772527334744574200,3.31957421875,0.7032185196876526,2.077364444732666,-0.5986852049827576
1772527334754556400,3.329556396484375,0.7924490571022034,2.2674272060394287,-0.8265913128852844
1772527334764538400,3.339538330078125,0.8289425373077393,2.1684863567352295,-0.934543251991272
1772527334774520300,3.349520263671875,0.8541674613952637,1.9128444194793701,-0.8826188445091248
1772527334784501200,3.359501220703125,0.938139021396637,1.7382501363754272,-0.5727386474609375
1772527334794483500,3.3694833984375,1.0201739072799683,1.6494922637939453,-0.11507629603147507
1772527334804465400,3.37946533203125,1.034691572189331,1.6328331232070923,0.35054925084114075
1772527334814447400,3.389447265625,0.970744788646698,1.7275394201278687,0.7399129867553711
1772527334824429300,3.39942919921875,0.8704684972763062,1.8898512125015259,1.0236750841140747
1772527334834411300,3.409411376953125,0.7415544390678406,2.0225250720977783,1.2018953561782837
1772527334844393200,3.419393310546875,0.5949800610542297,1.9834671020507812,1.2684097290039062
1772527334854375400,3.42937548828125,0.4344194531440735,1.7598553895950317,1.2574447393417358
1772527334864356400,3.4393564453125,0.28612932562828064,1.3632649183273315,1.1942273378372192
1772527334874338300,3.44933837890625,0.15538115799427032,0.8726547360420227,1.0402737855911255
1772527334884320300,3.4593203125,0.02448555827140808,0.4509598910808563,0.7760680913925171
1772527334894302500,3.469302490234375,-0.10965520143508911,0.21088895201683044,0.41203686594963074
1772527334904284200,3.4792841796875,-0.2593286335468292,0.19245398044586182,0.03601112216711044
1772527334914266400,3.489266357421875,-0.3551451563835144,0.33333972096443176,-0.28586307168006897
1772527334924248300,3.499248291015625,-0.3679160475730896,0.5741446614265442,-0.5075893402099609
1772527334934230300,3.509230224609375,-0.32380956411361694,0.7868939638137817,-0.6650972366333008
1772527334944212200,3.519212158203125,-0.24286016821861267,0.9686765074729919,-0.7320832014083862
1772527334954193400,3.529193359375,-0.1270371675491333,1.1237348318099976,-0.7612783908843994
1772527334964175000,3.539175048828125,-0.044823188334703445,1.192224144935608,-0.782655656337738
1772527334974157300,3.5491572265625,0.00029688794165849686,1.1194034814834595,-0.7791866064071655
1772527334984139300,3.55913916015625,0.04145088791847229,0.9337509274482727,-0.7505521774291992
1772527334994121200,3.569121337890625,0.10517687350511551,0.6638094186782837,-0.7474671602249146
1772527335004103400,3.579103515625,0.1993694305419922,0.38812747597694397,-0.8273037075996399
1772527335014085400,3.58908544921875,0.2707653045654297,0.20084893703460693,-1.0364172458648682
1772527335024067300,3.5990673828125,0.2518170177936554,0.08179672062397003,-1.3633639812469482
1772527335034048300,3.60904833984375,0.17831242084503174,-0.1484045386314392,-1.68040931224823
1772527335044030200,3.6190302734375,0.19785404205322266,-0.4885077178478241,-1.6532305479049683
1772527335054012400,3.629012451171875,0.32385802268981934,-0.5559186935424805,-0.9534799456596375
1772527335063994400,3.638994384765625,0.4157598912715912,-0.6955684423446655,0.1936757117509842
1772527335073976300,3.648976318359375,0.256817102432251,-1.2854794263839722,1.3560552597045898
1772527335083958300,3.658958251953125,-0.1955738365650177,-1.990402102470398,2.3147549629211426
1772527335093940200,3.668940185546875,-0.6211429834365845,-2.4649417400360107,2.9558029174804688
1772527335103922400,3.67892236328125,-0.8234937787055969,-2.593104839324951,3.0555660724639893
1772527335113903400,3.6889033203125,-0.8522325158119202,-2.2101433277130127,2.6427853107452393
1772527335123885300,3.69888525390625,-0.7069203853607178,-1.4389936923980713,1.9775912761688232
1772527335133867300,3.7088671875,-0.47804006934165955,-0.5766587257385254,1.286495327949524
1772527335143849500,3.718849365234375,-0.3996104896068573,0.1919470876455307,0.5987408757209778
1772527335153831200,3.7288310546875,-0.4465806782245636,0.8465720415115356,-0.04033526033163071
1772527335163813400,3.7388134765625,-0.3806167244911194,1.417754054069519,-0.5427670478820801
1772527335173795300,3.74879541015625,-0.2135622203350067,1.798158884048462,-0.8874142169952393
1772527335183777300,3.75877734375,0.032619066536426544,1.9163044691085815,-1.0883065462112427
1772527335193759200,3.76875927734375,0.32052701711654663,1.8076839447021484,-1.0987703800201416
1772527335203740400,3.778740478515625,0.6717322468757629,1.5212339162826538,-0.9069831371307373
1772527335213722000,3.78872216796875,1.0672807693481445,1.1798545122146606,-0.5728440880775452
1772527335223704300,3.798704345703125,1.4654231071472168,0.8664708137512207,-0.22507071495056152
1772527335233686300,3.808686279296875,1.7868341207504272,0.6278606653213501,0.03855346888303757
1772527335243668200,3.818668212890625,1.9708518981933594,0.5791309475898743,0.19264788925647736
1772527335253650200,3.828650146484375,2.0570759773254395,0.7244769334793091,0.2639535069465637
1772527335263632400,3.83863232421875,2.0599889755249023,0.9616665840148926,0.3171178698539734
1772527335273614300,3.8486142578125,1.9477953910827637,1.373937726020813,0.46196800470352173
1772527335283595300,3.85859521484375,1.7839058637619019,1.8701353073120117,0.7546719908714294
1772527335293577200,3.8685771484375,1.498840570449829,1.8583036661148071,1.3723093271255493
1772527335303559400,3.878559326171875,0.9991159439086914,0.8862778544425964,2.275692939758301
1772527335313541400,3.888541259765625,0.5152044296264648,-0.6445761322975159,2.817283868789673
1772527335323523300,3.8985234375,0.27644863724708557,-1.3376308679580688,2.590193033218384
1772527335333505300,3.90850537109375,0.22552260756492615,-0.8766915202140808,1.842004656791687
1772527335343487200,3.9184873046875,0.22248920798301697,0.013551471754908562,0.9766783714294434
1772527335353469400,3.928469482421875,0.11753855645656586,0.7623538374900818,0.16937841475009918
1772527335363451100,3.938451171875,-0.11417791992425919,1.1413832902908325,-0.5076337456703186
1772527335373432300,3.948432373046875,-0.37939175963401794,1.235573410987854,-1.001194715499878
1772527335383414300,3.958414306640625,-0.5968271493911743,1.189948558807373,-1.308139443397522
1772527335393396500,3.968396484375,-0.7472105026245117,1.044528841972351,-1.505086898803711
1772527335403378200,3.978378173828125,-0.8273513913154602,0.9203566908836365,-1.6404931545257568
1772527335413360400,3.9883603515625,-0.8006313443183899,0.8345818519592285,-1.7436193227767944
1772527335423342300,3.99834228515625,-0.6440306305885315,0.7384406924247742,-1.7995812892913818
1772527335433324300,4.00832421875,-0.4313119947910309,0.6079122424125671,-1.7585878372192383
1772527335443306200,4.01830615234375,-0.20733153820037842,0.42276450991630554,-1.6420141458511353
1772527335453287400,4.028287353515625,-0.053652483969926834,0.23243053257465363,-1.5256364345550537
1772527335463269000,4.03826904296875,0.041276559233665466,0.1303059607744217,-1.4414057731628418
1772527335473251300,4.048251220703125,0.16543924808502197,0.12208745628595352,-1.429946780204773
1772527335483233300,4.0582333984375,0.34023892879486084,0.1627514362335205,-1.550955891609192
1772527335493215200,4.06821533203125,0.5573614239692688,0.0935731753706932,-1.7336293458938599
1772527335503197200,4.078197265625,0.7653568983078003,-0.18273812532424927,-1.7737386226654053
1772527335513179400,4.088179443359375,0.8784310221672058,-0.5947867035865784,-1.5716688632965088
1772527335523161300,4.098161376953125,0.9751557111740112,-0.8680399656295776,-1.0811679363250732
1772527335533143300,4.108143310546875,1.1243724822998047,-0.8109121918678284,-0.3713335394859314
1772527335543124200,4.118124267578125,1.2019641399383545,-0.7707867622375488,0.44011059403419495
1772527335553106400,4.1281064453125,1.096191644668579,-1.033372163772583,1.338189721107483
1772527335563088400,4.13808837890625,0.8459093570709229,-1.7567601203918457,2.2984046936035156
1772527335573070300,4.1480703125,0.5530068874359131,-2.6715993881225586,2.7436444759368896
1772527335583052300,4.15805224609375,0.11679872125387192,-3.1956064701080322,2.271219253540039
1772527335593034200,4.1680341796875,-0.056761350482702255,-2.5825133323669434,1.230376124382019
1772527335603016400,4.178016357421875,0.08351315557956696,-1.005308747291565,0.08967985212802887
1772527335612998100,4.187998046875,0.1149459108710289,0.305839478969574,-0.9212052822113037
1772527335622979300,4.197979248046875,-0.057594552636146545,0.7228416800498962,-1.7342009544372559
1772527335632961300,4.207961181640625,-0.12712836265563965,0.6425564289093018,-2.1732888221740723
1772527335642943500,4.217943603515625,0.11567481607198715,0.4055870771408081,-2.137228488922119
1772527335652925200,4.22792529296875,0.4824943542480469,0.010633896104991436,-1.6532458066940308
1772527335662907400,4.237907470703125,0.6611468195915222,-0.4867720305919647,-0.8912602066993713
1772527335672889300,4.247889404296875,0.7849803566932678,-0.93427973985672,0.04111938551068306
1772527335682871300,4.257871337890625,0.8687535524368286,-1.141907811164856,0.9484032392501831
1772527335692853200,4.267853271484375,0.9258986711502075,-1.0515897274017334,1.6399705410003662
1772527335702834400,4.27783447265625,0.9309173226356506,-0.7118179202079773,1.9565198421478271
1772527335712816000,4.287816162109375,0.85610032081604,-0.2847971022129059,1.8815523386001587
1772527335722798300,4.29779833984375,0.6973974704742432,0.2712680697441101,1.5002331733703613
1772527335732780300,4.3077802734375,0.4721004366874695,0.9861958622932434,0.9632387161254883
1772527335742762200,4.31776220703125,0.23803994059562683,1.7729647159576416,0.40355414152145386
1772527335752744200,4.327744140625,0.050674308091402054,2.4031224250793457,-0.10140518099069595
1772527335762726400,4.337726318359375,-0.06818448752164841,2.790616273880005,-0.4300519526004791
1772527335772708400,4.347708251953125,-0.09904253482818604,2.9683144092559814,-0.49215447902679443
1772527335782689300,4.357689208984375,-0.042949505150318146,2.871295928955078,-0.27275708317756653
1772527335792671200,4.367671142578125,0.01893303543329239,2.373171329498291,0.1207854226231575
1772527335802653400,4.3776533203125,0.024578562006354332,1.5555419921875,0.5549553036689758
1772527335812635400,4.387635498046875,-0.01708366349339485,0.6465542316436768,0.9207695126533508
1772527335822617300,4.397617431640625,-0.04123001545667648,-0.17017628252506256,1.1052922010421753
1772527335832599300,4.407599365234375,-0.04890790581703186,-0.8232398629188538,1.0019067525863647
1772527335842581200,4.417581298828125,-0.05361310765147209,-1.0811058282852173,0.6708566546440125
1772527335852563500,4.4275634765625,-0.008029907941818237,-0.9206929206848145,0.18530800938606262
1772527335862544400,4.43754443359375,0.035097505897283554,-0.49603939056396484,-0.40241244435310364
1772527335872526300,4.4475263671875,0.023947644978761673,0.017842048779129982,-1.0089188814163208
1772527335882508300,4.45750830078125,-0.01688554883003235,0.5064061284065247,-1.4675426483154297
1772527335892490500,4.467490478515625,-0.09724563360214233,0.8730810284614563,-1.7216424942016602
1772527335902472200,4.47747216796875,-0.19134539365768433,1.0485079288482666,-1.7930318117141724
1772527335912454400,4.487454345703125,-0.25338852405548096,1.0644587278366089,-1.7371838092803955
1772527335922436400,4.497436279296875,-0.30080732703208923,0.8406981825828552,-1.6411839723587036
1772527335932418300,4.507418212890625,-0.34179285168647766,0.41098248958587646,-1.5170515775680542
1772527335942400300,4.517400146484375,-0.36042389273643494,-0.08823411166667938,-1.330676794052124
1772527335952381400,4.52738134765625,-0.33703893423080444,-0.5616432428359985,-1.119815468788147
1772527335962363100,4.537363037109375,-0.3399104177951813,-0.8938425779342651,-1.0100438594818115
1772527335972345300,4.547345458984375,-0.4399142563343048,-0.9815588593482971,-1.0666743516921997
1772527335982327300,4.557327392578125,-0.6099141240119934,-0.8690077066421509,-1.2103749513626099
1772527335992309200,4.567309326171875,-0.7634669542312622,-0.727485716342926,-1.3740754127502441
1772527336002291200,4.577291259765625,-0.8433164358139038,-0.49794456362724304,-1.4233250617980957
1772527336012273400,4.5872734375,-0.8053986430168152,-0.22702574729919434,-1.245265007019043
1772527336022255400,4.59725537109375,-0.6567665338516235,-0.17506764829158783,-0.7910529971122742
1772527336032236300,4.607236328125,-0.5314549803733826,-0.47572094202041626,0.023878242820501328
1772527336042218200,4.61721826171875,-0.4230966866016388,-1.3708888292312622,1.1327701807022095
1772527336052200200,4.6272001953125,-0.4545406103134155,-2.9830915927886963,2.1182940006256104
1772527336062182400,4.637182373046875,-0.5704773664474487,-4.4590606689453125,2.7253167629241943
1772527336072164400,4.647164306640625,-0.6091443300247192,-5.118914604187012,3.05114483833313
1772527336082146300,4.657146240234375,-0.561731219291687,-5.250886917114258,3.0791702270507812
1772527336092128300,4.667128173828125,-0.6058076024055481,-4.4096527099609375,2.47816801071167
1772527336102110500,4.6771103515625,-0.7207462191581726,-2.4975204467773438,1.372278094291687
1772527336112091000,4.6870908203125,-0.7332886457443237,-0.08064213395118713,0.15089468657970428
1772527336122072800,4.69707275390625,-0.5894051194190979,2.216494083404541,-0.8608967661857605
1772527336132055000,4.707054931640625,-0.3096427321434021,3.7954349517822266,-1.2383064031600952
1772527336142037000,4.717037109375,0.1462177336215973,4.279820919036865,-0.8260727524757385
1772527336152019000,4.72701904296875,0.6463415622711182,3.6299889087677,0.20412372052669525
1772527336162001000,4.7370009765625,1.017648696899414,2.089048385620117,1.6100127696990967
1772527336171983000,4.746983154296875,0.9820631742477417,-0.05545945093035698,3.021036386489868
1772527336181964800,4.75696484375,0.7537850737571716,-1.5589683055877686,3.877615213394165
1772527336191946000,4.766946044921875,0.6698310375213623,-2.04439640045166,3.8932602405548096
1772527336201928000,4.776927978515625,0.7521082162857056,-1.4067577123641968,3.236743450164795
1772527336211910000,4.786909912109375,0.6479189395904541,-0.3531685471534729,2.5863587856292725
1772527336221891800,4.796891845703125,0.37019264698028564,0.27775201201438904,2.197819471359253
1772527336231874000,4.8068740234375,0.16502615809440613,0.6208223104476929,1.9788607358932495
1772527336241855700,4.816855712890625,0.10239724814891815,0.7812439203262329,1.8695536851882935
1772527336251838000,4.826837890625,0.08645077049732208,0.7845633029937744,1.796819806098938
1772527336261820000,4.83681982421875,0.09044130891561508,0.699181854724884,1.674364686012268
1772527336271801900,4.8468017578125,0.03711124137043953,0.7129166126251221,1.4483253955841064
1772527336281782800,4.85678271484375,0.06005331873893738,0.8466720581054688,1.1087547540664673
1772527336291765000,4.866764892578125,0.057321980595588684,0.9298532009124756,0.7118833065032959
1772527336301747000,4.876746826171875,-0.025891706347465515,0.9270493388175964,0.2553807497024536
1772527336311729000,4.88672900390625,-0.03656592220067978,0.8494037985801697,-0.3127647042274475
1772527336321710800,4.8967109375,-0.04399910569190979,0.8150488138198853,-0.9917144179344177
1772527336331693000,4.906693115234375,-0.07465182989835739,0.7052831649780273,-1.6704641580581665
1772527336341675000,4.916675048828125,-0.16355015337467194,0.4860745072364807,-2.2471859455108643
1772527336351657000,4.926656982421875,-0.25218573212623596,0.27537426352500916,-2.6081974506378174
1772527336361638000,4.936637939453125,-0.19766457378864288,0.3580300807952881,-2.542698621749878
1772527336371619800,4.946619873046875,-0.1954759955406189,0.24510909616947174,-2.3298330307006836
1772527336381602000,4.95660205078125,-0.2636466920375824,-0.016163794323801994,-2.0803580284118652
1772527336391584000,4.966583984375,-0.34518495202064514,-0.09474621713161469,-1.8248300552368164
1772527336401566000,4.97656591796875,-0.4332849979400635,-0.05912933126091957,-1.6306496858596802
1772527336411548000,4.9865478515625,-0.4950045645236969,-0.06211206689476967,-1.5293939113616943
1772527336421530000,4.996530029296875,-0.5519248843193054,-0.08205496519804001,-1.498732328414917
1772527336431511800,5.00651171875,-0.5802491903305054,-0.07013705372810364,-1.4846974611282349
1772527336441493000,5.016492919921875,-0.536482572555542,-0.03994131088256836,-1.511911392211914
1772527336451475000,5.026474853515625,-0.44315287470817566,-0.014836225658655167,-1.6483895778656006
1772527336461457000,5.036456787109375,-0.325690895318985,0.018003765493631363,-1.8839259147644043
1772527336471438800,5.04643896484375,-0.2650110125541687,0.12049631774425507,-2.167555332183838
1772527336481421000,5.056421142578125,-0.27818167209625244,0.17860884964466095,-2.505488634109497
1772527336491402800,5.06640283203125,-0.3376612663269043,0.18952620029449463,-2.742389440536499
1772527336501385000,5.076385009765625,-0.3033245801925659,0.23681782186031342,-2.563861846923828
1772527336511367000,5.086366943359375,-0.21561339497566223,0.22802646458148956,-1.8692386150360107
1772527336521348000,5.09634814453125,-0.13586507737636566,0.06371999531984329,-0.8280376195907593
1772527336531329800,5.106329833984375,-0.28170245885849,-0.3703736662864685,0.13690075278282166
1772527336541312000,5.11631201171875,-0.7276582717895508,-0.8443939089775085,0.6151559352874756
1772527336551294000,5.1262939453125,-1.2690544128417969,-1.1287922859191895,0.543084979057312
1772527336561276000,5.13627587890625,-1.638168454170227,-0.8490309715270996,0.07629875093698502
1772527336571257900,5.1462578125,-1.6757808923721313,-0.0018419069238007069,-0.5485989451408386
1772527336581240000,5.156239990234375,-1.4969197511672974,1.0708611011505127,-1.0684404373168945
1772527336591222000,5.166221923828125,-1.2235287427902222,1.8145767450332642,-1.2201197147369385
1772527336601204000,5.176203857421875,-0.8939578533172607,2.0268585681915283,-0.8949000835418701
1772527336611185000,5.186184814453125,-0.4915488660335541,1.7499182224273682,-0.21211402118206024
1772527336621166800,5.196166748046875,-0.053592029958963394,1.1415367126464844,0.6099774837493896
1772527336631148800,5.206148681640625,0.35036078095436096,0.4125606119632721,1.3209943771362305
1772527336641131000,5.216131103515625,0.6693750619888306,-0.22388650476932526,1.8348183631896973
1772527336651113000,5.226113037109375,0.8727063536643982,-0.7170860767364502,2.155958652496338
1772527336661095000,5.236094970703125,0.9447613954544067,-0.960395336151123,2.3040425777435303
1772527336671077000,5.2460771484375,0.8272209167480469,-0.9535211324691772,2.297436475753784
1772527336681058000,5.25605810546875,0.5525218844413757,-0.7056801915168762,2.125767946243286
1772527336691040000,5.2660400390625,0.16632895171642303,-0.3908975124359131,1.869353175163269
1772527336701022000,5.27602197265625,-0.2687433660030365,-0.20928515493869781,1.6392334699630737
1772527336711004000,5.28600390625,-0.6085965037345886,-0.09875570982694626,1.436523199081421
1772527336720985900,5.29598583984375,-0.7356597781181335,0.10756313055753708,1.2015935182571411
1772527336730968000,5.305968017578125,-0.6841468214988708,0.35082849860191345,1.0050296783447266
1772527336740949800,5.31594970703125,-0.5815525650978088,0.42603904008865356,0.939507782459259
1772527336750932000,5.325931884765625,-0.4870484471321106,0.26498010754585266,0.9531242251396179
1772527336760913000,5.335912841796875,-0.41051095724105835,0.017472730949521065,0.9467253088951111
1772527336770895000,5.34589501953125,-0.3698226511478424,-0.15578506886959076,0.8313164710998535
1772527336780876800,5.355876708984375,-0.3468906581401825,-0.19756124913692474,0.5911235213279724
1772527336790859000,5.36585888671875,-0.30318257212638855,-0.14176003634929657,0.30283576250076294
1772527336800841000,5.375841064453125,-0.28107750415802,-0.03595771640539169,0.03590045124292374
1772527336810823000,5.385822998046875,-0.27937519550323486,0.07483670860528946,-0.2375422716140747
1772527336820804900,5.395804931640625,-0.30228930711746216,0.18800583481788635,-0.5185438394546509
1772527336830786800,5.405786865234375,-0.3340693414211273,0.2722408175468445,-0.7801128625869751
1772527336840768800,5.415768798828125,-0.37841299176216125,0.26528286933898926,-1.0021343231201172
1772527336850750000,5.42575,-0.43117421865463257,0.1399315893650055,-1.1941474676132202
1772527336860732000,5.43573193359375,-0.4817156493663788,-0.03690981864929199,-1.3299260139465332
1772527336870713900,5.4457138671875,-0.4980887472629547,-0.1346326470375061,-1.4009006023406982
1772527336880695800,5.45569580078125,-0.4800947606563568,-0.24218356609344482,-1.4191231727600098
1772527336890678000,5.465677978515625,-0.4939993917942047,-0.36715561151504517,-1.4339516162872314
1772527336900660000,5.475659912109375,-0.5798972249031067,-0.4024673402309418,-1.4656784534454346
1772527336910642000,5.485641845703125,-0.678808867931366,-0.3319931626319885,-1.4964115619659424
1772527336920624000,5.4956240234375,-0.6978960633277893,-0.2565827965736389,-1.5137014389038086
1772527336930605000,5.50560498046875,-0.5955798029899597,-0.15588469803333282,-1.5071667432785034
1772527336940587000,5.5155869140625,-0.385612815618515,0.012061292305588722,-1.5090221166610718
1772527336950569000,5.52556884765625,-0.15611198544502258,0.11245261132717133,-1.582372784614563
1772527336960551000,5.535551025390625,-0.028064444661140442,0.06872178614139557,-1.7354896068572998
1772527336970532900,5.545532958984375,-0.05605693161487579,-0.02022247202694416,-1.9815260171890259
1772527336980515000,5.55551513671875,-0.13859473168849945,-0.12678219377994537,-2.3558313846588135
1772527336990496800,5.565496826171875,-0.1710919439792633,-0.2756968140602112,-2.765085458755493
1772527337000479000,5.57547900390625,-0.1689237803220749,-0.46799659729003906,-3.0088846683502197
1772527337010460000,5.5854599609375,-0.11763822287321091,-0.8977245092391968,-2.9523563385009766
1772527337020442000,5.595442138671875,-0.23114848136901855,-1.8460091352462769,-2.6660518646240234
1772527337030423800,5.605423828125,-0.5166537761688232,-2.713803768157959,-2.0708556175231934
1772527337040406000,5.615406005859375,-0.7058359980583191,-2.821276903152466,-1.160868763923645
1772527337050388000,5.625387939453125,-0.6441007256507874,-2.0979087352752686,-0.27678367495536804
1772527337060370000,5.635369873046875,-0.43351736664772034,-0.8673937320709229,0.20108436048030853
1772527337070352000,5.645351806640625,-0.2322859913110733,0.43834245204925537,0.2755673825740814
1772527337080333800,5.655333740234375,-0.11966819316148758,1.4987317323684692,0.24178926646709442
1772527337090314800,5.665314697265625,-0.023785073310136795,2.161318063735962,0.2744918167591095
1772527337100297000,5.675296875,0.1734037846326828,2.4424190521240234,0.4177888333797455
1772527337110279700,5.68527978515625,0.47135981917381287,2.417266368865967,0.7364672422409058
1772527337120262000,5.695261962890625,0.790764331817627,1.9938445091247559,1.0751328468322754
1772527337130243800,5.705243896484375,1.0139933824539185,1.3082200288772583,1.3193995952606201
1772527337140225800,5.715225830078125,1.1133288145065308,0.6491950154304504,1.4506515264511108
1772527337150207700,5.725207763671875,1.088181972503662,0.21871261298656464,1.3880832195281982
1772527337160190000,5.73518994140625,0.9790025353431702,0.09353750944137573,1.1114072799682617
1772527337170171000,5.7451708984375,0.8388779163360596,0.29355210065841675,0.678236186504364
1772527337180152800,5.75515283203125,0.7608420252799988,0.7277832627296448,0.1500764638185501
1772527337190134800,5.765134765625,0.761117160320282,1.1923631429672241,-0.37353453040122986
1772527337200117000,5.775116943359375,0.8354867100715637,1.580981969833374,-0.7727286219596863
1772527337210098700,5.7850986328125,0.8774168491363525,1.7506685256958008,-1.0112165212631226
1772527337220081000,5.795080810546875,0.8848699331283569,1.575594186782837,-1.0791537761688232
1772527337230062800,5.805062744140625,0.8828808069229126,1.2506818771362305,-0.8602437376976013
1772527337240044800,5.815044921875,0.8764231204986572,0.8462934494018555,-0.3777979016304016
1772527337250025700,5.825025634765625,0.8573170900344849,0.43730297684669495,0.23854437470436096
1772527337260008000,5.835008056640625,0.8231184482574463,0.05536181107163429,0.8389611840248108
1772527337269989600,5.84498974609375,0.7713788151741028,-0.24351464211940765,1.3065736293792725
1772527337279971800,5.854971923828125,0.6769029498100281,-0.4336490035057068,1.5856962203979492
1772527337289953800,5.864953857421875,0.5395762324333191,-0.5554142594337463,1.6277523040771484
1772527337299935700,5.874935791015625,0.38105398416519165,-0.6366958022117615,1.4694836139678955
1772527337309917700,5.884917724609375,0.20830164849758148,-0.700829029083252,1.1931276321411133
1772527337319900000,5.89489990234375,-0.04889713227748871,-0.881938099861145,0.8297348022460938
1772527337329880800,5.904880859375,-0.32043009996414185,-1.104505181312561,0.43750765919685364
1772527337339862800,5.91486279296875,-0.5798746347427368,-1.276024580001831,0.06607543677091599
1772527337349844700,5.9248447265625,-0.7739498019218445,-1.359584927558899,-0.21237750351428986
1772527337359826700,5.93482666015625,-0.8854873776435852,-1.3044180870056152,-0.35496786236763
1772527337369809000,5.944808837890625,-0.9203559160232544,-1.1134414672851562,-0.42109599709510803
1772527337379790800,5.954790771484375,-0.8982676267623901,-0.7961093783378601,-0.5161178708076477
1772527337389772800,5.964772705078125,-0.8536988496780396,-0.492741197347641,-0.6490082740783691
1772527337399754800,5.974754638671875,-0.8218345046043396,-0.25263240933418274,-0.7680492997169495
1772527337409736000,5.98473583984375,-0.7865052819252014,-0.11645884811878204,-0.8306559324264526
1772527337419718000,5.9947177734375,-0.7296693325042725,-0.06639764457941055,-0.7548840045928955
1772527337429699800,6.004699951171875,-0.5864778161048889,-0.08870987594127655,-0.5392662286758423
1772527337439681800,6.014681884765625,-0.3567868769168854,-0.1460445374250412,-0.25525689125061035
1772527337449664000,6.0246640625,-0.13341447710990906,-0.16279183328151703,-0.025692135095596313
1772527337459645700,6.034645751953125,-0.03614620864391327,-0.18297669291496277,0.004911512602120638
1772527337469628000,6.0446279296875,-0.1035337746143341,-0.40927451848983765,-0.1993689239025116
1772527337479609600,6.054609619140625,-0.2981404662132263,-0.6512540578842163,-0.43960797786712646
1772527337489590800,6.0645908203125,-0.52516108751297,-0.8945244550704956,-0.528702974319458
1772527337499572700,6.07457275390625,-0.5965355634689331,-0.8745139241218567,-0.36696556210517883
1772527337509555000,6.084554931640625,-0.4375821053981781,-0.49323317408561707,0.018430059775710106
1772527337519536600,6.09453662109375,-0.13937388360500336,-0.03734952583909035,0.42527058720588684
1772527337529518800,6.104518798828125,0.13199849426746368,0.15068376064300537,0.8162028789520264
1772527337539500800,6.114500732421875,0.1960168480873108,0.07813483476638794,1.1086102724075317
1772527337549482800,6.124482666015625,-0.03224775195121765,-0.13482032716274261,1.1767901182174683
1772527337559464700,6.134464599609375,-0.44643619656562805,-0.2634923756122589,0.97376948595047
1772527337569446000,6.14444580078125,-0.8742532730102539,-0.37120071053504944,0.5115408301353455
1772527337579427800,6.154427734375,-1.2492519617080688,-0.40792813897132874,-0.08861473202705383
1772527337589409800,6.164409912109375,-1.5109975337982178,-0.517182469367981,-0.6951749324798584
1772527337599391700,6.174391845703125,-1.6175196170806885,-0.5812861919403076,-1.0637842416763306
1772527337609373700,6.184373779296875,-1.5391252040863037,-0.5263715386390686,-1.0757160186767578
1772527337619356000,6.19435595703125,-1.2585034370422363,-0.4766424000263214,-0.7949662804603577
1772527337629337900,6.204337890625,-0.9115477204322815,-0.544782280921936,-0.318540096282959
1772527337639318800,6.21431884765625,-0.620448648929596,-0.6002891063690186,0.2399769127368927
1772527337649300700,6.22430078125,-0.40464073419570923,-0.5549970269203186,0.688372790813446
1772527337659283000,6.234282958984375,-0.2777443826198578,-0.5270256400108337,0.9740725159645081
1772527337669265000,6.244264892578125,-0.24841125309467316,-0.5495194792747498,1.1167590618133545
1772527337679246800,6.254246826171875,-0.24304205179214478,-0.6628912091255188,1.1344760656356812
1772527337689228800,6.264228759765625,-0.226737380027771,-0.8340770602226257,1.0546454191207886
1772527337699211000,6.2742109375,-0.1733168065547943,-0.9189373850822449,0.9241760969161987
1772527337709192700,6.284192626953125,-0.06250026822090149,-0.8182512521743774,0.7523683905601501
1772527337719174000,6.294173828125,0.10504070669412613,-0.5312323570251465,0.5426945686340332
1772527337729155800,6.30415576171875,0.29513636231422424,-0.14540082216262817,0.29866647720336914
1772527337739137800,6.3141376953125,0.4590834081172943,0.2262549102306366,0.07425178587436676
1772527337749119700,6.32411962890625,0.5773938298225403,0.5103784799575806,-0.10331155359745026
1772527337759102000,6.33410205078125,0.6435173153877258,0.6795254945755005,-0.23624953627586365
1772527337769083600,6.344083740234375,0.6617011427879333,0.7617934346199036,-0.3061359226703644
1772527337779065900,6.35406591796875,0.6235255002975464,0.7666205763816833,-0.3036932349205017
1772527337789047800,6.3640478515625,0.5571331977844238,0.7316372990608215,-0.23162144422531128
1772527337799029000,6.374029052734375,0.4462863802909851,0.6808638572692871,-0.09020179510116577
1772527337809010700,6.3840107421875,0.3133924901485443,0.548322856426239,0.08809603750705719
1772527337818993000,6.393992919921875,0.17233562469482422,0.36355337500572205,0.26860311627388
1772527337828974800,6.403974853515625,0.03926066681742668,0.12154819071292877,0.39780399203300476
1772527337838956800,6.413956787109375,-0.0756731852889061,-0.15103551745414734,0.4539886713027954
1772527337848938800,6.423938720703125,-0.16400811076164246,-0.41074270009994507,0.49584904313087463
1772527337858920700,6.433920654296875,-0.2519022524356842,-0.5106842517852783,0.5955868363380432
1772527337868903000,6.44390283203125,-0.3183281421661377,-0.2734996974468231,0.8061720728874207
1772527337878883800,6.4538837890625,-0.3379962742328644,0.12429691851139069,1.0002632141113281
1772527337888865800,6.46386572265625,-0.3406272232532501,0.5604174733161926,1.0192896127700806
1772527337898847700,6.47384765625,-0.3591527044773102,0.8678776025772095,0.7442169785499573
1772527337908829700,6.48382958984375,-0.4062022268772125,0.8232009410858154,0.23760811984539032
1772527337918812000,6.49381201171875,-0.3535234332084656,0.7500326633453369,-0.16299192607402802
1772527337928793900,6.5037939453125,-0.1527804732322693,0.9297025799751282,-0.27274319529533386
1772527337938775800,6.51377587890625,0.09901779145002365,0.9812950491905212,-0.18735520541667938
1772527337948757800,6.5237578125,0.18603605031967163,0.7680818438529968,-0.19655881822109222
1772527337958738700,6.53373876953125,0.1252504587173462,0.5388778448104858,-0.2757926285266876
1772527337968721000,6.543720947265625,0.09038729965686798,0.1038086861371994,-0.06763356178998947
1772527337978702800,6.553702880859375,-0.00026623718440532684,0.054577283561229706,0.7419399619102478
1772527337988684800,6.563684814453125,-0.32861483097076416,0.13954277336597443,1.5883989334106445
1772527337998666800,6.573666748046875,-0.6388675570487976,-0.47586047649383545,1.8656039237976074
1772527338008649000,6.58364892578125,-0.7625554203987122,-1.5757230520248413,1.4535478353500366
1772527338018630700,6.593630615234375,-0.6727245450019836,-2.194605588912964,0.5921387672424316
1772527338028612900,6.60361279296875,-0.40924227237701416,-1.9599114656448364,-0.3488926589488983
1772527338038593800,6.61359375,-0.09232893586158752,-1.1188700199127197,-1.1407355070114136
1772527338048576000,6.623575927734375,0.20658133924007416,-0.15800713002681732,-1.7117584943771362
1772527338058557700,6.6335576171875,0.44634395837783813,0.4872388243675232,-1.9663395881652832
1772527338068540000,6.643539794921875,0.66482013463974,0.7468264698982239,-1.8520126342773438
1772527338078521900,6.65352197265625,0.8497859239578247,0.6169461011886597,-1.4332572221755981
1772527338088503800,6.66350390625,1.0015895366668701,0.22605794668197632,-0.8412689566612244
1772527338098485800,6.67348583984375,1.1199511289596558,-0.28920966386795044,-0.22259321808815002
1772527338108467000,6.683467041015625,1.1981550455093384,-0.7791836261749268,0.2939434051513672
1772527338118448600,6.69344873046875,1.2473770380020142,-1.0905992984771729,0.642227828502655
1772527338128430800,6.703430908203125,1.2746163606643677,-1.1908208131790161,0.7974230051040649
1772527338138413000,6.7134130859375,1.274308681488037,-1.0247807502746582,0.7650958299636841
1772527338148394800,6.723394775390625,1.2443382740020752,-0.5196959972381592,0.566507875919342
1772527338158377000,6.733376953125,1.1991090774536133,0.19881057739257812,0.2466064989566803
1772527338168359000,6.74335888671875,1.1387271881103516,0.9473490118980408,-0.0792246013879776
1772527338178340900,6.7533408203125,1.0615565776824951,1.5817110538482666,-0.3106946647167206
1772527338188321800,6.76332177734375,0.9709382653236389,2.0990023612976074,-0.4038988947868347
1772527338198304000,6.773303955078125,0.8888733983039856,2.4510908126831055,-0.35335713624954224
1772527338208285700,6.78328564453125,0.830027163028717,2.451972246170044,-0.2325127273797989
1772527338218268000,6.793267822265625,0.7786118388175964,2.117587089538574,-0.07137642800807953
1772527338228249900,6.803249755859375,0.7080806493759155,1.729406476020813,0.1728479415178299
1772527338238231800,6.813231689453125,0.6015135049819946,1.4065208435058594,0.5111280083656311
1772527338248213800,6.8232138671875,0.42562541365623474,1.2540322542190552,0.8892298340797424
1772527338258196000,6.833196044921875,0.18394173681735992,1.1461776494979858,1.1799224615097046
1772527338268177000,6.843177001953125,-0.0686044842004776,1.0347576141357422,1.3169457912445068
1772527338278158800,6.853158935546875,-0.2499573826789856,0.9258723855018616,1.3349107503890991
1772527338288140800,6.863140869140625,-0.3392544984817505,0.8165967464447021,1.279708981513977
1772527338298123000,6.873123046875,-0.3739458918571472,0.6752262711524963,1.1344407796859741
1772527338308104700,6.883104736328125,-0.3661481738090515,0.5014927983283997,0.9349433779716492
1772527338318087000,6.8930869140625,-0.3432405889034271,0.35774028301239014,0.7327736616134644
1772527338328068600,6.903068603515625,-0.32249829173088074,0.22404134273529053,0.4904283881187439
1772527338338050800,6.91305078125,-0.2920176684856415,0.024644071236252785,0.16555659472942352
1772527338348031700,6.92303173828125,-0.2980729043483734,-0.27419400215148926,-0.2082287222146988
1772527338358014000,6.933013916015625,-0.3384445309638977,-0.5920313000679016,-0.5228407382965088
1772527338367995600,6.94299560546875,-0.3644274175167084,-0.7910658717155457,-0.7332578897476196
1772527338377977900,6.952977783203125,-0.3192456364631653,-0.7055076956748962,-0.8516720533370972
1772527338387960000,6.9629599609375,-0.14601099491119385,-0.3630608022212982,-0.8809974789619446
1772527338397941800,6.972941650390625,0.03902257978916168,-0.08289523422718048,-0.9170042276382446
1772527338407924000,6.982924072265625,0.13396266102790833,-0.126302108168602,-0.9527745246887207
1772527338417906000,6.992906005859375,0.1477213203907013,-0.4216402769088745,-0.8382447361946106
1772527338427886800,7.002886962890625,0.18971297144889832,-0.7384118437767029,-0.4436827600002289
1772527338437868800,7.012868896484375,0.22975388169288635,-1.0015681982040405,0.16406340897083282
1772527338447851000,7.02285107421875,-0.04139373451471329,-1.1552730798721313,0.5774179697036743
1772527338457832700,7.032832763671875,-0.6605082154273987,-1.391587257385254,0.44443389773368835
1772527338467815000,7.04281494140625,-1.309668779373169,-1.6965006589889526,-0.11979085206985474
1772527338477796900,7.052796875,-1.597960114479065,-2.162832021713257,-0.9435246586799622
1772527338487778800,7.06277880859375,-1.3834095001220703,-2.600693941116333,-1.7328020334243774
1772527338497760800,7.0727607421875,-0.9188016057014465,-2.4191133975982666,-2.2436909675598145
1772527338507742000,7.082741943359375,-0.509914219379425,-1.8548609018325806,-2.580568313598633
1772527338517724000,7.092723876953125,-0.19481679797172546,-1.0664987564086914,-2.670762300491333
1772527338527705900,7.102705810546875,0.03727370500564575,-0.34161177277565,-2.50321626663208
1772527338537687800,7.112687744140625,0.21001467108726501,0.059092920273542404,-2.166563034057617
1772527338547669800,7.122669677734375,0.322273850440979,0.13251253962516785,-1.724757432937622
1772527338557651700,7.132651611328125,0.4004260003566742,-0.002685247454792261,-1.1744948625564575
1772527338567634000,7.142634033203125,0.4465857744216919,-0.29864951968193054,-0.6170297265052795
1772527338577614800,7.15261474609375,0.45282241702079773,-0.6564225554466248,-0.16424502432346344
1772527338587596800,7.1625966796875,0.4588853716850281,-0.8414368629455566,0.10235044360160828
1772527338597578800,7.172578857421875,0.4928869605064392,-0.7649379968643188,0.15895596146583557
1772527338607561000,7.18256103515625,0.6045237183570862,-0.47987616062164307,0.05326255410909653
1772527338617542700,7.192542724609375,0.7790442109107971,-0.17107807099819183,-0.13811326026916504
1772527338627524900,7.20252490234375,0.9780012369155884,0.11502692848443985,-0.27296963334083557
1772527338637507000,7.212507080078125,1.1402732133865356,0.37000083923339844,-0.2904209792613983
1772527338647488800,7.22248876953125,1.2233341932296753,0.5489740967750549,-0.18597659468650818
1772527338657469700,7.2324697265625,1.243411898612976,0.6491904854774475,0.010358991101384163
1772527338667452000,7.242451904296875,1.2061619758605957,0.6529790759086609,0.2607840299606323
1772527338677433900,7.252433837890625,1.1086291074752808,0.6066981554031372,0.5096826553344727
1772527338687415800,7.262415771484375,0.967991054058075,0.5444736480712891,0.7284917235374451
1772527338697398000,7.27239794921875,0.8244693875312805,0.437940388917923,0.9027010202407837
1772527338707379700,7.282379638671875,0.6880800724029541,0.3039967119693756,1.0263148546218872
1772527338717362000,7.29236181640625,0.5837409496307373,0.16242311894893646,1.100830078125
1772527338727342800,7.3023427734375,0.531542181968689,0.08822345733642578,1.1390395164489746
1772527338737325000,7.312324951171875,0.5012093782424927,0.11092711240053177,1.120951771736145
1772527338747306800,7.322306640625,0.4905130863189697,0.21712172031402588,1.047489047050476
1772527338757289000,7.3322890625,0.49903905391693115,0.3233450651168823,0.9282575845718384
1772527338767271000,7.34227099609375,0.5241036415100098,0.38704416155815125,0.7953656315803528
1772527338777252900,7.3522529296875,0.5558314919471741,0.4504122734069824,0.672676146030426
1772527338787234800,7.36223486328125,0.5773400068283081,0.5000730156898499,0.5568068027496338
1772527338797216800,7.372216796875,0.6017904281616211,0.570406436920166,0.4417174458503723
1772527338807197700,7.38219775390625,0.6391138434410095,0.6628165245056152,0.3425666391849518
1772527338817180000,7.392179931640625,0.6704251170158386,0.7172308564186096,0.2604323923587799
1772527338827161900,7.402161865234375,0.6755770444869995,0.716833233833313,0.20501095056533813
1772527338837143800,7.412143798828125,0.6592997312545776,0.6978465914726257,0.1930854171514511
1772527338847125800,7.422125732421875,0.6166534423828125,0.6490902304649353,0.20659802854061127
1772527338857108000,7.43210791015625,0.5599557757377625,0.5406352877616882,0.21591463685035706
1772527338867089700,7.442089599609375,0.46995580196380615,0.37636807560920715,0.20155194401741028
1772527338877072000,7.45207177734375,0.3598712980747223,0.22138598561286926,0.15958914160728455
1772527338887052800,7.462052734375,0.24121254682540894,0.11627423018217087,0.08891523629426956
1772527338897035000,7.472034912109375,0.12908467650413513,0.017554838210344315,-0.028299806639552116
1772527338907016700,7.4820166015625,0.03643472492694855,-0.10574962198734283,-0.15865764021873474
1772527338916999000,7.4919990234375,-0.01265115849673748,-0.24563956260681152,-0.27890700101852417
1772527338926980600,7.501980712890625,-0.03039953112602234,-0.3499172329902649,-0.39365196228027344
1772527338936962800,7.511962890625,-0.006232057232409716,-0.3825674057006836,-0.49825727939605713
1772527338946945000,7.521945068359375,0.04371073469519615,-0.3215852677822113,-0.5968325734138489
1772527338956926700,7.5319267578125,0.11621225625276566,-0.19602441787719727,-0.691974937915802
1772527338966907600,7.54190771484375,0.20125576853752136,-0.042194101959466934,-0.7801913619041443
1772527338976889900,7.551889892578125,0.2930779457092285,0.09639647603034973,-0.8609736561775208
1772527338986872000,7.5618720703125,0.3861125409603119,0.19105400145053864,-0.9069470167160034
1772527338996853800,7.571853759765625,0.47249338030815125,0.24216483533382416,-0.8907676935195923
1772527339006836000,7.5818359375,0.5226228833198547,0.24503599107265472,-0.8066586852073669
1772527339016818000,7.59181787109375,0.5298649668693542,0.22807073593139648,-0.6701047420501709
1772527339026799900,7.6017998046875,0.5105608105659485,0.19207385182380676,-0.5453404188156128
1772527339036780800,7.61178076171875,0.5217302441596985,0.1600126028060913,-0.43342864513397217
1772527339046763000,7.621762939453125,0.5591250061988831,0.10960403084754944,-0.34318453073501587
1772527339056744700,7.63174462890625,0.6135796308517456,-0.0013979775831103325,-0.2645072042942047
1772527339066727000,7.641726806640625,0.674597978591919,-0.13510490953922272,-0.16288308799266815
1772527339076708900,7.651708984375,0.7443349957466125,-0.19432185590267181,-0.030398625880479813
1772527339086690800,7.66169091796875,0.8262474536895752,-0.13253705203533173,0.10530248284339905
1772527339096672800,7.6716728515625,0.8719141483306885,-0.055017776787281036,0.19218513369560242
1772527339106655000,7.681655029296875,0.8966463804244995,0.004941430874168873,0.23713690042495728
1772527339116635100,7.69163525390625,0.887179970741272,0.03962329030036926,0.24993832409381866
1772527339126616800,7.701616943359375,0.854081928730011,0.09201858937740326,0.24580669403076172
1772527339136599000,7.71159912109375,0.8204308152198792,0.19962798058986664,0.2569250464439392
1772527339146581000,7.7215810546875,0.7624751329421997,0.2905848026275635,0.2782766819000244
1772527339156563000,7.73156298828125,0.6893568634986877,0.29327747225761414,0.2954528331756592
1772527339166545000,7.741544921875,0.6220787763595581,0.266876757144928,0.3136206567287445
1772527339176527000,7.751527099609375,0.5654684901237488,0.29771414399147034,0.3337115943431854
1772527339186508800,7.7615087890625,0.5074272751808167,0.40057235956192017,0.3511081635951996
1772527339196490000,7.771489990234375,0.43089553713798523,0.4648905098438263,0.3651554584503174
1772527339206472000,7.781471923828125,0.3273630440235138,0.3909958004951477,0.35147321224212646
1772527339216454100,7.7914541015625,0.24896034598350525,0.07628463208675385,0.3100280165672302
1772527339226435800,7.801435791015625,0.2524581551551819,-0.2632526755332947,0.2229093611240387
1772527339236418000,7.81141796875,0.28961899876594543,-0.4059937298297882,0.1487758904695511
1772527339246400000,7.82139990234375,0.2899998128414154,-0.44761282205581665,0.07746762782335281
1772527339256382000,7.8313818359375,0.24463114142417908,-0.44793039560317993,-0.044541310518980026
1772527339266363000,7.84136279296875,0.17978131771087646,-0.40010854601860046,-0.20880800485610962
1772527339276345000,7.851344970703125,0.11621326208114624,-0.35447564721107483,-0.3791418969631195
1772527339286326800,7.861326904296875,0.08633579313755035,-0.3422757089138031,-0.4974895715713501
1772527339296309000,7.87130908203125,0.1045428067445755,-0.33768969774246216,-0.6094667911529541
