time,seconds_elapsed,z,y,x
1772525837303894800,0.078894775390625,-0.527213025534153,-0.06086275724172592,0.2356336332142353
1772525837313878800,0.088878662109375,-0.6539291879117488,-0.06437441862449049,0.1743526505604386
1772525837323861800,0.09886181640625,-0.6828712047576904,-0.0019371055424213409,0.1361754801183939
1772525837333845000,0.108844970703125,-0.5970861877053976,0.08910232490673661,0.13660101205408573
1772525837343828000,0.118827880859375,-0.39662908181250095,0.1694290765531361,0.14956132365316152
1772525837353811700,0.128811767578125,-0.18148937057256698,0.1456687001287937,0.1791056903064251
1772525837363794700,0.138794677734375,-0.043729836133122445,0.06512348342612385,0.21469401329904794
1772525837373778000,0.14877783203125,0.054801849767565726,0.032018501681834455,0.24719372262656686
1772525837383762000,0.158761962890625,0.10072773464024067,0.02152998702377081,0.24222177943289278
1772525837393745000,0.168744873046875,0.1377659641802311,0.010634791260957717,0.17398703211843966
1772525837403728000,0.178727783203125,0.22518647347986698,0.061982701182365416,0.07553045728057622
1772525837413710800,0.1887109375,0.30202830561995503,0.10005582672804593,-0.002140226899087429
1772525837423694800,0.19869482421875,0.36534839288592336,0.1268774904191494,-0.04332885411679745
1772525837433677800,0.208677734375,0.4158972613841295,0.11424027329459786,-0.07478373056650162
1772525837443660800,0.218660888671875,0.3942769657284021,0.09306392201408743,-0.09179214851260185
1772525837453644800,0.228644775390625,0.3682955522537231,0.04010916141793132,-0.13439035026729107
1772525837463627800,0.238627685546875,0.32781799591481686,-0.005731967780739069,-0.13752543342262505
1772525837473610800,0.24861083984375,0.26141981637775896,-0.04834565936550498,-0.10448328778147697
1772525837483594000,0.258593994140625,0.18715864838063717,-0.07700958992242812,-0.056423605750501156
1772525837493578000,0.268577880859375,0.08639058173000812,-0.04714256718605756,0.01822422347664833
1772525837503560700,0.278560791015625,0.008852584019303321,0.008807721964269877,0.09373626831769943
1772525837513544000,0.2885439453125,-0.03472352285683155,0.04696019635647535,0.14517770174145697
1772525837523528000,0.29852783203125,-0.04882628248929977,0.07960077545940876,0.18063304600417612
1772525837533511000,0.308510986328125,-0.09594050036370753,0.08700053032189607,0.23647359116971492
1772525837543493600,0.31849365234375,-0.14411270285844802,0.055251931622624394,0.31839637983590363
1772525837553476900,0.328476806640625,-0.15760346807241438,0.01819412059932947,0.36352906850427386
1772525837563460900,0.3384609375,-0.13332768947184084,0.03836538649052381,0.33248364963829513
1772525837573443800,0.34844384765625,-0.0980026935905218,0.047183483718335625,0.24276626157313583
1772525837583427000,0.358427001953125,-0.08314706976413726,0.057629182147979734,0.1910851741746068
1772525837593411000,0.3684111328125,-0.15861878259479997,0.03013590280562639,0.16549217549562453
1772525837603393800,0.378393798828125,-0.2894686837762594,0.004501110811531543,0.1358595460370183
1772525837613376800,0.388376708984375,-0.3363303881943226,-0.02058452286720276,0.10236585723608732
1772525837623360000,0.398360107421875,-0.32989187957942484,-0.028034254351258277,0.047998307232558726
1772525837633344000,0.408343994140625,-0.27489363045692444,0.02632189747542143,-0.009920797772705554
1772525837643326700,0.41832666015625,-0.18998130458593368,0.11273995173424482,-0.08269523434340953
1772525837653309700,0.428309814453125,-0.10299684861600399,0.17858721939027308,-0.15014204615056514
1772525837663294000,0.4382939453125,-0.03073240739405155,0.19892156688868998,-0.19886925217956303
1772525837673277000,0.44827685546875,0.06566226647794246,0.1928518915861845,-0.23773235905915496
1772525837683260000,0.458260009765625,0.18398761712908743,0.16317746881246567,-0.2491562548711896
1772525837693243000,0.468242919921875,0.3086187899261713,0.1441401753872633,-0.23550386935472487
1772525837703227000,0.478226806640625,0.43763270785212516,0.11456249098628758,-0.2280430319547653
1772525837713209900,0.4882099609375,0.5741594856262207,0.0941208837211132,-0.2069268864288926
1772525837723192800,0.49819287109375,0.5638724848896265,0.021680501410365104,-0.15812106220573185
1772525837733176800,0.5081767578125,0.4557002794623375,-0.07748276039212941,-0.11270225007236004
1772525837743159800,0.518159912109375,0.33468379003107546,-0.15199381149709223,-0.08974778320342301
1772525837753142800,0.528142822265625,0.22216858696341513,-0.18184768249094485,-0.09294336437433957
1772525837763126000,0.5381259765625,0.14058686681985855,-0.16031097346544265,-0.1283911098524928
1772525837773110000,0.548110107421875,0.11275485704243182,-0.1037806924700737,-0.2029430774897337
1772525837783092700,0.5580927734375,0.12598083384037018,-0.027963819463551042,-0.2602507725983858
1772525837793075700,0.56807568359375,0.11159925726652145,-0.0034410803645849226,-0.2319409161761403
1772525837803059700,0.578059814453125,0.0971013608366251,-0.011826923654973506,-0.15339549498856067
1772525837813043000,0.58804296875,0.1252916825324297,0.011423019029200076,-0.04771773672550916
1772525837823026000,0.59802587890625,0.1068780739635229,0.017084990313649177,0.06565495995432138
1772525837833008600,0.608008544921875,0.06740706431865692,0.02382832709401846,0.16597586735934017
1772525837842993000,0.617992919921875,0.05712357071340084,0.040352176393568515,0.20318243920356033
1772525837852975900,0.627975830078125,0.08047580472826957,0.05326280363202095,0.1790004763662815
1772525837862958800,0.637958740234375,0.06804886935353278,0.03054156099706888,0.17862024487704037
1772525837872942800,0.64794287109375,-0.04216565555632114,-0.039247137761116026,0.15640578272044658
1772525837882925800,0.65792578125,-0.18250468509495257,-0.09189151723384857,0.12826456086337565
1772525837892908800,0.66790869140625,-0.251091314586997,-0.09480740468055009,0.05882715976089239
1772525837902891800,0.677891845703125,-0.2302864269673824,-0.035199031414091586,0.027860359089076518
1772525837912875800,0.687875732421875,-0.1615022290766239,0.02683627673834562,0.03890636149942875
1772525837922859000,0.69785888671875,-0.056952890321612354,0.1031312886506319,0.049859132668375966
1772525837932841700,0.707841796875,-0.0008873042285442352,0.14604834709614514,0.08718407019525766
1772525837942825700,0.71782568359375,0.01580430285334587,0.15885288361161945,0.11771569432020186
1772525837952809000,0.72780908203125,0.10290741676688193,0.18527356528639793,0.14897417141497135
1772525837962792000,0.7377919921875,0.15295359643995762,0.15203385124653576,0.12941080828905105
1772525837972774700,0.747774658203125,0.15583528935611246,0.08428396483957767,0.04097761481553316
1772525837982758700,0.757758544921875,0.1763555148154497,0.03572334754914045,-0.022213585373759268
1772525837992742000,0.767741943359375,0.24543431173861024,0.04123801931738853,-0.039891573144495485
1772525838002724900,0.777724853515625,0.3468938677847385,0.10282090752720832,-0.010339899967610835
1772525838012707800,0.787707763671875,0.451254990491271,0.14240239180922507,0.004868775080144405
1772525838022691800,0.79769189453125,0.45218438029587266,0.06333908422738313,-0.0022337504014372823
1772525838032674800,0.8076748046875,0.3291711640894413,-0.09355155940055847,-0.022705752804875374
1772525838042657800,0.81765771484375,0.2183183412760496,-0.17533347829133272,-0.08280833932906388
1772525838052641800,0.827641845703125,0.11853051783442496,-0.18686171126067638,-0.1694660475626588
1772525838062625000,0.837625,0.09755202721357345,-0.14626929637044667,-0.2549956285491586
1772525838072607700,0.847607666015625,0.08328793953955173,-0.035198739153146745,-0.22262480629831552
1772525838082590700,0.8575908203125,0.06385726288259029,0.08384411211758852,-0.13634616051018236
1772525838092574700,0.86757470703125,0.060930561780929565,0.18124825529307126,-0.023702947148680684
1772525838102558000,0.877557861328125,0.06587678601145744,0.2254939319938421,0.11319032585024832
1772525838112541000,0.887541015625,0.09012743017077446,0.2225046870499849,0.26932489041388036
1772525838122524700,0.897524658203125,0.08494155196547508,0.21372019983083007,0.34482436803430316
1772525838132508000,0.9075078125,0.0567027149528265,0.17527356479763984,0.3771782391503453
1772525838142491000,0.917490966796875,-0.07782792056798934,0.0620204028442502,0.39598698451668024
1772525838152473900,0.927473876953125,-0.21021102266609668,-0.011683715792000293,0.36165976750105616
1772525838162457900,0.937457763671875,-0.2671650820314884,-0.001581131711602211,0.2582648594781756
1772525838172440800,0.94744091796875,-0.2617278594136238,0.047796939441561694,0.15710545542240142
1772525838182424300,0.95742431640625,-0.31428514512479305,0.057284606494009495,0.139636726488173
1772525838192408300,0.967408203125,-0.37468671459555625,0.03086480160206556,0.10111790300160646
1772525838202391300,0.977391357421875,-0.3090413992524147,0.02408493220359087,0.04176175093054771
1772525838212374300,0.987374267578125,-0.2217559145092964,0.020090601870417595,0.007687047371268272
1772525838222357200,0.997357177734375,-0.13187222996652126,-0.0005865677163004875,0.038188276357948775
1772525838232341200,1.00734130859375,-0.0666845952630043,-0.0004816460371017456,0.06469108335822821
1772525838242324500,1.017324462890625,0.0147398884922266,0.059792497661709784,0.04541851987242698
1772525838252307200,1.02730712890625,0.09240940362811088,0.11336392885148525,0.0432239324375987
1772525838262291200,1.037291259765625,0.10601824226379394,0.11637976954132317,0.05399433277696371
1772525838272274200,1.047274169921875,0.07711246577501296,0.07585106753706931,0.010469371566176415
1772525838282257400,1.05725732421875,0.046534372159838674,0.018451017969846724,-0.06766133134067058
1772525838292240400,1.067240478515625,0.044053076738119125,-0.025853987702727316,-0.12779460526406763
1772525838302224100,1.07722412109375,0.06043430269658565,-0.03342003904283047,-0.18588965135812757
1772525838312207000,1.08720703125,0.07127835279405116,-0.033090368697047234,-0.1937546856448054
1772525838322190300,1.0971904296875,0.09817629659175872,-0.047777942480146884,-0.1488166427657008
1772525838332174300,1.10717431640625,0.1340396371334791,-0.05037614227980375,-0.13091741345971822
1772525838342157300,1.1171572265625,0.14979133301675318,-0.1024123267263174,-0.16150661299079655
1772525838352140300,1.127140380859375,0.16396189718842505,-0.16616291436403988,-0.24130758719742296
1772525838362123300,1.137123291015625,0.1437953074723482,-0.16180851854681969,-0.28795857147425413
1772525838372107300,1.147107177734375,0.16448562880158424,-0.09005524171739816,-0.2570622056901455
1772525838382090200,1.15709033203125,0.1625344947338104,-0.05802578025013208,-0.15592501346617937
1772525838392073200,1.1670732421875,0.1774450636178255,-0.038975042821466924,-0.08098521555513143
1772525838402057200,1.17705712890625,0.2266799269080162,-0.015128595548868178,-0.010620762735605239
1772525838412040200,1.187040283203125,0.20892682807445526,-0.04466974733173847,-0.023068740898370743
1772525838422023400,1.1970234375,0.11209902348220348,-0.0800891434982419,-0.06376929233819247
1772525838432006400,1.20700634765625,0.017061609438061714,-0.05138648836612701,-0.07802841157615184
1772525838441990400,1.216990478515625,-0.07319441554844379,0.008802607397735118,-0.04686784189790487
1772525838451973000,1.22697314453125,-0.07454524563550949,0.06536240674853325,0.019222294603288174
1772525838461956400,1.236956298828125,-0.03896890534162521,0.11508417677283286,0.07517740605920553
1772525838471940400,1.2469404296875,0.008672551277279854,0.15527210251539944,0.11741788041740656
1772525838481923300,1.25692333984375,0.023361001843214033,0.14815408720374107,0.20711071856319904
1772525838491906000,1.266906005859375,-0.007947744134068489,0.11167173798084258,0.2779439579382539
1772525838501889300,1.27688916015625,-0.02928980737030506,0.1045753499791026,0.2800999669283628
1772525838511873300,1.286873291015625,-0.04963058460950851,0.11111790349036454,0.27013357644826175
1772525838521856300,1.296856201171875,-0.08988251549899577,0.09109130676686764,0.25838644003123046
1772525838531839500,1.306839599609375,-0.13207681262791157,0.06634264995753765,0.16849632574766873
1772525838541823500,1.316823486328125,-0.13550094185769557,0.05446633420288562,0.09549830955415964
1772525838551806200,1.32680615234375,-0.1319014560610056,0.05832447093576192,0.07919073335379362
1772525838561789200,1.3367890625,-0.08943535625338554,0.07192103461176157,0.07075958961695432
1772525838571772400,1.3467724609375,-0.022743746727705,0.08637889129221439,0.07557692677080631
1772525838581756400,1.35675634765625,0.013954875594377516,0.0808729873523116,0.10463292538523673
1772525838591739100,1.3667392578125,0.050232642155885694,0.08222615552693605,0.11600362970530986
1772525838601722400,1.376722412109375,0.035460020437836644,0.05964899753779172,0.12613105596601962
1772525838611706400,1.386706298828125,0.029101006799936293,0.07359393626004457,0.11791501628458499
1772525838621689300,1.396689453125,0.08232757007479667,0.11467676501572131,0.06384294209629297
1772525838631672300,1.40667236328125,0.13935937085151673,0.13537789999991653,0.03325783421844244
1772525838641655300,1.4166552734375,0.17496435271799562,0.10839870765954256,0.033082769912481304
1772525838651639300,1.426639404296875,0.2272106727838516,0.09762100079655647,0.023271569994091985
1772525838661622300,1.436622314453125,0.265686826172471,0.07223433834463358,-0.02773001070767641
1772525838671605200,1.446605224609375,0.3262573224693537,0.05925766013264656,-0.06606470979899168
1772525838681588200,1.456588134765625,0.38262978255450725,0.050023967841267586,-0.07230681905895471
1772525838691572200,1.466572265625,0.4005740200459957,0.01746989797800779,-0.10684797108620404
1772525838701555200,1.47655517578125,0.4053495638847351,-0.009689034843444824,-0.1157622221648693
1772525838711538400,1.486538330078125,0.3833423147380352,-0.023663784182071684,-0.09635872577577828
1772525838721522400,1.4965224609375,0.3055862903624773,-0.013314239603281021,-0.05102350027263164
1772525838731505200,1.506505126953125,0.2554787358909845,0.009209434632956981,-0.04385112442523241
1772525838741488000,1.516488037109375,0.2090542538464069,0.008496317927539349,-0.009058920246362685
1772525838751471400,1.526471435546875,0.06823766992390155,0.003406593573093414,-0.015441314759850501
1772525838761455400,1.536455322265625,-0.00755903707742691,-0.016605682364106176,-0.050045010629296297
1772525838771438300,1.546438232421875,-0.04510813874900341,-0.025528993532061575,-0.030317396852374074
1772525838781421300,1.55642138671875,-0.09679974754154681,-0.05211188003122806,0.00950491044819355
1772525838791405300,1.5664052734375,-0.14042495425641535,-0.06965133611410856,0.06523994941264391
1772525838801388300,1.57638818359375,-0.17768939376771448,-0.06625672523975372,0.10356909554600716
1772525838811371300,1.586371337890625,-0.2093915229767561,-0.02779401585459709,0.11147416958212852
1772525838821354500,1.5963544921875,-0.20682196474969386,0.020880875465273854,0.08597294083982705
1772525838831338200,1.606338134765625,-0.1356342128485441,0.07375497204065322,0.05211451037973165
1772525838841321200,1.6163212890625,-0.053124271944165226,0.08118073812723159,0.07934475487172603
1772525838851304200,1.62630419921875,0.014849194085597992,0.05658814866244793,0.12148439920395612
1772525838861288200,1.6362880859375,0.06247077696025371,0.007102233220636844,0.1402180335074663
1772525838871271400,1.646271484375,0.06416238330900668,-0.03189092977941036,0.14280337382555008
1772525838881254100,1.656254150390625,0.03571428745985031,-0.05670213043093681,0.09452595739066601
1772525838891237400,1.6662373046875,-0.016235095486044883,-0.02477496029436588,0.0382417601108551
1772525838901221400,1.676221435546875,-0.050803720042109486,0.011439677903056144,0.004094868098199368
1772525838911204400,1.686204345703125,-0.035410920599102974,0.02454933484494686,0.0013604746982455252
1772525838921187000,1.69618701171875,-0.05624211170375347,0.006313420930504798,-0.011749182243645191
1772525838931171000,1.706171142578125,-0.04582593162953853,-0.003921265096962452,-0.019845687198638915
1772525838941154300,1.716154296875,0.0019435352832078933,0.013403671452403067,-0.043053836567699906
1772525838951137300,1.72613720703125,0.008223638466000556,0.008880933330953121,-0.09286971461623907
1772525838961120300,1.736120361328125,0.03256605256199836,0.0021598083823919294,-0.07798603373914957
1772525838971104300,1.746104248046875,0.07361702487468719,0.0014504910692572594,-0.08155629344135522
1772525838981087200,1.756087158203125,0.1029611927807331,0.010656418570876122,-0.09808160404562949
1772525838991070200,1.7660703125,0.1645125168085098,0.012641454908251762,-0.08704875337779522
1772525839001054200,1.77605419921875,0.204126734316349,-0.016935352709889412,-0.05886106203049421
1772525839011037400,1.786037353515625,0.2294470535337925,-0.012393325366079807,-0.03362111457288265
1772525839021020200,1.796020263671875,0.2148755073457956,-0.01210340250879526,-0.03651069853454828
1772525839031003100,1.806003173828125,0.13992109638750552,-0.009838380186259746,-0.033684242936968804
1772525839040987100,1.815987060546875,0.060223290294408795,-0.006756196261942386,-0.03712327747493982
1772525839050970400,1.825970458984375,0.046021161940693854,0.028947569803893566,-0.03639233285188675
1772525839060953300,1.835953369140625,0.05294073207080364,0.06273381181061267,-0.023141806134581566
1772525839070937000,1.84593701171875,0.07097264784574508,0.05489595779180526,0.021677286539971828
1772525839080920300,1.85592041015625,0.09519640399813652,0.030239363180100915,0.08639204303473233
1772525839090903300,1.8659033203125,0.13101882800757883,0.024756547854840754,0.1240124563768506
1772525839100886300,1.87588623046875,0.14021978707313537,0.02033259393274784,0.12829291017502545
1772525839110870300,1.885870361328125,0.11461889734864235,-0.0026329788520932196,0.08487783907949924
1772525839120853200,1.895853271484375,0.09992869321703911,-0.008822773402929305,0.024925182420015332
1772525839130836200,1.905836181640625,0.09554068739116191,0.007851298022270203,-0.03942863180786371
1772525839140819200,1.915819091796875,0.08133154477477073,0.009202712631225586,-0.07409487151950597
1772525839150803200,1.92580322265625,0.06834580647349357,0.01378565650731325,-0.08082710238397121
1772525839160786400,1.935786376953125,0.08802022875845432,0.007224398295581341,-0.041186581391096114
1772525839170769200,1.94576904296875,0.12071078448295593,0.02124795521199703,0.041646015596389765
1772525839180753000,1.9557529296875,0.08613514566421508,0.018249357917904854,0.13061229303330182
1772525839190736100,1.965736083984375,0.013370353704690932,0.02734130365103483,0.18431319582164288
1772525839200719000,1.975718994140625,-0.06209142225384712,0.06164017135500908,0.1621820280343294
1772525839210702000,1.9857021484375,-0.09517653025388717,0.08181903603076934,0.10334960757642984
1772525839220686000,1.99568603515625,-0.07631751600503921,0.09069675449132919,0.04209200579822063
1772525839230669000,2.0056689453125,-0.002496492990851402,0.09153291305452585,0.025820085433125493
1772525839240652000,2.015652099609375,0.028221885877847668,0.059118251661956306,0.031105040098726746
1772525839250636000,2.025635986328125,0.00547463201880455,0.013845277740061283,0.06928425636738539
1772525839260619300,2.035619384765625,0.013285598030686378,0.018740648566186426,0.10332768800556659
1772525839270602000,2.04560205078125,-0.06478431459963321,0.03420300611406565,0.07858136928379535
1772525839280585000,2.0555849609375,-0.09572714987397193,0.0782110746666789,0.048102352128922936
1772525839290569000,2.06556884765625,-0.08814531644284725,0.1331120008945465,0.022817104224860666
1772525839300552200,2.07555224609375,-0.06323883872330188,0.14039981981515884,0.020352467676997183
1772525839310535200,2.08553515625,-0.047535073634982106,0.11318477289229631,0.041188334956765174
1772525839320519200,2.095519287109375,-0.003615852409601211,0.08713204774707556,0.08064093216210604
1772525839330502100,2.105502197265625,0.05140694663226604,0.07014934876412153,0.0963385597705841
1772525839340485000,2.115485107421875,0.036626141607761384,0.040702012744545935,0.07994301302582026
1772525839350468000,2.125468017578125,-0.005915361523628235,0.008657061447203159,0.06777122145593166
1772525839360452000,2.1354521484375,-0.0120820674598217,0.01006517467945814,0.05746083984375
1772525839370435000,2.14543505859375,-0.0043827451288700105,0.024370763407647607,0.02596270877420902
1772525839380418000,2.15541796875,0.022007249146699905,0.029395605832338332,-0.0063385553717613214
1772525839390402000,2.165402099609375,0.04180208294093608,0.008259586562216282,0.012075053197145462
1772525839400385000,2.175385009765625,0.022714520633220672,-0.023139175786077975,0.0555652353554964
1772525839410368300,2.1853681640625,0.0664624769449234,-0.018535189121961594,0.05533084207773208
1772525839420351000,2.19535107421875,0.05122048414945602,-0.02946136454492807,0.07052052016407251
1772525839430335000,2.2053349609375,0.03887012114226818,-0.015250760623812674,0.0753811119377613
1772525839440318200,2.215318115234375,0.047885786768794056,0.0054889528051018715,0.07437105811238288
1772525839450301200,2.22530126953125,0.09621522565186023,0.011208207234740256,0.048747956556081766
1772525839460285200,2.23528515625,0.15164602097272872,0.024083763159811495,0.028837679688632486
1772525839470268000,2.245267822265625,0.233189162671566,0.018914543828368185,0.005972352407872677
1772525839480251100,2.255251220703125,0.3072200290441513,-0.002986614595353603,-0.023453648562729357
1772525839490234000,2.265234130859375,0.3251747879296541,-0.028577275186777114,-0.06229483587145805
1772525839500218000,2.275218017578125,0.27199849353730676,-0.054288639548420906,-0.12090922966450453
1772525839510201000,2.285201171875,0.14023323107659816,-0.07250555650144815,-0.16928046186268328
1772525839520184000,2.29518408203125,0.08091361162364483,-0.05704670608490705,-0.18621143065840004
1772525839530168000,2.30516796875,0.03955401175320148,-0.0206415137514472,-0.17287527148425577
1772525839540151000,2.315151123046875,-0.0030640637457370755,-0.00932020153105259,-0.11534282770901917
1772525839550134300,2.32513427734375,0.006631985360383987,0.010804302608966827,-0.06306845059245825
1772525839560117000,2.335116943359375,0.06594634411633014,0.01872691230177879,-0.0021478256836533543
1772525839570101000,2.34510107421875,0.10761106441318988,0.024429215596616267,0.026553952665627
1772525839580084000,2.355083984375,0.10018412928283214,0.020956278789043426,0.02505816114991903
1772525839590067200,2.365067138671875,0.07532733592391014,0.011031681624054908,0.007630641008913516
1772525839600051200,2.37505126953125,0.05853343751132488,-0.005328501546382904,0.0045019875943660735
1772525839610034000,2.385033935546875,0.03064180650115013,-0.01899403880536556,0.0037792262777686116
1772525839620017200,2.39501708984375,-0.011440846946835517,-0.03981558529883623,-0.01672317126393318
1772525839630000000,2.405000244140625,-0.02162321826517582,-0.05585808082222938,-0.014590543149411677
1772525839639984000,2.414984130859375,-0.031363106513023375,-0.05792202761471271,-0.014700433264672755
1772525839649967000,2.424967041015625,-0.043107904842495916,-0.03521159863471985,-0.005296645103394985
1772525839659950000,2.4349501953125,-0.045754035437107085,-0.010156944616138934,0.038116964687407016
1772525839669933000,2.44493310546875,-0.06526479159295559,0.012058394323289394,0.08941022181212901
1772525839679917000,2.4549169921875,-0.09255144244730472,0.035655543009936806,0.14236848953962325
1772525839689900000,2.464900146484375,-0.1329120944082737,0.0597872369647026,0.171912563931942
1772525839699883300,2.47488330078125,-0.18468436722159384,0.09830664497315883,0.16005641418248415
1772525839709867000,2.484866943359375,-0.17572306213080882,0.11978899346292018,0.14029402135312558
1772525839719850000,2.49485009765625,-0.12766834853589534,0.12100246090590953,0.10321341397613286
1772525839729833200,2.504833251953125,-0.04557809434831142,0.0948141266822815,0.07197831775695085
1772525839739816200,2.514816162109375,0.047674189844727516,0.05015870013684034,0.08943272590488195
1772525839749800200,2.52480029296875,0.12067512864768504,0.013322130648791789,0.05766571476608515
1772525839759783000,2.534782958984375,0.12436930699050426,-0.020665186887979508,0.024443536382913588
1772525839769766100,2.54476611328125,0.09395663307011128,-0.04619330363720655,-0.016910510529577732
1772525839779750100,2.554750244140625,0.058174541071057316,-0.032275545182824134,-0.06368892057836055
1772525839789733000,2.564733154296875,0.048452188479900356,0.004509586378931999,-0.0811935976088047
1772525839799716000,2.574716064453125,0.07611468690931797,0.03209317435324192,-0.07138619708269835
1772525839809699000,2.584698974609375,0.14043781373798847,0.048640112267434595,-0.006657412062585353
1772525839819683000,2.59468310546875,0.1808311989247799,0.06733692169189452,0.046352293591201306
1772525839829666000,2.604666015625,0.2167757880091667,0.0676169076770544,0.05346037203073501
1772525839839649300,2.614649169921875,0.22632804473042487,0.06462590916752815,0.05213350734114647
1772525839849633300,2.62463330078125,0.21443828497231004,0.06402297483831644,0.06167553492933511
1772525839859616000,2.634615966796875,0.23096505688130856,0.0472413513854146,0.052480421082675456
1772525839869599000,2.644598876953125,0.24145313314795494,0.05003010532110929,0.010000877271592616
1772525839879582200,2.654582275390625,0.22078969982564448,0.043944063405692575,-0.0048149990662932395
1772525839889566200,2.664566162109375,0.18540917436480522,0.027940730848908423,-0.01741290709376335
1772525839899549000,2.674548828125,0.17863748827278614,0.03848521347790956,-0.03586421732455492
1772525839909532200,2.6845322265625,0.15208207430243492,0.034765900693833826,-0.08006868523210287
1772525839919516200,2.69451611328125,0.11813421199321746,0.021345862628519535,-0.057604924489557736
1772525839929499100,2.7044990234375,0.07741349454820155,0.010479892960190772,-0.03525660682022572
1772525839939482000,2.714482177734375,0.0743003309637308,0.012688801181316375,0.004254734835028648
1772525839949465000,2.724465087890625,0.047826165536046024,0.007724456772208213,0.04638327325135469
1772525839959449000,2.734448974609375,-0.008587211081385613,0.02048193927556276,0.0740937024757266
1772525839969432000,2.74443212890625,-0.0634907676577568,0.03957622358500957,0.08682575827687979
1772525839979415300,2.754415283203125,-0.09646715458631515,0.015239946968853472,0.06051058280318975
1772525839989399300,2.7643994140625,-0.12398936776220798,-0.004615092580020428,0.010138239915668965
1772525839999382000,2.774382080078125,-0.11718962461948394,-0.009583236381411552,-0.03633592648953199
1772525840009365000,2.784364990234375,-0.07720540475547313,-0.030219197174906728,-0.052712476272881024
1772525840019348200,2.79434814453125,-0.05803893199265003,-0.05194792164117098,-0.03166647337377071
1772525840029332200,2.804332275390625,-0.04082417781949043,-0.07569149306118488,0.011855565227568149
1772525840039315200,2.814315185546875,-0.05151859031319618,-0.05804769982099533,0.03501724510639906
1772525840049298200,2.824298095703125,-0.08375789513885974,-0.01634410881847143,0.04957505502998828
1772525840059282200,2.8342822265625,-0.10950199272632598,-0.0010182371318340302,0.04436199655681848
1772525840069265200,2.84426513671875,-0.11595628343224525,0.04241466188132763,0.017097557534277438
1772525840079248100,2.854248046875,-0.12168518247306347,0.0355076589718461,0.05114332726001739
1772525840089231000,2.864231201171875,-0.1350724873125553,0.009850070624053478,0.08038608061820268
1772525840099215000,2.874215087890625,-0.07894435737729072,0.021807927182316778,0.08523702778071164
1772525840109198000,2.884197998046875,-0.031901451173424716,0.035872985152900216,0.0843415402457118
1772525840119181000,2.89418115234375,-0.007898059773445128,0.030274142232537268,0.07012275301814079
1772525840129164300,2.904164306640625,0.04090075018703937,0.04028144924491644,0.02674655262827873
1772525840139148000,2.91414794921875,0.11425240212380885,0.05157324310988187,-0.025736791063845157
1772525840149131000,2.924131103515625,0.20998715078234673,0.035332302404940126,-0.06521539949327707
1772525840159114200,2.9341142578125,0.25555647730231285,-0.021323943057656287,-0.06921528278440237
1772525840169098200,2.94409814453125,0.2875561281532049,-0.04345978702008724,-0.06685732148140669
1772525840179081200,2.954081298828125,0.33436639464497564,-0.0351350262671709,-0.07835428252965211
1772525840189064200,2.964064208984375,0.34435470469594,-0.014326339255273341,-0.0673164634257555
1772525840199047400,2.97404736328125,0.28071722204387184,-0.021618249829113482,-0.036061785723268985
1772525840209031400,2.984031494140625,0.1785989098280668,-0.007736731731891632,0.006602174744009971
1772525840219014400,2.994014404296875,0.14393851533532143,0.03146919723600149,0.007690262241661548
1772525840228997400,3.003997314453125,0.11585925279855727,0.05108779768049717,-0.005028057295084
1772525840238981000,3.013981201171875,0.06165303083658218,0.06653554218113422,-0.007110416527092456
1772525840248964400,3.02396435546875,0.049803018566966055,0.08506547060608863,-0.007008125196397304
1772525840258947300,3.033947265625,0.056550154739618295,0.0648828065380454,0.0069654550984501835
1772525840268930600,3.0439306640625,0.06189210028946399,0.04857143094539642,0.026625264336168766
1772525840278914600,3.05391455078125,0.0572603488355875,0.04201601795256137,0.042160687120258805
1772525840288897300,3.063897216796875,0.06174012459814548,0.028803485158085822,0.04155249209403991
1772525840298880300,3.07388037109375,0.02633972539305687,0.0100669282451272,0.027649638947844505
1772525840308864300,3.0838642578125,-0.021815525966882705,-0.012169745743274687,0.032062486954033374
1772525840318847500,3.093847412109375,-0.04884089553654194,-0.00025748189240694044,0.03445727313607931
1772525840328830200,3.103830322265625,-0.01903553985953331,0.04114829520732164,0.03389262499064207
1772525840338813200,3.113813232421875,-0.036570612028241155,0.016153262421488762,0.03647971887439489
1772525840348797400,3.12379736328125,-0.0676999097853899,-0.013965396988391875,0.039568917061388494
1772525840358780400,3.133780517578125,-0.06387129140794277,-0.002230535531044006,0.05025134685635566
1772525840368763400,3.143763427734375,-0.040026305440068244,0.020118951182067392,0.058767538528144356
1772525840378747400,3.153747314453125,-0.04628419679105281,0.019385960732400415,0.0917547391116619
1772525840388730400,3.16373046875,-0.07216916415393353,0.02397884148061275,0.10682195986211299
1772525840398713300,3.17371337890625,-0.05322422518730163,0.05801788920462131,0.1060915997609496
1772525840408696300,3.1836962890625,-0.006527940464019775,0.08236585625857114,0.08175298505723476
1772525840418680300,3.193680419921875,-0.0099994159668684,0.05808452470004558,0.05134644861668348
1772525840428663300,3.203663330078125,-0.051399932369589806,0.027933716586232185,0.006689853027462959
1772525840438646300,3.213646240234375,-0.04979249717295169,0.015774784497916697,-0.019006021504104135
1772525840448630300,3.22363037109375,-0.002045242092013359,0.0169663323700428,-0.034656302839517594
1772525840458613500,3.233613525390625,0.0503238275706768,0.033114626355469225,-0.050048225499689576
1772525840468596500,3.243596435546875,0.0784182876765728,0.01929389853477478,-0.031600422400236125
1772525840478579200,3.2535791015625,0.09661153149306774,-0.014000760562717913,0.008279752567410469
1772525840488563200,3.263563232421875,0.1164157176375389,0.005335808070003986,0.03583265314251184
1772525840498546400,3.27354638671875,0.1591968747437,0.031461890712380404,0.029343291123211383
1772525840508529400,3.283529296875,0.15080898562669753,0.016986206114292145,0.03343494435101747
1772525840518513400,3.293513427734375,0.10690087031722068,-0.0024839257702231406,0.020571663385629654
1772525840528496400,3.303496337890625,0.1015758759021759,-0.01985766989737749,0.015762801799178123
1772525840538479400,3.313479248046875,0.07298691027760505,-0.009148644356429576,0.002220306397974491
1772525840548462300,3.32346240234375,0.05304886862039566,0.01312426998913288,-0.026718495577573775
1772525840558446300,3.3334462890625,0.06754150435328483,0.018874504078924655,-0.041890930268168446
1772525840568429600,3.3434296875,0.09525485618710518,0.014145721991360187,-0.020718962901830673
1772525840578412300,3.353412353515625,0.11173019016981124,0.0033949031352996824,-0.002650222247838974
1772525840588395300,3.363395263671875,0.10531097077727317,0.018398703260719775,0.014516016608476639
1772525840598379300,3.373379150390625,0.10440554637014865,0.028944062672555445,0.01379091720432043
1772525840608362500,3.383362548828125,0.07521335415542126,0.028215163876116275,0.018503624939918518
1772525840618345200,3.39334521484375,-0.011700959187746046,0.008017594499886035,-0.0036228666722774505
1772525840628329200,3.4033291015625,-0.060926470127701755,0.018204057471454142,-0.030758418618142602
1772525840638312400,3.4133125,-0.020341946282982824,0.040187048959732054,-0.04301964203715324
1772525840648295400,3.42329541015625,-0.0029728783309459685,0.01895692166537046,-0.03205868756175041
1772525840658278400,3.4332783203125,0.017492986592650413,0.006220189689099789,0.011558628107607364
1772525840668262100,3.44326220703125,0.07880465664565563,0.013912205496430395,0.04837532385140657
1772525840678245400,3.453245361328125,0.10764321311712265,0.00860036282390356,0.06363572908639907
1772525840688228400,3.463228271484375,0.06705635118484497,0.014297405421733855,0.06383826592117547
1772525840698212400,3.47321240234375,0.02360825460255146,0.014120879811048507,0.05086100318729877
1772525840708195300,3.4831953125,0.009501987838745117,0.018807868583500385,0.029845979948341844
1772525840718178300,3.49317822265625,0.011806757649779318,0.015808979028463364,0.020877952855825423
1772525840728161300,3.503161376953125,0.014814122772216796,-0.00044277533143758773,-0.00024345336705446243
1772525840738145300,3.513145263671875,0.022779402562975882,-0.033382921902835365,0.01038636945784092
1772525840748128500,3.52312841796875,0.026329788520932196,-0.04093085306435823,0.006100947223603725
1772525840758111200,3.533111328125,0.041319267860054965,-0.003456277933716774,0.009352642495930194
1772525840768095200,3.54309521484375,0.09144786511957645,0.025947218944132325,0.006736030256748199
1772525840778078200,3.553078125,0.138497201064229,0.03086217125356197,0.0419648722872138
1772525840788061400,3.5630615234375,0.1410685128569603,0.018457447710633276,0.07314823831915855
1772525840798044400,3.57304443359375,0.12066928342878817,0.005219488213956356,0.05977408522218466
1772525840808028400,3.5830283203125,0.0797124191403389,0.007979308316111565,-0.0029816461592912674
1772525840818011400,3.593011474609375,0.014274024546146392,0.008131284007430076,-0.033595103348791594
1772525840827994400,3.602994384765625,-0.050964463561773296,0.006112345400452614,-0.05127104529291391
1772525840837978400,3.612978271484375,-0.06548281825780868,0.025432255159318445,-0.04857143094539642
1772525840847961300,3.62296142578125,-0.052414077848196024,0.05416676673442125,-0.02393500233888626
1772525840857944300,3.6329443359375,-0.019438275441527365,0.051289749993383885,0.015432254670560358
1772525840867927300,3.64292724609375,0.034403789383172984,0.05059942964166402,0.03634031040370464
1772525840877911300,3.652911376953125,0.06980301954448223,0.043884734433889384,0.05543050305992365
1772525840887894300,3.662894287109375,0.08351356498897075,0.04929653034955263,0.06946224328279495
1772525840897877500,3.67287744140625,0.04929390000104904,0.020977613838016985,0.055014031213521955
1772525840907861500,3.682861572265625,-0.02540332132577896,-0.013536650182306766,0.03580313478708267
1772525840917844200,3.69284423828125,-0.08135784825980663,-0.005630699363350868,0.027121523420512675
1772525840927827500,3.702827392578125,-0.08781973775029182,0.009479776006937026,0.03599515022784471
1772525840937810400,3.712810546875,-0.06621288609802722,0.032177930027246476,0.01543868441134691
1772525840947794400,3.72279443359375,-0.019950316616892814,0.02219868006557226,0.022852467799186704
1772525840957777200,3.732777099609375,0.046074353432655334,0.017645839066803455,0.03692921620756388
1772525840967760400,3.742760498046875,0.11715630687177181,0.02348755083233118,0.033626083008944985
1772525840977744400,3.752744384765625,0.11746025825440883,0.011437632076442241,0.04401069890111685
1772525840987727400,3.762727294921875,0.09471183535158634,-0.0026624972075223923,0.0319654563203454
1772525840997710600,3.772710693359375,0.10698562599122524,0.02595832486003637,-0.0014279869765043258
1772525841007693300,3.782693359375,0.14312076921164987,0.07129822653830051,-0.033951953962445255
1772525841017677300,3.79267724609375,0.1470376503944397,0.08687690394222736,-0.023335867401957512
1772525841027660300,3.802660400390625,0.1347585990577936,0.062330199445784086,-0.0003653261810541153
1772525841037643500,3.8126435546875,0.1435305190563202,0.060109893047809594,0.012817688257992267
1772525841047627500,3.82262744140625,0.16539514486193657,0.06490472610890866,0.0012634440645575523
1772525841057610200,3.8326103515625,0.17755261564552782,0.05254384170770645,-0.044561026260256764
1772525841067593200,3.84259326171875,0.16548633027672766,0.008574059338867663,-0.05565174459517002
1772525841077576400,3.852576416015625,0.1540431452423334,-0.018947277054190633,-0.05894844805300235
1772525841087560400,3.862560546875,0.12706804455518722,-0.021515373976528644,-0.05866378589272499
1772525841097543200,3.872543212890625,0.07826923459470271,-0.015963292807340622,-0.03482113801240921
1772525841107526400,3.8825263671875,0.01700900246798992,0.006939151613414287,-0.013681319350004195
1772525841117509400,3.89250927734375,-0.01219663375020027,0.015935528017580507,0.020718962901830673
1772525841127493400,3.902493408203125,-0.052885202491283416,0.007897475251555442,0.06394172629565
1772525841137476400,3.912476318359375,-0.06453355470895766,0.002382218961417675,0.08221446508914232
1772525841147459300,3.922459228515625,-0.04635083228647709,-0.009258242210745811,0.10592676458805798
1772525841157443300,3.932443359375,-0.026482348734140394,-0.002181435692310333,0.11949030277729034
1772525841167426300,3.94242626953125,-0.03778057233989238,0.004677344161272049,0.1311629126533866
1772525841177409500,3.952409423828125,-0.07808861733078956,0.01511982772052288,0.09821370599269866
1772525841187392500,3.962392578125,-0.09279752616286277,0.01673719978928566,0.06936579717099667
1772525841197376500,3.97237646484375,-0.11022387726008892,0.02405775193572044,0.05453647682964802
1772525841207359200,3.982359130859375,-0.08510755618214606,0.015639759941399097,0.018104104228317736
1772525841217342500,3.992342529296875,-0.06959434522986412,0.018216040170192717,0.007504092019796371
1772525841227326500,4.002326416015625,-0.00584931055009365,0.015893442441523076,-0.005507949766516685
1772525841237307400,4.012307373046875,0.056767596882581706,0.018599486529827118,-0.011645721869170665
1772525841247290400,4.022290283203125,0.0751636697947979,0.014165887996554374,-0.023524667972326278
1772525841257274400,4.0322744140625,0.11855272966623305,0.026049510274827478,-0.029267303277552125
1772525841267257300,4.04225732421875,0.1538520065844059,0.049231648419797415,-0.059679392676055425
1772525841277240600,4.052240478515625,0.1535772812962532,0.03207330060899258,-0.056849429947137826
1772525841287223300,4.062223388671875,0.17474048083424568,0.035443069303035736,-0.05030775321871042
1772525841297207300,4.072207275390625,0.20949615239501,0.037943069425225254,-0.04878916534930467
1772525841307190500,4.0821904296875,0.19620003297030925,0.010904548113048076,-0.020149346320331097
1772525841317173500,4.092173583984375,0.1923766752898693,0.017983400458097456,-0.025494506740570067
1772525841327157500,4.102157470703125,0.1869353610187769,0.01633534099012613,-0.03218026811480522
1772525841337140200,4.11214013671875,0.16820727967321872,0.0378738035812974,-0.026829262475669382
1772525841347123500,4.12212353515625,0.15496610530614852,0.03807224876284599,-0.02516629769951105
1772525841357106400,4.1321064453125,0.09757716165482998,0.02975391775071621,0.007528057417273521
1772525841367090400,4.14209033203125,0.02466214756965637,0.013753507803380489,0.04530950654000043
1772525841377073400,4.152073486328125,-0.014060089534521102,0.037384558759629725,0.05735358007699251
1772525841387056400,4.162056396484375,-0.035360651716589926,0.08069412365406751,0.04144873945862054
1772525841397040400,4.172040283203125,0.00992225907742977,0.10196429069787263,0.04045592902898788
1772525841407023400,4.1820234375,0.026046295404434202,0.0511190696015954,0.0583256399795413
1772525841417006600,4.192006591796875,0.006577624824643135,-0.0037868250623345374,0.057710138429701324
1772525841426989300,4.2019892578125,-0.014319617253541946,-0.029197745172679423,0.043941725318133826
1772525841436973300,4.211973388671875,-0.0011234510719776152,-0.006440262180566788,0.020230010341107843
1772525841446956300,4.221956298828125,0.018544541472196578,0.015595920799672603,0.016797405543923376
1772525841456939500,4.231939453125,0.0014735796838998795,0.011292962908744812,-0.011488777741789817
1772525841466923500,4.241923583984375,-0.03284954567849636,-0.02298866139948368,-0.018932371746003627
1772525841476906200,4.25190625,-0.06744155111014842,-0.06996171723753214,-0.016984744809567926
1772525841486889500,4.261889404296875,-0.08093056275844573,-0.0710956897035241,-0.02170066741555929
1772525841496872400,4.27187255859375,-0.080517890304327,-0.07626490903496742,-0.030960955452919006
1772525841506856400,4.2818564453125,-0.0738256991893053,-0.06451572679132223,-0.033686288763582706
1772525841516839400,4.29183935546875,-0.07204115386009216,-0.040836160518229005,-0.010687982752919196
1772525841526822400,4.301822509765625,-0.09334054699838161,-0.027773265327513216,-0.0018000351592898367
1772525841536806400,4.311806396484375,-0.08998714491724967,-0.010096738861501217,-0.026196225269138812
1772525841546789400,4.321789306640625,-0.05501812286674976,0.016486439898610115,-0.030116613583266734
1772525841556772400,4.3317724609375,0.0034369887113571166,0.03384147932529449,-0.037089959727227687
1772525841566755300,4.34175537109375,0.08458090195953845,0.030673370683193205,-0.059634676751494406
1772525841576739300,4.3517392578125,0.1414250712096691,-0.0003913374051451683,-0.05727817675322294
1772525841586722300,4.361722412109375,0.193160519143939,-0.04317658616453409,-0.07093962235897779
1772525841596705500,4.37170556640625,0.24622224724590777,-0.055662850511074065,-0.0587765986174345
1772525841606689500,4.381689453125,0.2613876676738262,-0.042721828134357924,-0.05565554398745298
1772525841616674300,4.39167431640625,0.27486615792810914,-0.00379150123745203,-0.05773410382717847
1772525841626657500,4.401657470703125,0.2737690103411674,0.017529811471700667,-0.02351239301264286
1772525841636640300,4.41164013671875,0.27402795353829856,0.06518646565973758,0.022057810290157794
1772525841646623500,4.42162353515625,0.24961831942498683,0.08936258327811956,0.050176235793530935
1772525841656607500,4.431607421875,0.21713176183998584,0.0850213392034173,0.05038724819570779
1772525841666590500,4.441590576171875,0.17360417028069494,0.05878332061916589,0.04092909949868917
1772525841676573400,4.451573486328125,0.09921265390217304,0.03896627499312162,0.042888709133863445
1772525841686557200,4.46155712890625,0.06055296064019203,0.021676409757137298,0.023520284058153627
1772525841696540400,4.47154052734375,0.03121346890926361,0.02849427307844162,0.006855564983189105
1772525841706523400,4.4815234375,0.031765257573127745,0.042598201754689216,0.007865618808567523
1772525841716507400,4.49150732421875,0.03990881654024124,0.044891281127929686,0.04212386224120855
1772525841726490600,4.50149072265625,0.028748540100455282,0.048558279202878474,0.08163023546040057
1772525841736473300,4.511473388671875,0.06503273640275001,0.062490066182613366,0.09745587336272
1772525841746456300,4.521456298828125,0.027752514800429343,0.0629155981183052,0.0691223438039422
1772525841756440300,4.5314404296875,-0.014201543831825255,0.050504444834589955,0.05689239230602979
1772525841766423600,4.541423583984375,-0.048508887103199956,0.018701485599577426,0.039249768109619616
1772525841776406300,4.55140625,-0.073455112311244,-0.022475158919394014,-0.003953413800895214
1772525841786390300,4.561390380859375,-0.07595861956477165,-0.03726064011901617,-0.03482669097036123
1772525841796373200,4.571373291015625,-0.10066635984182357,-0.05762362919002771,-0.018325930285453797
1772525841806356500,4.5813564453125,-0.14318331305384635,-0.05333440756350755,-0.0008069324687123298
1772525841816339500,4.59133935546875,-0.15772212601602076,-0.011635784997045992,0.010893442197144032
1772525841826323500,4.601323486328125,-0.13943594321906566,0.0077829089611768714,0.029393560005724427
1772525841836306400,4.611306396484375,-0.09494564410746097,0.020895780773460864,0.06365823317915201
1772525841846289400,4.621289306640625,-0.039221418797969816,0.034438276174664495,0.06352730027586222
1772525841856272400,4.6312724609375,-0.0005009352594614029,0.009085808253288268,0.026152970649302006
1772525841866256400,4.64125634765625,0.044752164918184276,-0.03391688264906406,-0.010323825615644454
1772525841876239400,4.6512392578125,0.07860884181261062,-0.03862783681899309,-0.048694180542230604
1772525841886222300,4.661222412109375,0.1017372039437294,-0.0315320333391428,-0.08367401624768972
1772525841896206300,4.671206298828125,0.1152268001139164,-0.012753683111071586,-0.08756868559867143
1772525841906189600,4.681189453125,0.12696926035583017,0.002639700853824615,-0.04441957196295261
1772525841916172500,4.691172607421875,0.1376566585868597,0.021621464699506758,-0.014015373609960078
1772525841926155300,4.7011552734375,0.14557225401699542,0.035272973433136935,-0.003839139771461487
1772525841936139300,4.71113916015625,0.1621650768995285,0.025361235749721527,0.001463058289885521
1772525841946122500,4.72112255859375,0.17908523204028606,0.0221969264999032,-0.030249300052225588
1772525841956105500,4.73110546875,0.1877747344523668,-0.00018120178580284117,-0.060386371901631354
1772525841966089500,4.74108935546875,0.14407353989183902,-0.017888123390078545,-0.07589870607107878
1772525841976072200,4.751072265625,0.13383739255964755,-0.011322481264173984,-0.06729805098623037
1772525841986055400,4.761055419921875,0.12327274392545222,0.002190495781600475,-0.04016951330304146
1772525841996038400,4.771038330078125,0.0930576384037733,0.01674538309574127,0.014948855067789554
1772525842006022400,4.7810224609375,0.088861940279603,0.025020167227089402,0.05087240136414766
1772525842016005400,4.79100537109375,0.10449614726305008,0.05022212076187133,0.07254647303372622
1772525842025988400,4.80098828125,0.09784253459274768,0.06083382340818643,0.07157704347968101
1772525842035972400,4.810972412109375,0.09172843562662601,0.05872311486452818,0.06382599096149205
1772525842045955300,4.820955322265625,0.061217562028765674,0.052151042997837065,0.07147329084426164
1772525842055938600,4.8309384765625,0.004165887507796288,0.02590659467279911,0.07783347352594137
1772525842065921300,4.84092138671875,-0.04157704201340675,0.023379706543684004,0.04727992983013391
1772525842075905300,4.8509052734375,-0.06242810686230659,0.05338029253184795,0.03582622340172529
1772525842085888500,4.860888427734375,-0.037131753042340274,0.07651566892564296,0.05945493627041578
1772525842095871500,4.87087158203125,-0.011018822142481803,0.08758885160386562,0.08932868100851774
1772525842105855500,4.88085546875,0.022924363991618155,0.0731438544049859,0.11343699408769607
1772525842115838200,4.890838134765625,0.047049335944652555,0.035707565458118914,0.10904752695709466
1772525842125821400,4.900821533203125,0.038946693509817124,0.015277940891683101,0.06761895350366831
1772525842135804400,4.910804443359375,0.014434183543920516,0.01474251884073019,0.011821662957966326
1772525842145788400,4.920788330078125,0.0149795424669981,-0.001391162097454071,-0.03496054648309946
1772525842155771400,4.930771484375,0.02905366052687168,-0.0141451374694705,-0.04448883780688047
1772525842165754400,4.94075439453125,0.04868891984522342,0.007787585136294364,-0.032120062360167505
1772525842175738400,4.95073828125,0.07013210536837577,0.014368132570385932,-0.007398585818707943
1772525842185721600,4.9607216796875,0.08423954117596148,0.012202478969097137,0.02620207048803568
1772525842195704600,4.97070458984375,0.0788625243127346,0.008208440896868705,0.033171324978768825
1772525842205687800,4.980687744140625,0.06025953065156936,0.005096154095232486,0.00793283882588148
1772525842215671600,4.990671630859375,0.03693944534063339,-0.006654489453136921,-0.035440438954532145
1772525842225654500,5.000654541015625,0.047179099804162974,0.001087210714817047,-0.060220659945905204
1772525842235637800,5.0106376953125,0.0541799184769392,-0.006704758335649967,-0.06593962211459875
1772525842245621800,5.020621826171875,0.05658288796544075,-0.035443946085870266,-0.05192892467975616
1772525842255604700,5.030604736328125,0.06131868431568145,-0.050876493017375464,-0.04708090012669563
1772525842265587500,5.04058740234375,0.06744505824148654,-0.051857028487324715,-0.036168168707191944
1772525842275570700,5.05057080078125,0.08257248474657534,-0.027790216462314127,-0.011325403873622417
1772525842285554700,5.0605546875,0.05640986948609352,-0.02220394076257944,-0.009089899906516074
1772525842295537700,5.07053759765625,0.008593640822172165,-0.0078045362710952755,0.0028486674293875694
1772525842305520600,5.080520751953125,-0.002449146717786789,0.019852701461315153,0.028100889846682547
1772525842315504600,5.090504638671875,0.01494680924117565,0.03512947330921888,0.01586100147664547
1772525842325487600,5.100487548828125,0.0070674541682004925,0.04434299959540367,0.02799538364559412
1772525842335470600,5.110470703125,0.02268061836361885,0.038242344632744785,0.011660042655467986
1772525842345453800,5.120453857421875,0.0008323591709136962,0.05680646758824587,-0.029825813943147657
1772525842355437800,5.130437744140625,0.006048632514476775,0.041558921834826464,-0.0013335866913199424
1772525842365420500,5.140420654296875,0.020098785176873205,0.04136515282839536,0.017869418689608573
1772525842375403500,5.150403564453125,0.04505144012570381,0.06415799939483403,0.009011866234242915
1772525842385387800,5.1603876953125,0.09138122962415218,0.0636453736975789,0.02371142271608114
1772525842395370800,5.170370849609375,0.12325053209364413,0.10050766214877366,0.006770809309184551
1772525842405353500,5.180353515625,0.15871172157526015,0.13058803537487984,-0.0009688450321555137
1772525842415336700,5.190336669921875,0.1976046390712261,0.08180500750541686,-0.04479804988652467
1772525842425320700,5.20032080078125,0.24997546229958534,0.055071022097766396,-0.10148235239982605
1772525842435303700,5.2103037109375,0.2990601034641266,0.014785773460566996,-0.14609773919582367
1772525842445286700,5.22028662109375,0.36023791800439353,-0.02993161240518093,-0.15517098022848366
1772525842455270700,5.230270751953125,0.4078624234884977,-0.03219108176976442,-0.1502957754075527
1772525842465253600,5.240253662109375,0.45526656422019,-0.028826866033673286,-0.10795271745771169
1772525842475236600,5.250236572265625,0.5251601846575736,-0.04600508758872747,-0.058458618709445
1772525842485219800,5.2602197265625,0.5988853460818528,-0.09071721275746822,0.015343991865217685
1772525842495203800,5.270203857421875,0.6389028836935758,-0.11591039846390486,0.08270078730136156
1772525842505186600,5.2801865234375,0.6542799010455608,-0.14286270279735325,0.08827654160708188
1772525842515169500,5.29016943359375,0.6126730484157801,-0.14288579141199587,0.013949322636425494
1772525842525153500,5.300153564453125,0.4697673832595348,-0.1413993522465229,-0.05371054739952087
1772525842535136800,5.31013671875,0.24081074359118937,-0.15692892981171608,-0.06473842963129281
1772525842545119700,5.32011962890625,-0.012358546313643455,-0.19500643927156924,0.002065115836262703
1772525842555102500,5.3301025390625,-0.28919220492243763,-0.216537449208647,0.001994388687610626
1772525842565086700,5.340086669921875,-0.4355822050631046,-0.13059300381094216,-0.05526829823553562
1772525842575069700,5.350069580078125,-0.5165174439966679,0.0040888767488300795,-0.11600947492420673
1772525842585052700,5.360052734375,-0.5658043297350406,0.07789367928057908,-0.1391775845438242
1772525842595036700,5.37003662109375,-0.5783300493091345,0.09192118171975017,-0.15344401030540467
1772525842605019600,5.38001953125,-0.5525935505062342,0.06642579819634556,-0.1516223478361964
1772525842615002600,5.390002685546875,-0.49941959420144555,-0.0009079086251556873,-0.042698739519715305
1772525842624985600,5.399985595703125,-0.4157569761306047,-0.003454962759464979,0.07104688212573528
1772525842634969600,5.409969482421875,-0.2808949166983366,0.027014994306117295,0.1539256563425064
1772525842644952600,5.41995263671875,-0.17358137392699718,0.040189679308235644,0.19050240585058925
1772525842654935600,5.429935546875,-0.11278759026825427,0.0330678646042943,0.1793468055859208
1772525842664919600,5.43991943359375,-0.08455927464962006,0.017777941013872624,0.16060732606351374
1772525842674902800,5.44990283203125,-0.07741232550442219,0.018080723352730272,0.12877543299496172
1772525842684885800,5.4598857421875,-0.0964303297072649,-0.0000659048430621624,0.0849444745749235
1772525842694868500,5.469868408203125,-0.1325152040451765,-0.009481967964023352,0.05986117898374795
1772525842704852500,5.4798525390625,-0.15783844587206838,0.0010043547369539738,0.06023556525409221
1772525842714835700,5.489835693359375,-0.16682488540410995,0.033452333877235646,0.06445230616629123
1772525842724818700,5.499818603515625,-0.11265431927740573,0.06520911588296294,0.05519669430404901
1772525842734802700,5.509802734375,-0.031554829692840576,0.11102627968415617,0.05094400529563427
1772525842744785700,5.51978564453125,0.05496376233100891,0.12288403686881065,0.05719342107921838
1772525842754768600,5.5297685546875,0.1012532198190689,0.10455489171296357,0.07791647563427687
1772525842764751600,5.539751708984375,0.15114800832271574,0.08338233982473611,0.10001198758631943
1772525842774735600,5.549735595703125,0.19905191527009009,0.09148644356429576,0.09685966103523969
1772525842784718800,5.55971875,0.20641396847069263,0.0950977659292519,0.09469926813095808
1772525842794701600,5.56970166015625,0.1901929015100002,0.07389744925126433,0.06576894172281027
1772525842804685600,5.579685546875,0.16833587448894977,0.07026742218583822,0.06824906810075045
1772525842814668500,5.58966845703125,0.17703648281693457,0.08040244723111391,0.06361556308120489
1772525842824651800,5.59965185546875,0.1765343785136938,0.0882435161203146,0.047944238957762716
1772525842834634500,5.609634521484375,0.15451777701675892,0.07220920390337705,0.021363690546154973
1772525842844618500,5.619618408203125,0.16976678407490253,0.06759557262808084,-0.007791384528577327
1772525842854601700,5.629601806640625,0.16517419558763502,0.07131108601987361,-0.008742986164987086
1772525842864584700,5.639584716796875,0.1379261231780052,0.0431476523309946,-0.02387041267007589
1772525842874568700,5.649568603515625,0.12495441340208052,0.02151931949928403,-0.00919949776083231
1772525842884551700,5.6595517578125,0.10191957477331161,0.039069881498068566,-0.002567220139503479
1772525842894534700,5.66953466796875,0.07784253361523151,0.05166778952553868,0.022918226511776447
1772525842904517600,5.679517578125,0.0552951862424612,0.04537190425172448,0.049715340283513064
1772525842914501600,5.689501708984375,0.025493337696790692,0.022591624905914067,0.040780046416819093
1772525842924484600,5.699484619140625,-0.012950666987895964,-0.019516455244272948,0.02926233484148979
1772525842934467600,5.709467529296875,-0.0636783991843462,-0.03789966867491602,0.028993454772233963
1772525842944451600,5.71945166015625,-0.12419102781414985,-0.04344035166725516,0.034384792421758174
1772525842954434600,5.7294345703125,-0.17768647115826605,-0.030242139659076926,0.0021197686329483983
1772525842964417800,5.739417724609375,-0.18269348566532134,-0.02115194749161601,-0.022603753735125062
1772525842974400800,5.74940087890625,-0.20122341409027575,-0.02803819987401366,-0.032306232582032676
1772525842984384500,5.759384521484375,-0.1861193684607744,-0.02600610952451825,-0.02790945892781019
1772525842994367500,5.769367431640625,-0.151399352735281,-0.010425824685394764,0.008536649937927722
1772525843004350700,5.779350830078125,-0.11806816101968287,0.009497603924572467,0.023888532848656177
1772525843014334700,5.789334716796875,-0.061761751908063885,0.031079321135580536,0.012756313459575175
1772525843024317700,5.799317626953125,0.012156886261701583,0.033590281043201685,-0.0032739071041345594
1772525843034300700,5.80930078125,0.08810147730112075,0.03105301765054464,0.0029120880544185636
1772525843044283600,5.81928369140625,0.15067220750451088,0.008970072919130325,0.020898703382909296
1772525843054267600,5.829267578125,0.22494389689564703,0.014971359160542487,0.043919805747270585
1772525843064250600,5.839250732421875,0.2735568288952112,0.01922565560415387,-0.005884089602530002
1772525843074233600,5.849233642578125,0.2643202139943838,0.0020808979272842407,-0.038780397032201284
1772525843084217600,5.859217529296875,0.2577075178563595,-0.004193213906139135,-0.04824819034039974
1772525843094200600,5.86920068359375,0.21756723064780234,-0.0011649521261453627,-0.03575520399212837
1772525843104183600,5.87918359375,0.1745043339908123,-0.005936696572601795,-0.04012625868320465
1772525843114166800,5.889166748046875,0.11148352193236351,-0.012589432460069655,-0.03645487669408321
1772525843124150800,5.89915087890625,0.05053600901663303,-0.0008975333616137504,-0.012376374231278896
1772525843134133500,5.909133544921875,0.002828501424193382,0.03291501213014126,0.06087269411385059
1772525843144116700,5.91911669921875,0.0020259528696537016,0.08054054052755236,0.12182225285619497
1772525843154100700,5.929100830078125,0.02410100655555725,0.14032660844847558,0.09536445404142141
1772525843164083700,5.939083740234375,0.030617256581783294,0.1316360831230879,0.06188800863623619
1772525843174066400,5.94906640625,0.049238370421528815,0.09146145525351167,0.03451367949843406
1772525843184049700,5.959049560546875,0.06368892057836055,0.05200432800352573,0.011653320653736591
1772525843194033000,5.969032958984375,0.09166296917498111,0.01403773157224059,-0.0010366495713591574
1772525843204015900,5.979015869140625,0.08710428295731544,-0.03062587827965617,-0.005424655397236347
1772525843213998800,5.988998779296875,0.10982990950644016,-0.015003069473057984,-0.004968143801391125
1772525843223982800,5.99898291015625,0.11829495551288127,0.00651332741677761,0.0017179098337888716
1772525843233965800,6.0089658203125,0.06855097365677357,0.02028027922362089,0.002080021144449711
1772525843243949000,6.018948974609375,-0.009182254365086556,0.006129881057143211,-0.033687165546417236
1772525843253931800,6.028931884765625,-0.03044014644920826,0.0009511632449924945,-0.04458119226545095
1772525843263915800,6.038915771484375,-0.048799979004263874,0.024381284801661966,-0.03391045290827751
1772525843273898800,6.048898681640625,-0.04150865295231342,0.03876534559354186,-0.02772299644500017
1772525843283882000,6.058882080078125,-0.016323942813277245,0.041825025425106285,0.03380465444624424
1772525843293866000,6.068865966796875,0.020701427245140073,0.05526756758317351,0.09538023613244294
1772525843303848700,6.0788486328125,0.02681494168937206,0.0379163275487721,0.11890987254083156
1772525843313831700,6.088831787109375,-0.00035538930892944334,0.021620003394782542,0.1188385608702898
1772525843323815000,6.09881494140625,-0.015476386073231697,-0.0030282617799937722,0.09388853626996278
1772525843333799000,6.108798828125,-0.03665770578980446,-0.024233693024516105,0.06538052692711353
1772525843343782000,6.118781982421875,-0.04370879334509373,-0.03115677028596401,0.011614742209017277
1772525843353764900,6.128764892578125,-0.03952420113682747,-0.033710838682949544,-0.05326221911013126
1772525843363747800,6.138747802734375,-0.020295769053697586,-0.04049348456040024,-0.08516425480544566
1772525843373731800,6.14873193359375,0.006695113724470138,-0.04145385402515531,-0.08737900824546814
1772525843383714800,6.15871484375,0.0611468348801136,-0.03547171087563038,-0.05526829823553562
1772525843393697800,6.16869775390625,0.12176467745006084,-0.0055136488549411295,-0.009891279417276381
1772525843403681800,6.178681884765625,0.14524784436821936,0.021807634921371936,0.004988894328474998
1772525843413664800,6.188664794921875,0.17076280937492846,0.02268237192928791,-0.010937281338870525
1772525843423648000,6.19864794921875,0.14412088616490362,-0.02578238377124071,-0.02268178740739822
1772525843433632000,6.208632080078125,0.09794248783588409,-0.05562427206635475,-0.05081248787045479
1772525843443615000,6.218614990234375,0.07575403690338134,-0.03856690041199326,-0.07213876901566982
1772525843453597700,6.22859765625,0.06960662018954754,0.0012336334481835365,-0.09126607881188392
1772525843463581000,6.238580810546875,0.08930909952521324,0.030606150665879246,-0.10106500377058983
1772525843473565000,6.24856494140625,0.08760463369488716,0.018448095360398292,-0.08654372646510601
1772525843483548000,6.2585478515625,0.09408464336395263,0.000996317560970783,-0.05569646051973104
1772525843493530600,6.268530517578125,0.11783259869813918,-0.004854746554791927,-0.03173486243486404
1772525843503515000,6.278514892578125,0.14146598774194716,-0.009704086282104254,-0.0016895605221390723
1772525843513497900,6.288497802734375,0.1379921741515398,-0.03729308108389377,0.026807342904806134
1772525843523480800,6.298480712890625,0.11380290479063987,-0.06940072235390543,0.023566753548383713
1772525843533464000,6.308464111328125,0.040434301719069476,-0.06409063324704765,0.0019549334600567816
1772525843543448000,6.318447998046875,-0.030490415331721303,-0.07614712787419557,-0.014576806885004043
1772525843553430800,6.3284306640625,-0.06781155346632003,-0.06518748857304453,0.014064473448693752
1772525843563413800,6.338413818359375,-0.09750292737483977,-0.02595014155358076,0.024872283188998697
1772525843573397000,6.34839697265625,-0.1240495735168457,0.01279927581846714,0.04832593175172806
1772525843583381000,6.358381103515625,-0.12907529272437096,0.03513955631181598,0.07740443445891142
1772525843593363700,6.36836376953125,-0.11347732609808445,0.057896600912511344,0.05851297924518585
1772525843603347000,6.378346923828125,-0.09308569545447826,0.06916779038086533,0.03703764501810074
1772525843613331000,6.3883310546875,-0.07495148834884166,0.06334799818620085,0.03907967223972082
1772525843623314000,6.39831396484375,-0.02838087583184242,0.06058540160506963,0.013088906414806842
1772525843633297000,6.408296875,0.02018880154788494,0.051949821337312456,0.005358604423701763
1772525843643280600,6.41828076171875,0.03731412387192249,0.0457055201202631,0.0033539866030216216
1772525843653264000,6.428263916015625,0.05659165579378605,0.04972615393847227,0.020949849048256874
1772525843663246800,6.438246826171875,0.06446808825731278,0.0593788022942841,0.057120063582062716
1772525843673229800,6.448229736328125,0.08022036866247653,0.07440379133820534,0.054416065320372575
1772525843683213800,6.4582138671875,0.07617138553261757,0.073726476598531,0.03723872054815292
1772525843693196800,6.46819677734375,0.09361644133031367,0.08724164560139179,0.029608956322073936
1772525843703179800,6.4781796875,0.11418576662838459,0.08275777818560599,0.017355331687629223
1772525843713163000,6.4881630859375,0.12632044105827808,0.030463527324795722,0.01671528021842241
1772525843723147000,6.49814697265625,0.14050269566774368,0.00162277889624238,0.0005640636235475539
1772525843733129700,6.508129638671875,0.13834580989480016,-0.005709609818458557,-0.02694529007077217
1772525843743112700,6.51811279296875,0.15168050776422023,-0.002991144639998674,-0.025195816054940222
1772525843753096700,6.5280966796875,0.1369330204874277,-0.003563976091891527,0.014220833054184912
1772525843763080000,6.538079833984375,0.1067956563770771,0.0031618250317871567,0.019537059640884397
1772525843773063000,6.54806298828125,0.07749766570031642,-0.012156009478867053,0.009463409394025802
1772525843783046000,6.5580458984375,0.03667231883704662,-0.006465396621823311,0.030382863304018973
1772525843793030000,6.56802978515625,0.015080080232024192,0.002463613634556532,0.029936580841243267
1772525843803012900,6.578012939453125,0.023669044879078862,0.005429039311408996,0.0020627777487039565
1772525843812995800,6.587995849609375,0.03319090646207332,0.00914016878902912,0.02191284886151552
1772525843822979800,6.597979736328125,0.04929974521994591,0.01689794330894947,0.0371001888602972
1772525843832962800,6.607962890625,0.0732370856463909,0.01647884111404419,0.03898614873737097
1772525843842945800,6.61794580078125,0.08086626535058021,0.014959960983693598,0.043669922639429565
1772525843852928800,6.6279287109375,0.03161328188180923,-0.010657441484183072,0.03230126414597034
1772525843862912800,6.637912841796875,-0.024338322442770004,-0.010722615674883126,-0.01588876626640558
1772525843872896000,6.64789599609375,-0.053153498038649556,-0.011356821925193071,-0.08548252697438001
1772525843882878700,6.657878662109375,-0.08037994313836097,-0.024425708465278147,-0.08420417760163545
1772525843892862700,6.66786279296875,-0.08274959487915039,-0.016245032358169556,-0.09044014938175678
1772525843902846000,6.677845947265625,-0.03795768247246742,0.0005314765281975269,-0.10023206007778644
1772525843912829000,6.687828857421875,0.009255319601297378,-0.002690115866810083,-0.05540653766244649
1772525843922811600,6.697811767578125,0.049718847414851185,0.014080109409242867,-0.018680735072493553
1772525843932795600,6.707795654296875,0.09138239866793155,0.033492519757151604,0.02265577618330717
1772525843942779000,6.71777880859375,0.1020984384715557,0.04562339479476213,0.06881108589768409
1772525843952761900,6.727761962890625,0.07669511714577674,0.03794906077459454,0.06855360400527716
1772525843962745900,6.737745849609375,0.03639291737377643,0.04038827062025666,0.03855535610467195
1772525843972729000,6.74772900390625,0.018355740901827813,0.03996171577125787,0.004507248291373253
1772525843982711800,6.7577119140625,-0.02690554258227348,0.020110183353722094,-0.015330547861754893
1772525843992694800,6.76769482421875,-0.01607844361960888,-0.0023819267004728316,-0.004417524181306362
1772525844002678800,6.7776787109375,-0.005572831696271896,-0.00894391556456685,0.005527531249821186
1772525844012662000,6.787662109375,0.04040858275592327,-0.005460165102034807,-0.013389058405160904
1772525844022644700,6.797644775390625,0.07095102053582668,0.013137129470705985,-0.0036062077984213826
1772525844032628700,6.807628662109375,0.08989128332734107,0.021021160718798636,0.024166473007202146
1772525844042611700,6.81761181640625,0.09020692514777183,0.015106675978004932,0.05083382291942835
1772525844052595000,6.827594970703125,0.08967734831571579,0.03657338850721717,0.06402560518682003
1772525844062578000,6.837577880859375,0.08759060516953468,0.04753521976545453,0.07960399032980203
1772525844072561700,6.847561767578125,0.07150105563402176,0.04566211936995387,0.04952361710369586
1772525844082545000,6.857544921875,0.07608779890239238,0.04558817735090852,0.011333002658188342
1772525844092527900,6.86752783203125,0.08022913649082183,0.03804287653788924,0.029744857661426066
1772525844102511900,6.877511962890625,0.09566519055366515,0.020391776774078607,0.02625204710960388
1772525844112494800,6.887494873046875,0.1137929679185152,0.02072510038167238,-0.002149286988377571
1772525844122477800,6.897477783203125,0.09086042062044143,-0.012091127549111843,0.0007756605476140976
1772525844132460800,6.907460693359375,0.07250935589373111,-0.027850129956007,-0.0014639350727200507
1772525844142444800,6.91744482421875,0.06194178465008735,-0.0019411971956491468,-0.012618658554553986
1772525844152428000,6.927427978515625,0.05387070639729499,0.009734773681312798,-0.0054027358263731
1772525844162410800,6.93741064453125,0.04843465282320976,0.03873714241236448,0.0014177578434348105
1772525844172394800,6.947394775390625,0.06736030256748199,0.05716287981048226,-0.0006447276443243027
1772525844182377700,6.957377685546875,0.0576437951952219,0.03961392524689436,-0.003932955534756183
1772525844192361700,6.96736181640625,0.06054243924617767,0.0371460738286376,-0.018076631699502466
1772525844202344700,6.9773447265625,0.04528407983779907,0.01222322949618101,-0.02728811215907335
1772525844212328700,6.98732861328125,0.023358663755655287,-0.009592588731646538,-0.026560382406413553
1772525844222311700,6.997311767578125,0.0022030630022287366,-0.0190327633805573,-0.01767915681451559
1772525844232295000,7.007294921875,-0.02789455361962318,-0.01670797369480133,-0.01516249781847
1772525844242279000,7.01727880859375,-0.061219315594434734,-0.007936053696274757,-0.025083295591175555
1772525844252261600,7.02726171875,-0.059202130553126335,0.002367752044647932,-0.031210546299815175
1772525844262244600,7.03724462890625,-0.05548983203172683,0.0044470425367355345,-0.04154313974380493
1772525844272227800,7.047227783203125,-0.060687400674819945,0.004458732974529266,-0.036517712797224516
1772525844282211800,7.0572119140625,-0.05940262156128883,-0.02358238950893283,-0.00516746576577425
1772525844292194800,7.06719482421875,-0.023346388795971867,-0.041582741101831196,0.01926671826690435
1772525844302177800,7.077177734375,0.01155658228099346,-0.012020254269987344,0.00007452654093503952
1772525844312161800,7.087161865234375,0.049586160945892334,0.011547229930758476,0.0063087447553873055
1772525844322144800,7.097144775390625,0.09469780682623385,0.03473784364312887,0.0214104522973299
1772525844332127700,7.107127685546875,0.1295475864112377,0.031162323243916032,0.023007950621843336
1772525844342110700,7.11711083984375,0.14347557399868965,0.013810206426680087,0.040697628830373284
1772525844352094700,7.1270947265625,0.11843933241963386,0.0008392273031175136,0.04687894781380891
1772525844362077700,7.13707763671875,0.08951134409904479,0.0037942777164280414,0.04350713329315185
1772525844372060700,7.147060791015625,0.04231061698496341,0.014517624043673277,0.020784721614420413
1772525844382044700,7.157044677734375,0.033681904849410055,0.027382950835675,0.014297989943623543
1772525844392027600,7.167027587890625,0.03422843281626701,0.040693098785728216,0.00020487492233514784
1772525844402010600,7.1770107421875,0.04900631523132324,0.05229688120931387,-0.027707798875868318
1772525844411993900,7.186993896484375,0.060386371901631354,0.0529229041531682,-0.01404576874822378
1772525844421977900,7.196977783203125,0.041871056523919106,0.0420168947353959,0.0028621114328503607
1772525844431960800,7.2069609375,0.02841185549199581,0.04038900127261877,0.0038140053302049633
1772525844441943600,7.216943603515625,0.013072247540950774,0.04433934633359313,-0.004138122718036175
1772525844451927600,7.226927490234375,0.029891280394792556,0.04332169372364878,0.0007128244444727898
1772525844461910800,7.236910888671875,0.05343289950191974,0.04756546877324581,0.03127747405618429
1772525844471893800,7.246893798828125,0.09380173476934432,0.04064209925085306,0.07466039644777775
1772525844481876700,7.256876708984375,0.11987784079015254,0.06035612289384007,0.1079676227658987
1772525844491860700,7.26686083984375,0.14384966800808904,0.06270268601998687,0.08392419161647557
1772525844501843700,7.27684375,0.09928045844137669,0.050815264349430796,0.08290215509235858
1772525844511826700,7.28682666015625,0.055908934226632116,0.02364741756916046,0.060222998033463954
1772525844521810700,7.296810791015625,0.023403087419271468,0.01748290359005332,0.00691547847688198
1772525844531794000,7.3067939453125,-0.009084639209508895,0.01027560255974531,-0.029265257450938224
1772525844541776600,7.316776611328125,-0.016773440146446227,0.012132044081389903,-0.024047230541706082
1772525844551759600,7.326759521484375,-0.000367079746723175,0.01969414989873767,-0.05168167192041874
1772525844561743600,7.33674365234375,0.010234393766522408,0.028228754010051486,-0.061306117095053195
1772525844571726800,7.346726806640625,0.011119359907507896,0.013498363998532294,-0.03911941972821951
1772525844581709600,7.35670947265625,0.011097148075699805,-0.016249562402814624,-0.006472118623554706
1772525844591693600,7.366693603515625,-0.017982231414318085,-0.011687369053810834,-0.008695932152867316
1772525844601676800,7.3766767578125,-0.05936696572601795,0.01329743459895253,0.022388357418775557
1772525844611659800,7.38665966796875,-0.04935995097458362,0.03961860142201185,0.04422667973935604
1772525844621642800,7.396642822265625,-0.015405074402689933,0.06513751195147634,0.03412088078856468
1772525844631626800,7.406626708984375,0.039890111839771265,0.057294689496606585,0.009134031309187413
1772525844641609700,7.416609619140625,0.07876023298203945,0.011037819103896618,-0.007706628854572773
1772525844651592700,7.4265927734375,0.106420977845788,-0.035634061830490824,-0.02805120548605919
1772525844661576700,7.43657666015625,0.11782383086979388,-0.08850026736035943,-0.06327975525557994
1772525844671560000,7.446559814453125,0.09012450756132602,-0.11489391489773988,-0.09221417331695556
1772525844681542700,7.456542724609375,0.05624386526942253,-0.09197028155848383,-0.08045242385268211
1772525844691525600,7.466525634765625,0.05410685324072838,-0.036498861966282124,-0.05529051006734371
1772525844701509600,7.476509521484375,0.057473699325323105,0.012082213590294122,-0.026142449255287647
1772525844711492900,7.486492919921875,0.07377016960978508,0.038664807828515765,0.021631986093521117
1772525844721475800,7.496475830078125,0.07872574619054794,0.01733925733566284,0.06075315938740968
1772525844731459600,7.50645947265625,0.06542027441561221,-0.026336510522663593,0.033707039290666575
1772525844741442600,7.516442626953125,0.06694996820092201,-0.037357670752704145,0.016182780776917934
1772525844751425800,7.52642578125,0.06332768605053425,-0.06555164571031928,0.026274843463301657
1772525844761408800,7.53640869140625,0.06722761609852314,-0.06986307916864752,-0.030017244862020013
1772525844771392800,7.546392822265625,0.07772679828107357,-0.06887567556649446,-0.08375409574657679
1772525844781375700,7.556375732421875,0.08049450942873955,-0.07336918759346008,-0.11680267112851142
1772525844791358700,7.566358642578125,0.0927267990142107,-0.06414835478365422,-0.14276421085894106
1772525844801342700,7.5763427734375,0.10082008909881114,-0.05933920093625784,-0.17296265750676393
1772525844811325700,7.58632568359375,0.10210428369045257,-0.06517594426572322,-0.1716068589836359
1772525844821308700,7.59630859375,0.09430325455069541,-0.04874430329427123,-0.13014672134816646
1772525844831291600,7.606291748046875,0.1109656355381012,-0.0028325930774211884,-0.074956456784904
1772525844841275600,7.616275634765625,0.10357494076490402,0.03997647494897246,-0.038250820200145245
1772525844851259000,7.6262587890625,0.0675081866055727,0.045822278367727995,0.0013625205248594284
1772525844861241900,7.636241943359375,0.008686579802632332,0.04077843898162246,0.07504384280741214
1772525844871225900,7.646225830078125,-0.03180383601784706,0.06189195415899157,0.06902531317025423
1772525844881208600,7.65620849609375,-0.07720949640870094,0.0908513605311513,0.0679462857618928
1772525844891191800,7.66619189453125,-0.07956862675547599,0.1349395085826516,0.080126260638237
1772525844901174800,7.6761748046875,-0.06747954503297805,0.1756634408980608,0.12438567360341549
1772525844911158800,7.68615869140625,-0.04172083439826965,0.17875030099749564,0.1698307892218232
1772525844921141500,7.6961416015625,-0.030178280642628667,0.1739459694556892,0.214637899197638
1772525844931124700,7.706124755859375,-0.016645429852604865,0.14617182734534143,0.23511370099335907
1772525844941108700,7.716108642578125,-0.013262801676988602,0.12124196875020861,0.23879122046232223
1772525844951091700,7.726091796875,-0.029771453407406806,0.10728548572063445,0.19102964459508656
1772525844961075000,7.736074951171875,-0.02460954059958458,0.0912402137182653,0.1328270464733243
1772525844971057700,7.7460576171875,-0.006025251638889313,0.10260901834219693,0.1187231177970767
1772525844981041700,7.756041748046875,0.008228899163007735,0.09457622627317905,0.09088964671492576
1772525844991024600,7.766024658203125,0.053804070901870726,0.07816109804511069,0.11735533657521009
1772525845001007900,7.7760078125,0.06437398023307322,0.07248845923617482,0.06076981826126575
1772525845010991900,7.785991943359375,0.09824527017474174,0.07238499886170029,0.05540127696543932
1772525845020974600,7.795974609375,0.12411971614360809,0.06654679422751068,0.05415244594812393
1772525845030957800,7.805957763671875,0.14674363588392733,0.06353475292995572,0.016286825673282147
1772525845040940800,7.81594091796875,0.15273556977510452,0.04037745696529746,-0.014618892461061477
1772525845050924800,7.8259248046875,0.16257307317852973,0.0028548049092292785,-0.035026889717578884
1772525845060907800,7.83590771484375,0.1821633243113756,-0.020884236466139555,-0.07427519652247429
1772525845070890800,7.845890869140625,0.1943237177044153,-0.030239070919156074,-0.10619506013542412
1772525845080874800,7.855874755859375,0.19236147772073744,-0.04767755084559321,-0.10035364063084125
1772525845090857700,7.865857666015625,0.15939619670808314,-0.05282631191089749,-0.08198357894271611
1772525845100840700,7.8758408203125,0.1127168631196022,-0.03598229074627161,-0.07426204477995633
1772525845110823700,7.88582373046875,0.08574293147623538,-0.0038452772513031955,-0.06741203275471926
1772525845120807700,7.8958076171875,0.0589116231739521,-0.00018660861328244208,-0.0662923810750246
1772525845130790700,7.905790771484375,0.03173018625974655,-0.004074263701587915,-0.056691024515032766
1772525845140774000,7.91577392578125,-0.010493921485543251,-0.05810834396705031,-0.08399638006985187
1772525845150756900,7.9257568359375,-0.041514498171210286,-0.09085062987878918,-0.07618366049230098
1772525845160740600,7.93574072265625,-0.05774784009158611,-0.09633417585641145,-0.06329758317321539
1772525845170723600,7.9457236328125,-0.05783844098448753,-0.08159896353930235,-0.06045271513611078
1772525845180706800,7.955706787109375,-0.07710603603422642,-0.07645502477958797,-0.06390314785093068
1772525845190690300,7.965690185546875,-0.10474281550049781,-0.06909457901418209,-0.060959203353524206
1772525845200673300,7.97567333984375,-0.11333353371322154,-0.039233839888125656,-0.04443009335696697
1772525845210656300,7.98565625,-0.0925391674876213,-0.010526070189476013,-0.009411971467733383
1772525845220639200,7.99563916015625,-0.06515022530257701,0.00850640093013644,0.008732757031917572
1772525845230623200,8.005623291015626,-0.00010638298392295837,0.011074205591529607,0.05383505056202411
1772525845240604200,8.015604248046875,0.027224691534042358,0.014083762671053409,0.0902452113315463
1772525845250588200,8.025588134765625,0.03156067491173744,0.009975596699863672,0.07659311807602644
1772525845260571100,8.035571044921875,0.01695113480091095,0.0018302841670811176,0.05264700982123613
1772525845270554400,8.045554443359375,0.002457330024242401,-0.0015726561442017555,0.02744593306928873
1772525845280537000,8.055537109375,0.00620703794658184,0.01601020068898797,-0.0031526188120245932
1772525845290521000,8.06552099609375,-0.009288052827119827,0.01953179894387722,-0.001433247673511505
1772525845300504300,8.07550439453125,0.002846621602773666,0.060435471740365024,0.018392565780878067
1772525845310487300,8.0854873046875,0.039510757133364674,0.1290973584257066,-0.00532996285110712
1772525845320471300,8.09547119140625,0.07402677471935748,0.11013298410624266,0.04700491228103638
1772525845330454000,8.1054541015625,0.09317454278171063,0.08539572547376155,0.059008653807640074
1772525845340437200,8.115437255859375,0.11694704803526401,0.10106441924870013,0.03656067515611648
1772525845350420200,8.125420166015624,0.13810732496380806,0.0925600641451776,0.022412907338142395
1772525845360404200,8.135404296875,0.16366729815602302,0.07513035204708576,0.0037321722656488416
1772525845370387200,8.14538720703125,0.1662947240501642,0.04741057047247886,0.009674129535257816
1772525845380370200,8.1553701171875,0.13774901304543016,0.013445903158932923,-0.0009396189376711844
1772525845390354200,8.165354248046874,0.05362696076929569,-0.01756283695846796,0.015073358230292795
1772525845400337200,8.175337158203124,0.012058686584234236,0.01199409691542387,-0.020263912610709665
1772525845410320400,8.1853203125,-0.02130640740096569,0.048480830052495,-0.038733635281026364
1772525845420303400,8.195303466796876,-0.04300678255558014,0.04854249711185694,-0.050525779883563514
1772525845430287000,8.205287109375,0.003605331015586853,0.054120004983246324,0.02072597716450691
1772525845440270000,8.21527001953125,0.010804302608966827,0.036504999446123836,0.02179039152562618
1772525845450253300,8.22525341796875,0.028993454772233963,0.026673049000650643,0.006243570564687251
1772525845460236300,8.235236328125,0.08809738564789295,-0.000023380875587463377,-0.010244915160536765
1772525845470220300,8.24522021484375,0.07785013239979743,-0.03714958095997572,-0.03164484606385231
1772525845480203300,8.255203369140625,0.0423071098536253,-0.10292933633774519,-0.03622399054765701
1772525845490186200,8.265186279296875,0.008985270488262176,-0.06526055380925536,-0.04498626593500375
1772525845500170200,8.275170166015625,0.010600304469466209,-0.08402326807677746,-0.005942834052443504
1772525845510153200,8.2851533203125,0.04825695816874504,-0.17166268082410097,0.04731704697012901
1772525845520136200,8.29513623046875,0.15335165584683416,-0.15359057916924357,-0.06498685143440962
1772525845530119200,8.305119140625,0.24507716886401176,0.027371991050243377,-0.21209464445561169
1772525845540103200,8.315103271484375,0.2894546552509069,0.007640285620093345,-0.255849030508101
