time,seconds_elapsed,z,y,x
1772525837303894800,0.078894775390625,-0.07218801230192184,-0.07599040865898132,0.009979804046452045
1772525837313878800,0.088878662109375,-0.05938851088285446,-0.03897462785243988,0.06940696388483047
1772525837323861800,0.09886181640625,-0.03596893697977066,-0.010289985686540604,0.13537026941776276
1772525837333845000,0.108844970703125,-0.01313561201095581,-0.021304532885551453,0.19364017248153687
1772525837343828000,0.118827880859375,0.003041760064661503,-0.06394439935684204,0.23867928981781006
1772525837353811700,0.128811767578125,0.014885274693369865,-0.11384847015142441,0.2625410258769989
1772525837363794700,0.138794677734375,0.014749718829989433,-0.16668158769607544,0.27048149704933167
1772525837373778000,0.14877783203125,0.018628381192684174,-0.2074102759361267,0.2563110291957855
1772525837383762000,0.158761962890625,0.015498633496463299,-0.20031987130641937,0.22935931384563446
1772525837393745000,0.168744873046875,0.016262225806713104,-0.1591113954782486,0.19406095147132874
1772525837403728000,0.178727783203125,0.02134673297405243,-0.12084337323904037,0.151021346449852
1772525837413710800,0.1887109375,0.023342546075582504,-0.09661860764026642,0.10620956122875214
1772525837423694800,0.19869482421875,0.025683732703328133,-0.07315855473279953,0.06670449674129486
1772525837433677800,0.208677734375,0.024040166288614273,-0.06299378722906113,0.040907084941864014
1772525837443660800,0.218660888671875,0.015592353418469429,-0.05899504944682121,0.025199495255947113
1772525837453644800,0.228644775390625,-0.0011218376457691193,-0.061331216245889664,0.009736509062349796
1772525837463627800,0.238627685546875,-0.014224590733647346,-0.07123125344514847,-0.000600550789386034
1772525837473610800,0.24861083984375,-0.021138476207852364,-0.08282428979873657,-0.000018695369362831116
1772525837483594000,0.258593994140625,-0.02538621798157692,-0.09519573301076889,0.008730853907763958
1772525837493578000,0.268577880859375,-0.020071152597665787,-0.10634726285934448,0.031292714178562164
1772525837503560700,0.278560791015625,-0.004736405331641436,-0.1123897060751915,0.0641273558139801
1772525837513544000,0.2885439453125,0.024940751492977142,-0.12592843174934387,0.09553390741348267
1772525837523528000,0.29852783203125,0.052043210715055466,-0.1475255936384201,0.12898772954940796
1772525837533511000,0.308510986328125,0.08315502852201462,-0.15196874737739563,0.1548115313053131
1772525837543493600,0.31849365234375,0.11040529608726501,-0.13893869519233704,0.17833150923252106
1772525837553476900,0.328476806640625,0.13433757424354553,-0.13441184163093567,0.18555916845798492
1772525837563460900,0.3384609375,0.15560157597064972,-0.1335497796535492,0.1795681267976761
1772525837573443800,0.34844384765625,0.17164279520511627,-0.14077265560626984,0.1752561330795288
1772525837583427000,0.358427001953125,0.18378281593322754,-0.15683045983314514,0.18983027338981628
1772525837593411000,0.3684111328125,0.18004074692726135,-0.18551088869571686,0.21627601981163025
1772525837603393800,0.378393798828125,0.1732640564441681,-0.20032712817192078,0.24501685798168182
1772525837613376800,0.388376708984375,0.16585706174373627,-0.20177051424980164,0.26931023597717285
1772525837623360000,0.398360107421875,0.16777534782886505,-0.2060273140668869,0.30189481377601624
1772525837633344000,0.408343994140625,0.16637589037418365,-0.2015068382024765,0.3316056430339813
1772525837643326700,0.41832666015625,0.16220511496067047,-0.19997099041938782,0.35797518491744995
1772525837653309700,0.428309814453125,0.14983855187892914,-0.19755446910858154,0.3793032467365265
1772525837663294000,0.4382939453125,0.13824526965618134,-0.1827148050069809,0.40080586075782776
1772525837673277000,0.44827685546875,0.1325155645608902,-0.16179491579532623,0.4072036147117615
1772525837683260000,0.458260009765625,0.12964867055416107,-0.1544342041015625,0.40482887625694275
1772525837693243000,0.468242919921875,0.12861467897891998,-0.17537321150302887,0.38921400904655457
1772525837703227000,0.478226806640625,0.12074371427297592,-0.19676610827445984,0.3574161231517792
1772525837713209900,0.4882099609375,0.11093136668205261,-0.23125196993350983,0.3248386085033417
1772525837723192800,0.49819287109375,0.08828331530094147,-0.26616814732551575,0.305612713098526
1772525837733176800,0.5081767578125,0.056595850735902786,-0.284223735332489,0.2875787019729614
1772525837743159800,0.518159912109375,0.020501231774687767,-0.27903643250465393,0.2661527693271637
1772525837753142800,0.528142822265625,-0.00896451435983181,-0.25464481115341187,0.24198032915592194
1772525837763126000,0.5381259765625,-0.03240935876965523,-0.2132050096988678,0.2189495861530304
1772525837773110000,0.548110107421875,-0.05555153265595436,-0.15514853596687317,0.19053564965724945
1772525837783092700,0.5580927734375,-0.07937191426753998,-0.11483228206634521,0.16367287933826447
1772525837793075700,0.56807568359375,-0.09747597575187683,-0.09669145196676254,0.1375173032283783
1772525837803059700,0.578059814453125,-0.10513842105865479,-0.08611790835857391,0.11145668476819992
1772525837813043000,0.58804296875,-0.10206321626901627,-0.08380598574876785,0.08775059878826141
1772525837823026000,0.59802587890625,-0.08831943571567535,-0.08905693888664246,0.0737580880522728
1772525837833008600,0.608008544921875,-0.06965214759111404,-0.09458167105913162,0.06493466347455978
1772525837842993000,0.617992919921875,-0.0511503741145134,-0.09961984306573868,0.05087663605809212
1772525837852975900,0.627975830078125,-0.04416560381650925,-0.10353454202413559,0.03190182149410248
1772525837862958800,0.637958740234375,-0.03444533050060272,-0.10817483067512512,0.02221830002963543
1772525837872942800,0.64794287109375,-0.03215362876653671,-0.11683272570371628,0.02838968299329281
1772525837882925800,0.65792578125,-0.04047946631908417,-0.11190667748451233,0.044808872044086456
1772525837892908800,0.66790869140625,-0.04409842565655708,-0.10042054951190948,0.06875801831483841
1772525837902891800,0.677891845703125,-0.04883725568652153,-0.08135711401700974,0.08502940088510513
1772525837912875800,0.687875732421875,-0.04310384392738342,-0.070514015853405,0.08852823078632355
1772525837922859000,0.69785888671875,-0.03184906020760536,-0.06484973430633545,0.0834631621837616
1772525837932841700,0.707841796875,-0.016981003805994987,-0.08018625527620316,0.07787598669528961
1772525837942825700,0.71782568359375,0.003070734441280365,-0.07090966403484344,0.07222076505422592
1772525837952809000,0.72780908203125,0.02215130254626274,-0.07395447790622711,0.06359164416790009
1772525837962792000,0.7377919921875,0.03236212581396103,-0.09054810553789139,0.052862830460071564
1772525837972774700,0.747774658203125,0.029613206163048744,-0.10406100004911423,0.042588163167238235
1772525837982758700,0.757758544921875,0.019682276993989944,-0.11800345033407211,0.03756411001086235
1772525837992742000,0.767741943359375,0.017666051164269447,-0.1381787359714508,0.037452030926942825
1772525838002724900,0.777724853515625,0.017658861353993416,-0.1756581962108612,0.03182423859834671
1772525838012707800,0.787707763671875,0.008483773097395897,-0.22005963325500488,0.0245582964271307
1772525838022691800,0.79769189453125,-0.013209538534283638,-0.253966748714447,0.023705286905169487
1772525838032674800,0.8076748046875,-0.04727879911661148,-0.27266353368759155,0.011501368135213852
1772525838042657800,0.81765771484375,-0.08049986511468887,-0.26691776514053345,-0.002694878727197647
1772525838052641800,0.827641845703125,-0.10599695146083832,-0.2319052368402481,-0.017525674775242805
1772525838062625000,0.837625,-0.1194579005241394,-0.1719857156276703,-0.028403354808688164
1772525838072607700,0.847607666015625,-0.12377791106700897,-0.12056688964366913,-0.02606796845793724
1772525838082590700,0.8575908203125,-0.1201687902212143,-0.09131685644388199,-0.019821258261799812
1772525838092574700,0.86757470703125,-0.1029989942908287,-0.08830524981021881,-0.013193244114518166
1772525838102558000,0.877557861328125,-0.07678550481796265,-0.09558499604463577,-0.006188597995787859
1772525838112541000,0.887541015625,-0.05282294750213623,-0.12121867388486862,-0.0054234727285802364
1772525838122524700,0.897524658203125,-0.03709618002176285,-0.14392691850662231,-0.016562676057219505
1772525838132508000,0.9075078125,-0.013594411313533783,-0.17350547015666962,-0.02016054466366768
1772525838142491000,0.917490966796875,0.0044090901501476765,-0.17705625295639038,-0.013681340962648392
1772525838152473900,0.927473876953125,0.020662158727645874,-0.16553430259227753,-0.002652952913194895
1772525838162457900,0.937457763671875,0.028360292315483093,-0.1532621830701828,0.01724085956811905
1772525838172440800,0.94744091796875,0.03886374831199646,-0.1541329324245453,0.04754967242479324
1772525838182424300,0.95742431640625,0.04170294478535652,-0.170292466878891,0.08367704600095749
1772525838192408300,0.967408203125,0.026624679565429688,-0.16046413779258728,0.11135323345661163
1772525838202391300,0.977391357421875,0.015230610966682434,-0.13023778796195984,0.12092383205890656
1772525838212374300,0.987374267578125,0.006659281440079212,-0.09291674196720123,0.11428701877593994
1772525838222357200,0.997357177734375,0.010235641151666641,-0.05115891247987747,0.09042616188526154
1772525838232341200,1.00734130859375,0.01047397032380104,-0.020888177677989006,0.06170819327235222
1772525838242324500,1.017324462890625,0.019233105704188347,0.00576074467971921,0.024635393172502518
1772525838252307200,1.02730712890625,0.028585927560925484,0.03157763183116913,-0.004734550137072802
1772525838262291200,1.037291259765625,0.03766997158527374,0.049849312752485275,-0.027896592393517494
1772525838272274200,1.047274169921875,0.036173827946186066,0.07080299407243729,-0.041916459798812866
1772525838282257400,1.05725732421875,0.0323396734893322,0.09821757674217224,-0.04659057408571243
1772525838292240400,1.067240478515625,0.020859383046627045,0.12612728774547577,-0.04128798097372055
1772525838302224100,1.07722412109375,0.009595010429620743,0.13431277871131897,-0.02556520886719227
1772525838312207000,1.08720703125,-0.0033939392305910587,0.1223534494638443,-0.009157199412584305
1772525838322190300,1.0971904296875,-0.013996249996125698,0.0949239581823349,0.009532598778605461
1772525838332174300,1.10717431640625,-0.020369641482830048,0.067762091755867,0.012447215616703033
1772525838342157300,1.1171572265625,-0.02725418098270893,0.04660913720726967,0.013552960008382797
1772525838352140300,1.127140380859375,-0.03170829266309738,0.039833344519138336,0.017717905342578888
1772525838362123300,1.137123291015625,-0.04988383501768112,0.030580991879105568,0.04070284962654114
1772525838372107300,1.147107177734375,-0.0737171545624733,0.005241979844868183,0.05984046682715416
1772525838382090200,1.15709033203125,-0.08112047612667084,-0.03642956539988518,0.07201644033193588
1772525838392073200,1.1670732421875,-0.08132180571556091,-0.06620299816131592,0.06723035126924515
1772525838402057200,1.17705712890625,-0.0802895650267601,-0.059513404965400696,0.049285173416137695
1772525838412040200,1.187040283203125,-0.08647120743989944,-0.03667004033923149,0.024901095777750015
1772525838422023400,1.1970234375,-0.09858193248510361,-0.009177162311971188,-0.002597640734165907
1772525838432006400,1.20700634765625,-0.1093561127781868,0.03658339008688927,-0.02312658727169037
1772525838441990400,1.216990478515625,-0.11159796267747879,0.091917484998703,-0.038208868354558945
1772525838451973000,1.22697314453125,-0.09802036732435226,0.1419558972120285,-0.05004315823316574
1772525838461956400,1.236956298828125,-0.0775502473115921,0.15447194874286652,-0.059753045439720154
1772525838471940400,1.2469404296875,-0.05561983957886696,0.13668997585773468,-0.0637764185667038
1772525838481923300,1.25692333984375,-0.0362035296857357,0.11234389245510101,-0.05858725681900978
1772525838491906000,1.266906005859375,-0.02032223902642727,0.07394382357597351,-0.04551781713962555
1772525838501889300,1.27688916015625,-0.005350479856133461,0.02784983068704605,-0.026854384690523148
1772525838511873300,1.286873291015625,0.004153447691351175,-0.009512076154351234,-0.007410848047584295
1772525838521856300,1.296856201171875,0.008949801325798035,-0.02381165139377117,0.009341766126453876
1772525838531839500,1.306839599609375,0.0083460733294487,-0.019016873091459274,0.029858149588108063
1772525838541823500,1.316823486328125,0.006180656608194113,-0.006726116873323917,0.04623233154416084
1772525838551806200,1.32680615234375,0.0019080829806625843,0.020074017345905304,0.06209920719265938
1772525838561789200,1.3367890625,-0.0027130343951284885,0.03610704466700554,0.0669911727309227
1772525838571772400,1.3467724609375,0.002200125250965357,0.0320454016327858,0.06980976462364197
1772525838581756400,1.35675634765625,-0.00022388389334082603,0.02002255991101265,0.06895222514867783
1772525838591739100,1.3667392578125,0.0025367382913827896,0.018711993470788002,0.06864950060844421
1772525838601722400,1.376722412109375,0.01312812976539135,0.02965119294822216,0.0677722617983818
1772525838611706400,1.386706298828125,0.019534802064299583,0.045837730169296265,0.06251071393489838
1772525838621689300,1.396689453125,0.02498575858771801,0.07316655665636063,0.052989911288022995
1772525838631672300,1.40667236328125,0.032430827617645264,0.07897726446390152,0.03920381888747215
1772525838641655300,1.4166552734375,0.039117757230997086,0.07446613162755966,0.026225168257951736
1772525838651639300,1.426639404296875,0.0405559316277504,0.06086874380707741,0.012785258702933788
1772525838661622300,1.436622314453125,0.03554413095116615,0.0474994070827961,-0.005621179472655058
1772525838671605200,1.446605224609375,0.03313791751861572,0.04953167960047722,-0.025924503803253174
1772525838681588200,1.456588134765625,0.01664735935628414,0.04566636681556702,-0.05809708684682846
1772525838691572200,1.466572265625,0.002400812227278948,0.0508820042014122,-0.08922015875577927
1772525838701555200,1.47655517578125,-0.011612208560109138,0.05706559866666794,-0.11942999809980392
1772525838711538400,1.486538330078125,-0.01830781251192093,0.054661232978105545,-0.13874824345111847
1772525838721522400,1.4965224609375,-0.017088351771235466,0.04221441596746445,-0.15654055774211884
1772525838731505200,1.506505126953125,-0.011231835931539536,0.038024868816137314,-0.15845045447349548
1772525838741488000,1.516488037109375,-0.0004923734813928604,0.009255007840692997,-0.13640667498111725
1772525838751471400,1.526471435546875,-0.006284631323069334,-0.022540653124451637,-0.09708482027053833
1772525838761455400,1.536455322265625,-0.008556041866540909,-0.04636982083320618,-0.05063024163246155
1772525838771438300,1.546438232421875,-0.011930989101529121,-0.06386028230190277,-0.007412911392748356
1772525838781421300,1.55642138671875,-0.015445828437805176,-0.08572297543287277,0.022467754781246185
1772525838791405300,1.5664052734375,-0.015502320602536201,-0.10473313927650452,0.04282636195421219
1772525838801388300,1.57638818359375,-0.012499340809881687,-0.09843315929174423,0.05046297609806061
1772525838811371300,1.586371337890625,-0.0020184279419481754,-0.06585124880075455,0.05205407738685608
1772525838821354500,1.5963544921875,0.005614191759377718,-0.016847485676407814,0.04663214832544327
1772525838831338200,1.606338134765625,0.011971432715654373,0.029287811368703842,0.032454732805490494
1772525838841321200,1.6163212890625,0.02206854149699211,0.04501883685588837,0.011432004161179066
1772525838851304200,1.62630419921875,0.024640198796987534,0.023187097162008286,-0.010795708745718002
1772525838861288200,1.6362880859375,0.02678244560956955,-0.0015550004318356514,-0.03375561907887459
1772525838871271400,1.646271484375,0.02433124929666519,-0.01747610606253147,-0.04959005489945412
1772525838881254100,1.656254150390625,0.019912000745534897,-0.017325371503829956,-0.05762640759348869
1772525838891237400,1.6662373046875,0.016560986638069153,-0.003794789547100663,-0.05126875638961792
1772525838901221400,1.676221435546875,0.017513332888484,0.015381301753222942,-0.04108242690563202
1772525838911204400,1.686204345703125,0.014803835190832615,0.02974015660583973,-0.028791988268494606
1772525838921187000,1.69618701171875,0.016873113811016083,0.033323440700769424,-0.015621326863765717
1772525838931171000,1.706171142578125,0.018659450113773346,0.03338075429201126,-0.004508536774665117
1772525838941154300,1.716154296875,0.010509646497666836,0.021378152072429657,0.011482413858175278
1772525838951137300,1.72613720703125,0.009884963743388653,0.015381546691060066,0.024597054347395897
1772525838961120300,1.736120361328125,0.009249001741409302,0.011560441926121712,0.03538019210100174
1772525838971104300,1.746104248046875,0.003792609553784132,0.009904960170388222,0.03936365991830826
1772525838981087200,1.756087158203125,0.0016365149058401585,0.011047190055251122,0.03792209178209305
1772525838991070200,1.7660703125,-0.007101091556251049,0.007066565100103617,0.029701847583055496
1772525839001054200,1.77605419921875,-0.0077809966169297695,0.0020350548438727856,0.013309558853507042
1772525839011037400,1.786037353515625,-0.014772349037230015,-0.0016060725320130587,-0.0066141909919679165
1772525839021020200,1.796020263671875,-0.018579870462417603,-0.009436831809580326,-0.022255999967455864
1772525839031003100,1.806003173828125,-0.024470899254083633,-0.01348038949072361,-0.024914385750889778
1772525839040987100,1.815987060546875,-0.025400608777999878,-0.00442883837968111,-0.02455778978765011
1772525839050970400,1.825970458984375,-0.0197718795388937,0.010271820239722729,-0.016934124752879143
1772525839060953300,1.835953369140625,-0.016370756551623344,0.01679949462413788,-0.010710051283240318
1772525839070937000,1.84593701171875,-0.014369158074259758,0.006133966147899628,-0.00586759252473712
1772525839080920300,1.85592041015625,-0.007447602227330208,-0.01491432636976242,-0.00580900302156806
1772525839090903300,1.8659033203125,-0.0002639167942106724,-0.04269193857908249,-0.00858415849506855
1772525839100886300,1.87588623046875,-0.00009880121797323227,-0.05108196288347244,-0.01279275119304657
1772525839110870300,1.885870361328125,-0.0005296254530549049,-0.04489920660853386,-0.017439577728509903
1772525839120853200,1.895853271484375,-0.010804100893437862,-0.020269494503736496,-0.02530495822429657
1772525839130836200,1.905836181640625,-0.01916753500699997,-0.0064320992678403854,-0.03388848528265953
1772525839140819200,1.915819091796875,-0.027931464836001396,0.007043761666864157,-0.041146133095026016
1772525839150803200,1.92580322265625,-0.03570867329835892,0.02555479109287262,-0.05191241204738617
1772525839160786400,1.935786376953125,-0.040199827402830124,0.03735259547829628,-0.06667084991931915
1772525839170769200,1.94576904296875,-0.03090604394674301,0.04009249433875084,-0.0791565328836441
1772525839180753000,1.9557529296875,-0.01953754387795925,0.023623771965503693,-0.0891852006316185
1772525839190736100,1.965736083984375,-0.008604159578680992,0.013473667204380035,-0.08575944602489471
1772525839200719000,1.975718994140625,0.0014617908746004105,0.016060927882790565,-0.07610469311475754
1772525839210702000,1.9857021484375,0.008763656951487064,0.033283233642578125,-0.06088430806994438
1772525839220686000,1.99568603515625,0.015885217115283012,0.05505670607089996,-0.04678739979863167
1772525839230669000,2.0056689453125,0.017775580286979675,0.04034901037812233,-0.03827158734202385
1772525839240652000,2.015652099609375,0.01431666687130928,0.00828348658978939,-0.02696939930319786
1772525839250636000,2.025635986328125,0.011101665906608105,-0.023050032556056976,-0.023826839402318
1772525839260619300,2.035619384765625,0.01372088585048914,-0.05190005525946617,-0.01185513287782669
1772525839270602000,2.04560205078125,0.014186618849635124,-0.05739830434322357,-0.0029440075159072876
1772525839280585000,2.0555849609375,0.020858902484178543,-0.03456862270832062,0.008162438869476318
1772525839290569000,2.06556884765625,0.0269083920866251,-0.0057901544496417046,0.020286230370402336
1772525839300552200,2.07555224609375,0.028781389817595482,0.011198416352272034,0.02578113041818142
1772525839310535200,2.08553515625,0.03339649736881256,0.016713373363018036,0.028644844889640808
1772525839320519200,2.095519287109375,0.03749936446547508,0.01733309030532837,0.01915786601603031
1772525839330502100,2.105502197265625,0.040361180901527405,0.004608738701790571,0.011178103275597095
1772525839340485000,2.115485107421875,0.037423714995384216,-0.0022286607418209314,0.012421799823641777
1772525839350468000,2.125468017578125,0.03791619464755058,0.0074884602800011635,0.017222661525011063
1772525839360452000,2.1354521484375,0.03861154615879059,0.025144686922430992,0.025527728721499443
1772525839370435000,2.14543505859375,0.0360291451215744,0.034373510628938675,0.024610543623566628
1772525839380418000,2.15541796875,0.027919551357626915,0.023851361125707626,0.021543115377426147
1772525839390402000,2.165402099609375,0.026860497891902924,0.016279585659503937,0.01282074861228466
1772525839400385000,2.175385009765625,0.023084400221705437,0.021929481998085976,0.007735176477581263
1772525839410368300,2.1853681640625,0.019290845841169357,0.027225147932767868,-0.0005499450489878654
1772525839420351000,2.19535107421875,0.019628269597887993,0.03594034165143967,-0.0004343641921877861
1772525839430335000,2.2053349609375,0.02823120355606079,0.040090449154376984,0.0010417751036584377
1772525839440318200,2.215318115234375,0.03405873477458954,0.055085644125938416,0.0014545652084052563
1772525839450301200,2.22530126953125,0.03592826426029205,0.06649114191532135,0.004411543719470501
1772525839460285200,2.23528515625,0.037913914769887924,0.05450904741883278,-0.0021262499503791332
1772525839470268000,2.245267822265625,0.04354982450604439,0.03809049725532532,-0.020322352647781372
1772525839480251100,2.255251220703125,0.041078679263591766,0.0339687205851078,-0.041033223271369934
1772525839490234000,2.265234130859375,0.029041698202490807,0.028811581432819366,-0.05630093812942505
1772525839500218000,2.275218017578125,0.013695767149329185,0.009065840393304825,-0.060915932059288025
1772525839510201000,2.285201171875,-0.0027726676780730486,0.016717564314603806,-0.056338146328926086
1772525839520184000,2.29518408203125,-0.014553161337971687,0.02889060787856579,-0.040487274527549744
1772525839530168000,2.30516796875,-0.01759473606944084,0.02974993921816349,-0.021417368203401566
1772525839540151000,2.315151123046875,-0.022414790466427803,0.00926144141703844,-0.00449857022613287
1772525839550134300,2.32513427734375,-0.013228408992290497,-0.0044456240721046925,0.001990080811083317
1772525839560117000,2.335116943359375,-0.005414427723735571,-0.0005717901512980461,0.003278251737356186
1772525839570101000,2.34510107421875,-0.0006396779790520668,-0.014558808878064156,0.0020076860673725605
1772525839580084000,2.355083984375,0.007640888914465904,-0.03154311701655388,-0.001684520859271288
1772525839590067200,2.365067138671875,0.005881044082343578,-0.029331689700484276,-0.0059136757627129555
1772525839600051200,2.37505126953125,0.004240004345774651,-0.03192800655961037,-0.011465301737189293
1772525839610034000,2.385033935546875,-0.007401816546916962,-0.03231455013155937,-0.020025301724672318
1772525839620017200,2.39501708984375,-0.014582497999072075,-0.021282406523823738,-0.03045557253062725
1772525839630000000,2.405000244140625,-0.01750900410115719,0.0032582140993326902,-0.03882972523570061
1772525839639984000,2.414984130859375,-0.027482008561491966,0.023697176948189735,-0.039537589997053146
1772525839649967000,2.424967041015625,-0.03450978174805641,0.02867767959833145,-0.043906085193157196
1772525839659950000,2.4349501953125,-0.03156272694468498,0.017803460359573364,-0.041910313069820404
1772525839669933000,2.44493310546875,-0.020258396863937378,0.011850399896502495,-0.036288488656282425
1772525839679917000,2.4549169921875,-0.011211106553673744,0.003726959228515625,-0.023898666724562645
1772525839689900000,2.464900146484375,0.004421585239470005,0.0035964124836027622,-0.0048980494029819965
1772525839699883300,2.47488330078125,0.020197086036205292,0.010914246551692486,0.012147778645157814
1772525839709867000,2.484866943359375,0.03359003737568855,0.03479255363345146,0.03225250542163849
1772525839719850000,2.49485009765625,0.03496928885579109,0.05235157161951065,0.04132669419050217
1772525839729833200,2.504833251953125,0.037283916026353836,0.05398005247116089,0.03883010521531105
1772525839739816200,2.514816162109375,0.041673604398965836,0.04151406139135361,0.024895112961530685
1772525839749800200,2.52480029296875,0.03252299129962921,0.031156668439507484,0.01013496145606041
1772525839759783000,2.534782958984375,0.022728420794010162,0.015569452196359634,0.0003819335252046585
1772525839769766100,2.54476611328125,0.013645635917782784,0.007945927791297436,-0.0027231695130467415
1772525839779750100,2.554750244140625,0.0008605979382991791,0.01817939057946205,0.0028550876304507256
1772525839789733000,2.564733154296875,-0.007224844302982092,0.04070640727877617,0.011582787148654461
1772525839799716000,2.574716064453125,-0.008443241007626057,0.05340835452079773,0.013921841979026794
1772525839809699000,2.584698974609375,-0.002284199930727482,0.05589506775140762,0.004689906258136034
1772525839819683000,2.59468310546875,0.007084001787006855,0.04806351289153099,-0.0020753219723701477
1772525839829666000,2.604666015625,0.0076838294044137,0.032925285398960114,0.0013828473165631294
1772525839839649300,2.614649169921875,0.01072143018245697,0.012307622469961643,-0.0014712628908455372
1772525839849633300,2.62463330078125,0.015311047434806824,-0.003355717519298196,-0.003487400244921446
1772525839859616000,2.634615966796875,0.017781663686037064,-0.004720320925116539,-0.008778834715485573
1772525839869599000,2.644598876953125,0.01253918744623661,-0.010441713966429234,-0.016474198549985886
1772525839879582200,2.654582275390625,0.00940810889005661,-0.022219810634851456,-0.02872180938720703
1772525839889566200,2.664566162109375,0.013020453974604607,-0.004993049427866936,-0.046581804752349854
1772525839899549000,2.674548828125,0.007964708842337132,0.014233375899493694,-0.062049444764852524
1772525839909532200,2.6845322265625,-0.0023823443334549665,0.027294686064124107,-0.0719657763838768
1772525839919516200,2.69451611328125,-0.011599011719226837,0.02267649956047535,-0.07761487364768982
1772525839929499100,2.7044990234375,-0.011036999523639679,0.017070144414901733,-0.08289937674999237
1772525839939482000,2.714482177734375,-0.005799892824143171,0.01625708118081093,-0.07514984160661697
1772525839949465000,2.724465087890625,-0.001226724125444889,-0.004919750150293112,-0.06579963862895966
1772525839959449000,2.734448974609375,0.0074935308657586575,-0.03321876749396324,-0.04988165572285652
1772525839969432000,2.74443212890625,0.015620402060449123,-0.0429307296872139,-0.031078947708010674
1772525839979415300,2.754415283203125,0.016731206327676773,-0.0336778424680233,-0.010887926444411278
1772525839989399300,2.7643994140625,0.01087181642651558,-0.006738751195371151,0.0038440863136202097
1772525839999382000,2.774382080078125,0.007088795304298401,0.014098352752625942,0.010892674326896667
1772525840009365000,2.784364990234375,-0.004537086468189955,0.01251140981912613,0.006494754459708929
1772525840019348200,2.79434814453125,-0.010013610124588013,0.008765673264861107,-0.0018894094973802567
1772525840029332200,2.804332275390625,-0.013771319761872292,0.000673296395689249,-0.007632893975824118
1772525840039315200,2.814315185546875,-0.01162507850676775,0.008309644646942616,-0.011438284069299698
1772525840049298200,2.824298095703125,-0.006221387535333633,0.02235649898648262,-0.010021386668086052
1772525840059282200,2.8342822265625,-0.001220503356307745,0.0365665927529335,-0.0010204347781836987
1772525840069265200,2.84426513671875,0.00005962559953331947,0.04268970713019371,0.011337384581565857
1772525840079248100,2.854248046875,0.004087124485522509,0.04032774642109871,0.02988044172525406
1772525840089231000,2.864231201171875,0.013874433003365993,0.033992547541856766,0.04904065281152725
1772525840099215000,2.874215087890625,0.022267650812864304,0.024734066799283028,0.06094871088862419
1772525840109198000,2.884197998046875,0.02567204460501671,0.017696471884846687,0.061751820147037506
1772525840119181000,2.89418115234375,0.033650077879428864,0.022980183362960815,0.06082344427704811
1772525840129164300,2.904164306640625,0.032188791781663895,0.037178270518779755,0.05656778812408447
1772525840139148000,2.91414794921875,0.02420356683433056,0.046388812363147736,0.041234370321035385
1772525840149131000,2.924131103515625,0.015405910089612007,0.04064932093024254,0.017979322001338005
1772525840159114200,2.9341142578125,0.0033612321130931377,0.036350712180137634,-0.01171279326081276
1772525840169098200,2.94409814453125,-0.005597684532403946,0.038149286061525345,-0.03708302602171898
1772525840179081200,2.954081298828125,-0.013843629509210587,0.04424606263637543,-0.057932380586862564
1772525840189064200,2.964064208984375,-0.021821139380335808,0.031236879527568817,-0.07406063377857208
1772525840199047400,2.97404736328125,-0.025346899405121803,0.011139602400362492,-0.08475375920534134
1772525840209031400,2.984031494140625,-0.020840350538492203,0.009104917757213116,-0.08211434632539749
1772525840219014400,2.994014404296875,-0.012425028719007969,0.012450646609067917,-0.0706598237156868
1772525840228997400,3.003997314453125,-0.011923768557608128,0.0014616745756939054,-0.05311913415789604
1772525840238981000,3.013981201171875,-0.0077663082629442215,-0.0071011874824762344,-0.03600539639592171
1772525840248964400,3.02396435546875,-0.0027117873542010784,-0.012671394273638725,-0.018018582835793495
1772525840258947300,3.033947265625,-0.003742430591955781,-0.01822941191494465,-0.004694256000220776
1772525840268930600,3.0439306640625,0.0021327361464500427,-0.029527707025408745,-0.006398909259587526
1772525840278914600,3.05391455078125,0.0016584275290369987,-0.03816140815615654,-0.014985473826527596
1772525840288897300,3.063897216796875,-0.002027908805757761,-0.0367075614631176,-0.021244779229164124
1772525840298880300,3.07388037109375,-0.008203779347240925,-0.02629540115594864,-0.027448082342743874
1772525840308864300,3.0838642578125,-0.008033070713281631,-0.013728744350373745,-0.03447775915265083
1772525840318847500,3.093847412109375,-0.005806231405586004,0.0044413162395358086,-0.03063182719051838
1772525840328830200,3.103830322265625,-0.006068989634513855,0.00997898168861866,-0.03439679741859436
1772525840338813200,3.113813232421875,-0.007721214555203915,0.009999487549066544,-0.030767446383833885
1772525840348797400,3.12379736328125,-0.009712566621601582,0.00628206692636013,-0.02441646158695221
1772525840358780400,3.133780517578125,-0.009199375286698341,0.0026298081502318382,-0.021091772243380547
1772525840368763400,3.143763427734375,-0.0066260588355362415,-0.006522032432258129,-0.016707349568605423
1772525840378747400,3.153747314453125,-0.0016880258917808533,-0.012412412092089653,-0.018292462453246117
1772525840388730400,3.16373046875,0.009499477222561836,-0.010185057297348976,-0.017243504524230957
1772525840398713300,3.17371337890625,0.02047303318977356,0.018996264785528183,-0.01184181496500969
1772525840408696300,3.1836962890625,0.025093860924243927,0.032230913639068604,-0.007698815315961838
1772525840418680300,3.193680419921875,0.022447211667895317,0.015264714136719704,-0.001827344298362732
1772525840428663300,3.203663330078125,0.017945630475878716,0.005540326237678528,0.008416077122092247
1772525840438646300,3.213646240234375,0.01677277311682701,0.01235642097890377,0.017900925129652023
1772525840448630300,3.22363037109375,0.011101443320512772,0.022035155445337296,0.02654271572828293
1772525840458613500,3.233613525390625,0.005499217193573713,0.0128898611292243,0.028027161955833435
1772525840468596500,3.243596435546875,-0.0007250267080962658,0.0009278946090489626,0.022326869890093803
1772525840478579200,3.2535791015625,0.0015956517308950424,0.0037833359092473984,0.00948484055697918
1772525840488563200,3.263563232421875,0.009760621935129166,0.02044244483113289,-0.001843589823693037
1772525840498546400,3.27354638671875,0.008694558404386044,0.03008495271205902,-0.009446648880839348
1772525840508529400,3.283529296875,0.007853101938962936,0.019982947036623955,-0.016416525468230247
1772525840518513400,3.293513427734375,0.01034156046807766,0.013711202889680862,-0.015607191249728203
1772525840528496400,3.303496337890625,0.010269982740283012,0.00789330992847681,-0.004707962274551392
1772525840538479400,3.313479248046875,0.005867245141416788,-0.0019558584317564964,0.007774273864924908
1772525840548462300,3.32346240234375,0.0033500036224722862,-0.013555716723203659,0.011959884315729141
1772525840558446300,3.3334462890625,0.0023593083024024963,-0.01265823096036911,0.01421345118433237
1772525840568429600,3.3434296875,0.0021066167391836643,-0.008168285712599754,0.008887555450201035
1772525840578412300,3.353412353515625,0.0018339087255299091,-0.01533458661288023,-0.0028069172985851765
1772525840588395300,3.363395263671875,0.0008174977265298367,-0.017600053921341896,-0.015418831259012222
1772525840598379300,3.373379150390625,0.003997046034783125,-0.011774122714996338,-0.027905860915780067
1772525840608362500,3.383362548828125,0.0020100814290344715,-0.005658777896314859,-0.027413364499807358
1772525840618345200,3.39334521484375,0.00018794694915413857,0.004919830709695816,-0.01863904856145382
1772525840628329200,3.4033291015625,-0.00005034031346440315,0.01898658648133278,-0.004890017211437225
1772525840638312400,3.4133125,-0.0035638490226119757,0.022758686915040016,0.009098236449062824
1772525840648295400,3.42329541015625,-0.006861354224383831,0.004458703566342592,0.015695765614509583
1772525840658278400,3.4332783203125,-0.007115419954061508,-0.005985947325825691,0.01623345911502838
1772525840668262100,3.44326220703125,-0.0026897317729890347,-0.010670427232980728,0.008298404514789581
1772525840678245400,3.453245361328125,0.0010922234505414963,-0.013094702735543251,-0.004372915253043175
1772525840688228400,3.463228271484375,0.0014203735627233982,-0.0037452769465744495,-0.013988155871629715
1772525840698212400,3.47321240234375,0.005456394515931606,0.020011451095342636,-0.01967373862862587
1772525840708195300,3.4831953125,0.00619453564286232,0.037486448884010315,-0.021186688914895058
1772525840718178300,3.49317822265625,0.004890119656920433,0.03338811174035072,-0.017546946182847023
1772525840728161300,3.503161376953125,-0.0016543325036764145,0.018068809062242508,-0.009687425568699837
1772525840738145300,3.513145263671875,-0.0045664990320801735,0.012217579409480095,-0.0032905139960348606
1772525840748128500,3.52312841796875,-0.00797756016254425,0.013531867414712906,0.006536765024065971
1772525840758111200,3.533111328125,-0.009434841573238373,0.013548112474381924,0.015107084065675735
1772525840768095200,3.54309521484375,-0.0031423564068973064,0.004877291154116392,0.011992817744612694
1772525840778078200,3.553078125,0.0067379712127149105,-0.014838889241218567,0.009994648396968842
1772525840788061400,3.5630615234375,0.011852720752358437,-0.03083684667944908,0.011036726646125317
1772525840798044400,3.57304443359375,0.009244687855243683,-0.044683683663606644,0.006641978397965431
1772525840808028400,3.5830283203125,0.0062173339538276196,-0.049710944294929504,0.010815585032105446
1772525840818011400,3.593011474609375,-0.0041532814502716064,-0.0433659665286541,0.019159268587827682
1772525840827994400,3.602994384765625,-0.008675582706928253,-0.026651252061128616,0.02912070043385029
1772525840837978400,3.612978271484375,-0.012680976651608944,-0.01036895252764225,0.03635171800851822
1772525840847961300,3.62296142578125,-0.009852297604084015,0.008838419802486897,0.03543200343847275
1772525840857944300,3.6329443359375,-0.003872702131047845,0.01996137760579586,0.02612212672829628
1772525840867927300,3.64292724609375,-0.0007336125709116459,0.02326815575361252,0.01115257479250431
1772525840877911300,3.652911376953125,0.005972759332507849,0.013422981835901737,-0.0002606678754091263
1772525840887894300,3.662894287109375,0.010598255321383476,0.00703002605587244,-0.012889929115772247
1772525840897877500,3.67287744140625,0.00535449106246233,-0.0022867766674607992,-0.013312306255102158
1772525840907861500,3.682861572265625,0.001491905190050602,-0.004900084808468819,-0.009633976966142654
1772525840917844200,3.69284423828125,0.0011084098368883133,0.0068045081570744514,0.002202976029366255
1772525840927827500,3.702827392578125,0.0037216106429696083,0.020118243992328644,0.010887899436056614
1772525840937810400,3.712810546875,0.0022616656497120857,0.029918942600488663,0.016869891434907913
1772525840947794400,3.72279443359375,0.008070573210716248,0.036131493747234344,0.017027631402015686
1772525840957777200,3.732777099609375,0.01085224561393261,0.031160172075033188,0.015039848163723946
1772525840967760400,3.742760498046875,0.005781885702162981,0.023941893130540848,0.007450907491147518
1772525840977744400,3.752744384765625,0.0035570808686316013,0.008256141096353531,-0.00204459298402071
1772525840987727400,3.762727294921875,0.005966552998870611,0.015579251572489738,-0.005733829457312822
1772525840997710600,3.772710693359375,0.006097313482314348,0.031015200540423393,-0.00728512043133378
1772525841007693300,3.782693359375,0.00396296801045537,0.03478488326072693,-0.01157277449965477
1772525841017677300,3.79267724609375,0.00840139202773571,0.01578456163406372,-0.013762425631284714
1772525841027660300,3.802660400390625,0.013742567040026188,0.0022014733403921127,-0.007212661672383547
1772525841037643500,3.8126435546875,0.016629964113235474,-0.0023213732056319714,-0.0022810199297964573
1772525841047627500,3.82262744140625,0.012820672243833542,-0.01726170815527439,0.004409358836710453
1772525841057610200,3.8326103515625,0.005989131983369589,-0.029214773327112198,0.0020889462903141975
1772525841067593200,3.84259326171875,0.003997908439487219,-0.033767253160476685,-0.005242657847702503
1772525841077576400,3.852576416015625,-0.008471811190247536,-0.034784045070409775,-0.015421791933476925
1772525841087560400,3.862560546875,-0.013314863666892052,-0.02942070923745632,-0.02897566556930542
1772525841097543200,3.872543212890625,-0.010991787537932396,-0.025278160348534584,-0.03470971807837486
1772525841107526400,3.8825263671875,-0.008318370208144188,-0.010661393404006958,-0.035973820835351944
1772525841117509400,3.89250927734375,-0.008776167407631874,-0.0032034770119935274,-0.029880773276090622
1772525841127493400,3.902493408203125,-0.006776527501642704,0.002058672718703747,-0.020318862050771713
1772525841137476400,3.912476318359375,0.0003165355883538723,0.006051283795386553,-0.010780749842524529
1772525841147459300,3.922459228515625,0.004583931528031826,0.007332766894251108,-0.008479557931423187
1772525841157443300,3.932443359375,0.012499644421041012,-0.00813726894557476,-0.003445650916546583
1772525841167426300,3.94242626953125,0.018884489312767982,-0.029481684789061546,0.00434004794806242
1772525841177409500,3.952409423828125,0.019900484010577202,-0.028700580820441246,0.014463255181908607
1772525841187392500,3.962392578125,0.024104135110974312,-0.02286205068230629,0.024684220552444458
1772525841197376500,3.97237646484375,0.023707590997219086,-0.011129229329526424,0.03444310650229454
1772525841207359200,3.982359130859375,0.022432010620832443,0.0007841144688427448,0.03723235800862312
1772525841217342500,3.992342529296875,0.015345340594649315,0.015607534907758236,0.03643207997083664
1772525841227326500,4.002326416015625,0.01499607041478157,0.02513633668422699,0.03570327162742615
1772525841237307400,4.012307373046875,0.011788293719291687,0.01863076724112034,0.028360934928059578
1772525841247290400,4.022290283203125,0.011943982914090157,0.015492172911763191,0.02249043621122837
1772525841257274400,4.0322744140625,0.009471237659454346,0.013995210640132427,0.016618432477116585
1772525841267257300,4.04225732421875,0.0079359021037817,0.014777718111872673,0.01254531554877758
1772525841277240600,4.052240478515625,0.0052580940537154675,0.012549983337521553,0.010420911945402622
1772525841287223300,4.062223388671875,0.0030616791918873787,0.014790857210755348,0.0012358049862086773
1772525841297207300,4.072207275390625,0.001232620794326067,0.00775984488427639,-0.007921474054455757
1772525841307190500,4.0821904296875,0.0008310046978294849,0.003093280829489231,-0.010318737477064133
1772525841317173500,4.092173583984375,-0.004094244912266731,-0.003940127324312925,-0.014881264418363571
1772525841327157500,4.102157470703125,-0.009282935410737991,-0.003978239372372627,-0.021280087530612946
1772525841337140200,4.11214013671875,-0.011107999831438065,-0.0021140268072485924,-0.026763271540403366
1772525841347123500,4.12212353515625,-0.0051457989029586315,-0.004511794075369835,-0.025297485291957855
1772525841357106400,4.1321064453125,-0.001528160646557808,-0.007777362130582333,-0.009403209201991558
1772525841367090400,4.14209033203125,0.003928517457097769,-0.005744587630033493,0.015069019980728626
1772525841377073400,4.152073486328125,0.017876291647553444,0.006153883412480354,0.03890085220336914
1772525841387056400,4.162056396484375,0.030103491619229317,0.02030755579471588,0.05069109797477722
1772525841397040400,4.172040283203125,0.044594548642635345,0.035177312791347504,0.045178886502981186
1772525841407023400,4.1820234375,0.04690849408507347,0.051714908331632614,0.028109263628721237
1772525841417006600,4.192006591796875,0.0458216592669487,0.05991717800498009,-0.0024409210309386253
1772525841426989300,4.2019892578125,0.04425627365708351,0.0919412299990654,-0.04109026491641998
1772525841436973300,4.211973388671875,0.04330765828490257,0.1506468802690506,-0.07692256569862366
1772525841446956300,4.221956298828125,0.04201710969209671,0.1933458000421524,-0.11334041506052017
1772525841456939500,4.231939453125,0.03384360298514366,0.2007158398628235,-0.13277189433574677
1772525841466923500,4.241923583984375,0.03238145262002945,0.19251041114330292,-0.13816680014133453
1772525841476906200,4.25190625,0.026452457532286644,0.16945409774780273,-0.12872323393821716
1772525841486889500,4.261889404296875,0.017576610669493675,0.12864430248737335,-0.1077159121632576
1772525841496872400,4.27187255859375,0.015286026522517204,0.09043006598949432,-0.08139242976903915
1772525841506856400,4.2818564453125,0.01164913922548294,0.06555524468421936,-0.04784362018108368
1772525841516839400,4.29183935546875,0.00560988811776042,0.043744754046201706,-0.018110226839780807
1772525841526822400,4.301822509765625,0.004071700386703014,0.02801656723022461,0.01319124922156334
1772525841536806400,4.311806396484375,0.0077729616314172745,0.025992032140493393,0.04026494547724724
1772525841546789400,4.321789306640625,0.013046691194176674,0.04127085953950882,0.05602962523698807
1772525841556772400,4.3317724609375,0.011112436652183533,0.04715831205248833,0.06493177264928818
1772525841566755300,4.34175537109375,0.0024712667800486088,0.044921085238456726,0.06424745172262192
1772525841576739300,4.3517392578125,-0.004812744911760092,0.03694199025630951,0.06096963584423065
1772525841586722300,4.361722412109375,-0.011104900389909744,0.021218307316303253,0.04311494529247284
1772525841596705500,4.37170556640625,-0.020565247163176537,0.009390408173203468,0.027180984616279602
1772525841606689500,4.381689453125,-0.03315597027540207,0.002192795742303133,0.008031852543354034
1772525841616674300,4.39167431640625,-0.03825831785798073,-0.0016221825499087572,-0.014985315501689911
1772525841626657500,4.401657470703125,-0.034832458943128586,0.0010942916851490736,-0.036444276571273804
1772525841636640300,4.41164013671875,-0.028686683624982834,0.0027798062656074762,-0.05410023778676987
1772525841646623500,4.42162353515625,-0.019661732017993927,0.0030719051137566566,-0.060256123542785645
1772525841656607500,4.431607421875,-0.012056808918714523,0.0013826620997861028,-0.06297601014375687
1772525841666590500,4.441590576171875,-0.011611038818955421,-0.013296540826559067,-0.054035138338804245
1772525841676573400,4.451573486328125,-0.01449364423751831,-0.0243393387645483,-0.0356377549469471
1772525841686557200,4.46155712890625,-0.016793634742498398,-0.029787495732307434,-0.025305503979325294
1772525841696540400,4.47154052734375,-0.017848514020442963,-0.033166248351335526,-0.017668357118964195
1772525841706523400,4.4815234375,-0.019873294979333878,-0.034044623374938965,-0.01462455466389656
1772525841716507400,4.49150732421875,-0.01393071562051773,-0.041218116879463196,-0.02436000667512417
1772525841726490600,4.50149072265625,-0.00943551305681467,-0.029657306149601936,-0.038595885038375854
1772525841736473300,4.511473388671875,-0.006631470751017332,-0.01838015206158161,-0.05086400359869003
1772525841746456300,4.521456298828125,-0.0020115463994443417,-0.00019539613276720047,-0.05997248739004135
1772525841756440300,4.5314404296875,0.0005807746201753616,0.003577237715944648,-0.058733850717544556
1772525841766423600,4.541423583984375,-0.0010493891313672066,0.005986860953271389,-0.05473683029413223
1772525841776406300,4.55140625,-0.010022111237049103,0.008717666380107403,-0.04612071067094803
1772525841786390300,4.561390380859375,-0.016219638288021088,-0.005488685332238674,-0.032979387789964676
1772525841796373200,4.571373291015625,-0.019290529191493988,-0.025863731279969215,-0.015272829681634903
1772525841806356500,4.5813564453125,-0.017968131229281425,-0.019931260496377945,0.005003243684768677
1772525841816339500,4.59133935546875,-0.013874853029847145,-0.0033972919918596745,0.023386243730783463
1772525841826323500,4.601323486328125,-0.0019218837842345238,0.014746936969459057,0.03160615265369415
1772525841836306400,4.611306396484375,0.004832425620406866,0.018877500668168068,0.03533804416656494
1772525841846289400,4.621289306640625,0.010516688227653503,0.01888699270784855,0.02915193885564804
1772525841856272400,4.6312724609375,0.0052646673284471035,0.029029909521341324,0.01891155168414116
1772525841866256400,4.64125634765625,0.00021951133385300636,0.03361061215400696,0.008332742378115654
1772525841876239400,4.6512392578125,-0.0049611362628638744,0.03289635106921196,-0.005823556333780289
1772525841886222300,4.661222412109375,-0.016067177057266235,0.027434101328253746,-0.01735951192677021
1772525841896206300,4.671206298828125,-0.019728757441043854,0.03142298385500908,-0.02686593309044838
1772525841906189600,4.681189453125,-0.019567424431443214,0.035350050777196884,-0.03408899903297424
1772525841916172500,4.691172607421875,-0.011602441780269146,0.03524965047836304,-0.04008191078901291
1772525841926155300,4.7011552734375,-0.01133053284138441,0.028564315289258957,-0.04314348101615906
1772525841936139300,4.71113916015625,-0.008844738826155663,0.022554360330104828,-0.046081747859716415
1772525841946122500,4.72112255859375,-0.015514334663748741,0.01641825959086418,-0.04424148052930832
1772525841956105500,4.73110546875,-0.021174617111682892,-0.0017769888509064913,-0.04260150343179703
1772525841966089500,4.74108935546875,-0.03126221522688866,-0.013154665008187294,-0.03154599294066429
1772525841976072200,4.751072265625,-0.035233788192272186,-0.018412809818983078,-0.024942155927419662
1772525841986055400,4.761055419921875,-0.03706827759742737,-0.023326782509684563,-0.018200229853391647
1772525841996038400,4.771038330078125,-0.02715279720723629,-0.01898636296391487,-0.014859560877084732
1772525842006022400,4.7810224609375,-0.02039288729429245,-0.011358516290783882,-0.015594396740198135
1772525842016005400,4.79100537109375,-0.01931057870388031,-0.0026547734159976244,-0.01796993613243103
1772525842025988400,4.80098828125,-0.017118221148848534,-0.009990058839321136,-0.019551696255803108
1772525842035972400,4.810972412109375,-0.015599420294165611,-0.02330240234732628,-0.0215501319617033
1772525842045955300,4.820955322265625,-0.01825784146785736,-0.037187203764915466,-0.021125711500644684
1772525842055938600,4.8309384765625,-0.01723172515630722,-0.037952862679958344,-0.02249084785580635
1772525842065921300,4.84092138671875,-0.01724199391901493,-0.024587975814938545,-0.018997028470039368
1772525842075905300,4.8509052734375,-0.012933531776070595,-0.0045088049955666065,-0.019769079983234406
1772525842085888500,4.860888427734375,-0.00563902547582984,0.009048347361385822,-0.024930201470851898
1772525842095871500,4.87087158203125,0.007388892117887735,0.004841617774218321,-0.02541782706975937
1772525842105855500,4.88085546875,0.01131652295589447,0.009203342720866203,-0.02835822105407715
1772525842115838200,4.890838134765625,0.01076817698776722,0.005538034252822399,-0.03222540020942688
1772525842125821400,4.900821533203125,0.008898763917386532,-0.0012380133848637342,-0.032572191208601
1772525842135804400,4.910804443359375,0.007165578193962574,0.004417741671204567,-0.030452847480773926
1772525842145788400,4.920788330078125,0.005226339679211378,0.017740430310368538,-0.028458280488848686
1772525842155771400,4.930771484375,0.002000985201448202,0.024324562400579453,-0.02535170502960682
1772525842165754400,4.94075439453125,-0.0002740458585321903,0.018171925097703934,-0.021963009610772133
1772525842175738400,4.95073828125,0.00036830827593803406,0.005004989914596081,-0.024083152413368225
1772525842185721600,4.9607216796875,0.005311368498951197,-0.008897080086171627,-0.025923091918230057
1772525842195704600,4.97070458984375,0.008433658629655838,-0.014901177957654,-0.024890851229429245
1772525842205687800,4.980687744140625,0.0078118848614394665,-0.0062651196494698524,-0.03014408051967621
1772525842215671600,4.990671630859375,0.011030048131942749,0.007128716446459293,-0.0275709331035614
1772525842225654500,5.000654541015625,0.0056428080424666405,0.022744905203580856,-0.02848793938755989
1772525842235637800,5.0106376953125,0.0008829399012029171,0.017335493117570877,-0.034643035382032394
1772525842245621800,5.020621826171875,-0.008364666253328323,0.014198538847267628,-0.03158104047179222
1772525842255604700,5.030604736328125,-0.017887065187096596,0.008420011028647423,-0.03180687874555588
1772525842265587500,5.04058740234375,-0.012738600373268127,0.00230498518794775,-0.04588578641414642
1772525842275570700,5.05057080078125,-0.014710137620568275,0.018363846465945244,-0.053839847445487976
1772525842285554700,5.0605546875,-0.01917879469692707,0.02377910725772381,-0.055516406893730164
1772525842295537700,5.07053759765625,-0.01646396704018116,0.027428969740867615,-0.05260556936264038
1772525842305520600,5.080520751953125,-0.015009859576821327,0.03415098413825035,-0.05131172761321068
1772525842315504600,5.090504638671875,-0.010478225536644459,0.03776782006025314,-0.0468197725713253
1772525842325487600,5.100487548828125,-0.0072896527126431465,0.045131515711545944,-0.05033143237233162
1772525842335470600,5.110470703125,-0.009271044284105301,0.0459672175347805,-0.04737452417612076
1772525842345453800,5.120453857421875,-0.010637770406901836,0.05350770801305771,-0.03991587460041046
1772525842355437800,5.130437744140625,-0.00972856767475605,0.057508572936058044,-0.03473922237753868
1772525842365420500,5.140420654296875,-0.010997957549989223,0.06675028800964355,-0.03191510960459709
1772525842375403500,5.150403564453125,-0.009136408567428589,0.07468331605195999,-0.03574633225798607
1772525842385387800,5.1603876953125,0.011483820155262947,0.10922515392303467,-0.04788548871874809
1772525842395370800,5.170370849609375,0.0319502130150795,0.12584860622882843,-0.05936211347579956
1772525842405353500,5.180353515625,0.039310112595558167,0.13956718146800995,-0.0744919627904892
1772525842415336700,5.190336669921875,0.04307848587632179,0.15388885140419006,-0.09826147556304932
1772525842425320700,5.20032080078125,0.035417668521404266,0.16435746848583221,-0.12346544861793518
1772525842435303700,5.2103037109375,0.02083233743906021,0.17796994745731354,-0.16054090857505798
1772525842445286700,5.22028662109375,0.0023532919585704803,0.1802108883857727,-0.19945959746837616
1772525842455270700,5.230270751953125,-0.02298109233379364,0.18720807135105133,-0.24107256531715393
1772525842465253600,5.240253662109375,-0.04162062704563141,0.19266974925994873,-0.29181209206581116
1772525842475236600,5.250236572265625,-0.051471393555402756,0.18522115051746368,-0.3510333299636841
1772525842485219800,5.2602197265625,-0.049900710582733154,0.15798337757587433,-0.42305806279182434
1772525842495203800,5.270203857421875,-0.04722263664007187,0.11466678977012634,-0.5010881423950195
1772525842505186600,5.2801865234375,-0.0506354384124279,0.07094473391771317,-0.5725533366203308
1772525842515169500,5.29016943359375,-0.06191152706742287,0.020046401768922806,-0.6308414340019226
1772525842525153500,5.300153564453125,-0.08125011622905731,-0.04749017581343651,-0.6601253747940063
1772525842535136800,5.31013671875,-0.08395802974700928,-0.11045049875974655,-0.6574222445487976
1772525842545119700,5.32011962890625,-0.08393248915672302,-0.16474872827529907,-0.623631477355957
1772525842555102500,5.3301025390625,-0.07639068365097046,-0.1705370992422104,-0.5576013326644897
1772525842565086700,5.340086669921875,-0.06515875458717346,-0.15321721136569977,-0.4683886170387268
1772525842575069700,5.350069580078125,-0.060760270804166794,-0.10806597769260406,-0.36045336723327637
1772525842585052700,5.360052734375,-0.07155640423297882,-0.04101447016000748,-0.2512895464897156
1772525842595036700,5.37003662109375,-0.09380365163087845,0.01818173937499523,-0.1524745523929596
1772525842605019600,5.38001953125,-0.11244682222604752,0.05311223864555359,-0.07722587138414383
1772525842615002600,5.390002685546875,-0.10414335131645203,0.05100914090871811,-0.02444920316338539
1772525842624985600,5.399985595703125,-0.08821602165699005,0.026502396911382675,0.004583325237035751
1772525842634969600,5.409969482421875,-0.0685563012957573,-0.004468835890293121,0.009697393514215946
1772525842644952600,5.41995263671875,-0.04731050878763199,-0.022573446854948997,-0.0001521725207567215
1772525842654935600,5.429935546875,-0.035851459950208664,-0.03331371024250984,-0.014270122162997723
1772525842664919600,5.43991943359375,-0.030060086399316788,-0.027107693254947662,-0.02958572283387184
1772525842674902800,5.44990283203125,-0.03213495761156082,-0.016675826162099838,-0.04219711944460869
1772525842684885800,5.4598857421875,-0.03463688865303993,-0.011413889937102795,-0.04331156611442566
1772525842694868500,5.469868408203125,-0.038807932287454605,-0.0069307247176766396,-0.0367058590054512
1772525842704852500,5.4798525390625,-0.040697094053030014,-0.006062554195523262,-0.022328998893499374
1772525842714835700,5.489835693359375,-0.035999543964862823,0.011930827051401138,-0.005803551059216261
1772525842724818700,5.499818603515625,-0.032062068581581116,0.04485200718045235,0.010917441919445992
1772525842734802700,5.509802734375,-0.026474224403500557,0.06128903478384018,0.01860944926738739
1772525842744785700,5.51978564453125,-0.023561153560876846,0.04675208032131195,0.027865134179592133
1772525842754768600,5.5297685546875,-0.017787419259548187,0.026242809370160103,0.026983095332980156
1772525842764751600,5.539751708984375,-0.009949887171387672,0.007240971550345421,0.028114955872297287
1772525842774735600,5.549735595703125,-0.0069375853054225445,-0.009532416239380836,0.019965946674346924
1772525842784718800,5.55971875,-0.00186091847717762,-0.011114683002233505,0.01135992631316185
1772525842794701600,5.56970166015625,0.0032145343720912933,-0.011859569698572159,0.002892139833420515
1772525842804685600,5.579685546875,0.009132206439971924,-0.005930319428443909,-0.0019953902810811996
1772525842814668500,5.58966845703125,0.012098433449864388,0.0005361023359000683,-0.002677159383893013
1772525842824651800,5.59965185546875,0.01319381408393383,0.005443437956273556,-0.0007340372540056705
1772525842834634500,5.609634521484375,0.015501443296670914,0.0044005438685417175,-0.0034179710783064365
1772525842844618500,5.619618408203125,0.011369016021490097,-0.009616205468773842,-0.001428856048732996
1772525842854601700,5.629601806640625,0.0037462501786649227,-0.03241286426782608,-0.0020752050913870335
1772525842864584700,5.639584716796875,-0.006099722348153591,-0.04558992013335228,-0.005749036092311144
1772525842874568700,5.649568603515625,-0.00990327075123787,-0.04014182090759277,-0.014025688171386719
1772525842884551700,5.6595517578125,-0.009159844368696213,-0.02299131639301777,-0.032787028700113297
1772525842894534700,5.66953466796875,-0.00402473658323288,-0.010457148775458336,-0.0504365935921669
1772525842904517600,5.679517578125,-0.00040282681584358215,0.005155540071427822,-0.06354745477437973
1772525842914501600,5.689501708984375,0.0037173498421907425,0.02496572956442833,-0.07641105353832245
1772525842924484600,5.699484619140625,0.00020891427993774414,0.026999764144420624,-0.0781685933470726
1772525842934467600,5.709467529296875,0.0015783119015395641,0.02137356996536255,-0.062414925545454025
1772525842944451600,5.71945166015625,0.007066433783620596,0.017941581085324287,-0.04258739575743675
1772525842954434600,5.7294345703125,0.004946823697537184,0.02108677476644516,-0.0144785325974226
1772525842964417800,5.739417724609375,0.007933484390377998,0.024711379781365395,0.012573466636240482
1772525842974400800,5.74940087890625,0.009257076308131218,0.022715073078870773,0.037597328424453735
1772525842984384500,5.759384521484375,0.016082502901554108,0.01710210181772709,0.057582903653383255
1772525842994367500,5.769367431640625,0.015138145536184311,0.019607337191700935,0.07219540327787399
1772525843004350700,5.779350830078125,0.011453033424913883,0.04482172802090645,0.07837692648172379
1772525843014334700,5.789334716796875,0.008174949325621128,0.08518432825803757,0.06758686155080795
1772525843024317700,5.799317626953125,0.011357638984918594,0.11283989250659943,0.05027121305465698
1772525843034300700,5.80930078125,0.02077724039554596,0.11468973010778427,0.02354532852768898
1772525843044283600,5.81928369140625,0.031116526573896408,0.09840331971645355,-0.004033364821225405
1772525843054267600,5.829267578125,0.03262786939740181,0.06631329655647278,-0.029125401750206947
1772525843064250600,5.839250732421875,0.0256277397274971,0.03617066890001297,-0.05720379948616028
1772525843074233600,5.849233642578125,0.015537554398179054,0.01546219177544117,-0.08097277581691742
1772525843084217600,5.859217529296875,0.009649956598877907,0.006142426282167435,-0.10404989123344421
1772525843094200600,5.86920068359375,-0.0005877665244042873,0.018477655947208405,-0.12250879406929016
1772525843104183600,5.87918359375,-0.008161455392837524,0.038652125746011734,-0.13892091810703278
1772525843114166800,5.889166748046875,-0.01060117781162262,0.054904866963624954,-0.14845849573612213
1772525843124150800,5.89915087890625,-0.0029558821115642786,0.04977741837501526,-0.14772330224514008
1772525843134133500,5.909133544921875,0.008662957698106766,0.03942225128412247,-0.12765371799468994
1772525843144116700,5.91911669921875,0.02802179381251335,0.03662249818444252,-0.10402477532625198
1772525843154100700,5.929100830078125,0.04274801164865494,0.03613061085343361,-0.07822300493717194
1772525843164083700,5.939083740234375,0.05173085629940033,0.03690682724118233,-0.050038840621709824
1772525843174066400,5.94906640625,0.05577380210161209,0.013468082062900066,-0.027049366384744644
1772525843184049700,5.959049560546875,0.04706071317195892,-0.011961743235588074,-0.012582823634147644
1772525843194033000,5.969032958984375,0.033834654837846756,-0.03324466198682785,-0.017413532361388206
1772525843204015900,5.979015869140625,0.03070613369345665,-0.0489744171500206,-0.027424441650509834
1772525843213998800,5.988998779296875,0.029661376029253006,-0.05156194418668747,-0.045542191714048386
1772525843223982800,5.99898291015625,0.02846648171544075,-0.04038897901773453,-0.06594527512788773
1772525843233965800,6.0089658203125,0.02364562638103962,-0.01759498193860054,-0.07726531475782394
1772525843243949000,6.018948974609375,0.021872086450457573,0.012113211676478386,-0.08780774474143982
1772525843253931800,6.028931884765625,0.015159321948885918,0.04219015687704086,-0.08858565241098404
1772525843263915800,6.038915771484375,0.009224830195307732,0.06072164699435234,-0.08935564011335373
1772525843273898800,6.048898681640625,0.014618264511227608,0.07122435420751572,-0.0834341049194336
1772525843283882000,6.058882080078125,0.023870106786489487,0.059485871344804764,-0.07919347286224365
1772525843293866000,6.068865966796875,0.03093360923230648,0.036210641264915466,-0.07094433158636093
1772525843303848700,6.0788486328125,0.04135776311159134,0.01854926347732544,-0.0649201050400734
1772525843313831700,6.088831787109375,0.05257447063922882,0.006057439371943474,-0.05516441911458969
1772525843323815000,6.09881494140625,0.05503234267234802,0.001356284599751234,-0.0393432155251503
1772525843333799000,6.108798828125,0.056556202471256256,0.004020777065306902,-0.023781299591064453
1772525843343782000,6.118781982421875,0.05306771770119667,0.017531773075461388,-0.009849170222878456
1772525843353764900,6.128764892578125,0.044426292181015015,0.029853420332074165,-0.003609650768339634
1772525843363747800,6.138747802734375,0.032164961099624634,0.04416348785161972,-0.0043908073566854
1772525843373731800,6.14873193359375,0.022730711847543716,0.05144297331571579,-0.009872391819953918
1772525843383714800,6.15871484375,0.01747395098209381,0.0526997447013855,-0.016300683841109276
1772525843393697800,6.16869775390625,0.019223114475607872,0.043533943593502045,-0.02666650526225567
1772525843403681800,6.178681884765625,0.020701754838228226,0.027834108099341393,-0.035137444734573364
1772525843413664800,6.188664794921875,0.025150831788778305,0.01412468682974577,-0.047781333327293396
1772525843423648000,6.19864794921875,0.026443958282470703,0.000016530975699424744,-0.05122409015893936
1772525843433632000,6.208632080078125,0.028696991503238678,-0.0156649611890316,-0.05186671391129494
1772525843443615000,6.218614990234375,0.019086815416812897,-0.012942084111273289,-0.0457722470164299
1772525843453597700,6.22859765625,0.005765416659414768,-0.005528376437723637,-0.0410776250064373
1772525843463581000,6.238580810546875,0.002024911344051361,0.006837592460215092,-0.03580397367477417
1772525843473565000,6.24856494140625,0.0016797655262053013,0.018395977094769478,-0.03380020707845688
1772525843483548000,6.2585478515625,0.0029032211750745773,0.02388155646622181,-0.03707216680049896
1772525843493530600,6.268530517578125,0.001989491283893585,0.011759912595152855,-0.040815241634845734
1772525843503515000,6.278514892578125,0.0021918700076639652,-0.005937519483268261,-0.04619331285357475
1772525843513497900,6.288497802734375,-0.004077211022377014,-0.01474991999566555,-0.05550824850797653
1772525843523480800,6.298480712890625,-0.008686302229762077,-0.02219919115304947,-0.0657293051481247
1772525843533464000,6.308464111328125,-0.01050550676882267,-0.02641737088561058,-0.07557021826505661
1772525843543448000,6.318447998046875,-0.016356801614165306,-0.011316766031086445,-0.06648427993059158
1772525843553430800,6.3284306640625,-0.02155662328004837,-0.003524888539686799,-0.056455351412296295
1772525843563413800,6.338413818359375,-0.017948169261217117,0.004519198089838028,-0.04228829964995384
1772525843573397000,6.34839697265625,-0.014571546576917171,0.017312757670879364,-0.026460599154233932
1772525843583381000,6.358381103515625,-0.0074843959882855415,0.024576231837272644,-0.00674472888931632
1772525843593363700,6.36836376953125,0.0027852864004671574,0.029831182211637497,0.004919650033116341
1772525843603347000,6.378346923828125,0.008655350655317307,0.033225420862436295,0.016901619732379913
1772525843613331000,6.3883310546875,0.006930953823029995,0.037624698132276535,0.023605860769748688
1772525843623314000,6.39831396484375,0.008345646783709526,0.039610810577869415,0.021858107298612595
1772525843633297000,6.408296875,0.007370130158960819,0.04682505130767822,0.015564259141683578
1772525843643280600,6.41828076171875,0.012608557939529419,0.03497182950377464,0.009363159537315369
1772525843653264000,6.428263916015625,0.013048246502876282,0.01561091560870409,0.002341202460229397
1772525843663246800,6.438246826171875,0.014026127755641937,-0.00017507444135844707,0.0005739661864936352
1772525843673229800,6.448229736328125,0.018897848203778267,-0.005949073471128941,0.001625115517526865
1772525843683213800,6.4582138671875,0.01683434471487999,-0.005156380124390125,0.007528265006840229
1772525843693196800,6.46819677734375,0.012841466814279556,0.002266116440296173,0.006349016912281513
1772525843703179800,6.4781796875,0.013049216940999031,0.011121205985546112,-0.0019301800057291985
1772525843713163000,6.4881630859375,0.017819203436374664,0.026352889835834503,-0.01766386814415455
1772525843723147000,6.49814697265625,0.020126458257436752,0.03616604208946228,-0.02589711733162403
1772525843733129700,6.508129638671875,0.014290140941739082,0.02991666831076145,-0.0313776358962059
1772525843743112700,6.51811279296875,0.011574942618608475,0.010020666755735874,-0.030059996992349625
1772525843753096700,6.5280966796875,0.005872048903256655,-0.007962062023580074,-0.027599770575761795
1772525843763080000,6.538079833984375,0.004526694770902395,-0.025842301547527313,-0.02798926644027233
1772525843773063000,6.54806298828125,0.011486334726214409,-0.04418322443962097,-0.018920402973890305
1772525843783046000,6.5580458984375,0.010022426024079323,-0.03958970308303833,-0.008829185739159584
1772525843793030000,6.56802978515625,0.00243907468393445,-0.022841617465019226,-0.003921512048691511
1772525843803012900,6.578012939453125,0.001455548219382763,0.006311546079814434,-0.0069831619039177895
1772525843812995800,6.587995849609375,0.004431630950421095,0.022514749318361282,-0.013959311880171299
1772525843822979800,6.597979736328125,0.012175485491752625,0.01687857322394848,-0.023757360875606537
1772525843832962800,6.607962890625,0.01912526972591877,-0.007080289535224438,-0.03074575960636139
1772525843842945800,6.61794580078125,0.02363421395421028,-0.0340898297727108,-0.027163060382008553
1772525843852928800,6.6279287109375,0.020933769643306732,-0.0485215000808239,-0.017734404653310776
1772525843862912800,6.637912841796875,0.01568549871444702,-0.04511565342545509,-0.006845992524176836
1772525843872896000,6.64789599609375,0.012361607514321804,-0.025162983685731888,0.01101209968328476
1772525843882878700,6.657878662109375,0.004742443095892668,-0.0027896121609956026,0.024148738011717796
1772525843892862700,6.66786279296875,-0.0066742622293531895,0.012530754320323467,0.03624881058931351
1772525843902846000,6.677845947265625,-0.017340701073408127,0.02666790969669819,0.04359545186161995
1772525843912829000,6.687828857421875,-0.017881589010357857,0.03309305012226105,0.03818603605031967
1772525843922811600,6.697811767578125,-0.012292038649320602,0.013784932903945446,0.0232231505215168
1772525843932795600,6.707795654296875,-0.00893485825508833,-0.010606160387396812,0.0046481359750032425
1772525843942779000,6.71777880859375,0.0012479708530008793,-0.02373538352549076,-0.00877974834293127
1772525843952761900,6.727761962890625,0.010416435077786446,-0.011892040260136127,-0.021280627697706223
1772525843962745900,6.737745849609375,0.014011213555932045,0.001265429425984621,-0.028334112837910652
1772525843972729000,6.74772900390625,0.013107070699334145,0.009167561307549477,-0.026553792878985405
1772525843982711800,6.7577119140625,0.013209845870733261,0.014705143868923187,-0.01680057868361473
1772525843992694800,6.76769482421875,0.008114153519272804,0.02013852447271347,-0.00499771349132061
1772525844002678800,6.7776787109375,0.003933843690901995,0.02900794707238674,0.008147159591317177
1772525844012662000,6.787662109375,-0.004273485857993364,0.027120565995573997,0.013991733081638813
1772525844022644700,6.797644775390625,-0.00942861009389162,0.011845997534692287,0.017337080091238022
1772525844032628700,6.807628662109375,-0.00632762536406517,-0.005571874789893627,0.014755144715309143
1772525844042611700,6.81761181640625,0.0016357949934899807,-0.021080799400806427,0.012925198301672935
1772525844052595000,6.827594970703125,0.008280115202069283,-0.025040119886398315,0.013440785929560661
1772525844062578000,6.837577880859375,0.0073798042722046375,-0.018465939909219742,0.0075287120416760445
1772525844072561700,6.847561767578125,0.0057608685456216335,0.0011748725082725286,-0.0009902073070406914
1772525844082545000,6.857544921875,0.008755081333220005,0.025864169001579285,-0.009928228333592415
1772525844092527900,6.86752783203125,0.011866718530654907,0.03635329380631447,-0.015932058915495872
1772525844102511900,6.877511962890625,0.01469762809574604,0.032708656042814255,-0.021023986861109734
1772525844112494800,6.887494873046875,0.006949426140636206,0.016410643234848976,-0.024512993171811104
1772525844122477800,6.897477783203125,0.008613305166363716,-0.00016518961638212204,-0.024952391162514687
1772525844132460800,6.907460693359375,0.006777321919798851,-0.020676057785749435,-0.016223346814513206
1772525844142444800,6.91744482421875,0.002466455101966858,-0.02988767996430397,-0.007231120485812426
1772525844152428000,6.927427978515625,-0.0008012433536350727,-0.02813425287604332,-0.001456055324524641
1772525844162410800,6.93741064453125,0.004992791451513767,-0.016545196995139122,0.004715799819678068
1772525844172394800,6.947394775390625,0.005692670121788979,-0.009269972331821918,0.0027290815487504005
1772525844182377700,6.957377685546875,0.005694693420082331,-0.0013569854199886322,-0.005522808525711298
1772525844192361700,6.96736181640625,0.006600700784474611,0.0013916633324697614,-0.0149029940366745
1772525844202344700,6.9773447265625,0.0035705985501408577,0.004991848487406969,-0.02539222687482834
1772525844212328700,6.98732861328125,0.0034678010269999504,0.0003965639043599367,-0.037640105932950974
1772525844222311700,6.997311767578125,0.002884435001760721,-0.005301646888256073,-0.041699983179569244
1772525844232295000,7.007294921875,0.0031685945577919483,-0.002045133849605918,-0.03910793364048004
1772525844242279000,7.01727880859375,0.004136797972023487,0.004979505203664303,-0.024102041497826576
1772525844252261600,7.02726171875,-0.00016473978757858276,0.010872548446059227,-0.005033808760344982
1772525844262244600,7.03724462890625,-0.0040063075721263885,0.009132827632129192,0.012227630242705345
1772525844272227800,7.047227783203125,-0.007519283331930637,-0.00013470673002302647,0.031669773161411285
1772525844282211800,7.0572119140625,-0.006848571356385946,0.000643192557618022,0.03808203339576721
1772525844292194800,7.06719482421875,-0.006423796992748976,0.007597505114972591,0.04011482372879982
1772525844302177800,7.077177734375,-0.002297420287504792,0.012382099404931068,0.03489675000309944
1772525844312161800,7.087161865234375,-0.003924611955881119,0.016268450766801834,0.021189192309975624
1772525844322144800,7.097144775390625,-0.0040558637119829655,0.01551862619817257,0.006376851815730333
1772525844332127700,7.107127685546875,-0.003557319985702634,0.00945008173584938,-0.010496403090655804
1772525844342110700,7.11711083984375,-0.0052880956791341305,0.002283958252519369,-0.026860050857067108
1772525844352094700,7.1270947265625,-0.005656144581735134,0.006373242009431124,-0.039787568151950836
1772525844362077700,7.13707763671875,0.001031381543725729,0.004225184675306082,-0.0469600148499012
1772525844372060700,7.147060791015625,0.003628496080636978,0.0077647920697927475,-0.04281054437160492
1772525844382044700,7.157044677734375,0.005667220801115036,0.01086626946926117,-0.030088234692811966
1772525844392027600,7.167027587890625,0.0006429008208215237,0.01616223156452179,-0.016734875738620758
1772525844402010600,7.1770107421875,0.0010768589563667774,0.0069894976913928986,0.0022701374255120754
1772525844411993900,7.186993896484375,-0.0028164160903543234,-0.009443804621696472,0.015085535123944283
1772525844421977900,7.196977783203125,-0.002160274889320135,-0.019936971366405487,0.027488160878419876
1772525844431960800,7.2069609375,-0.0017163259908556938,-0.023103203624486923,0.03152524679899216
1772525844441943600,7.216943603515625,-0.00362206669524312,-0.01147713977843523,0.030100058764219284
1772525844451927600,7.226927490234375,-0.005451391916722059,0.0008322570938616991,0.023241087794303894
1772525844461910800,7.236910888671875,0.0008076010271906853,0.00811876729130745,0.011253898963332176
1772525844471893800,7.246893798828125,0.003805255051702261,0.009861540049314499,0.004772829823195934
1772525844481876700,7.256876708984375,0.008342482149600983,0.005659870803356171,-0.008824205957353115
1772525844491860700,7.26686083984375,0.013664010912179947,-0.009944921359419823,-0.02206331118941307
1772525844501843700,7.27684375,0.0217292457818985,-0.016733769327402115,-0.03260168805718422
1772525844511826700,7.28682666015625,0.02497910149395466,-0.01825869455933571,-0.036431845277547836
1772525844521810700,7.296810791015625,0.0206393301486969,-0.02149701677262783,-0.032231226563453674
1772525844531794000,7.3067939453125,0.015575329773128033,-0.02083868347108364,-0.019827287644147873
1772525844541776600,7.316776611328125,0.008602684363722801,-0.005330171901732683,-0.006590687669813633
1772525844551759600,7.326759521484375,0.007898811250925064,0.006894003599882126,0.0024709845893085003
1772525844561743600,7.33674365234375,0.0027390001341700554,0.007981306873261929,0.009437480010092258
1772525844571726800,7.346726806640625,0.000014586839824914932,0.005453168414533138,0.011841515079140663
1772525844581709600,7.35670947265625,-0.00038145761936903,-0.004987856838852167,0.01251586340367794
1772525844591693600,7.366693603515625,0.00046729203313589096,-0.02124405838549137,0.010777351446449757
1772525844601676800,7.3766767578125,0.009688198566436768,-0.01642286591231823,0.020423775538802147
1772525844611659800,7.38665966796875,0.020913954824209213,0.001966527197510004,0.030203966423869133
1772525844621642800,7.396642822265625,0.02418447844684124,0.023666173219680786,0.03518052399158478
1772525844631626800,7.406626708984375,0.023087255656719208,0.029023651033639908,0.0377052016556263
1772525844641609700,7.416609619140625,0.023795614019036293,0.012894891202449799,0.031239686533808708
1772525844651592700,7.4265927734375,0.012727515771985054,-0.0034704997669905424,0.021300770342350006
1772525844661576700,7.43657666015625,0.0032992223277688026,-0.012504054233431816,0.008487973362207413
1772525844671560000,7.446559814453125,-0.01013935450464487,-0.01637256145477295,-0.0034768101759254932
1772525844681542700,7.456542724609375,-0.01774703338742256,-0.011213214136660099,-0.006453415844589472
1772525844691525600,7.466525634765625,-0.01768471486866474,-0.0033009627368301153,-0.004020351450890303
1772525844701509600,7.476509521484375,-0.010867303237318993,0.004388319328427315,-0.0003825775347650051
1772525844711492900,7.486492919921875,-0.0015470380894839764,0.006079426966607571,0.0026225335896015167
1772525844721475800,7.496475830078125,0.009221602231264114,0.0022004484198987484,0.0002472447231411934
1772525844731459600,7.50645947265625,0.016401750966906548,-0.013809410855174065,0.0011183647438883781
1772525844741442600,7.516442626953125,0.0188532005995512,-0.021104702726006508,0.007627285551279783
1772525844751425800,7.52642578125,0.0147604551166296,-0.027474451810121536,0.010511489585042
1772525844761408800,7.53640869140625,0.010387551039457321,-0.023333072662353516,0.013123725540935993
1772525844771392800,7.546392822265625,0.0068452791310846806,-0.010236977599561214,0.013596968725323677
1772525844781375700,7.556375732421875,0.002546357922255993,-0.0008901022374629974,0.0090258177369833
1772525844791358700,7.566358642578125,-0.009458106942474842,0.005663404706865549,0.00045017246156930923
1772525844801342700,7.5763427734375,-0.02468695677816868,0.00840204581618309,-0.006464662961661816
1772525844811325700,7.58632568359375,-0.03882887586951256,0.005261646583676338,-0.009342209435999393
1772525844821308700,7.59630859375,-0.04777417704463005,0.0023176143877208233,-0.008550336584448814
1772525844831291600,7.606291748046875,-0.04988792911171913,-0.003371430328115821,-0.011439599096775055
1772525844841275600,7.616275634765625,-0.04521873593330383,-0.01688653975725174,-0.014982884749770164
1772525844851259000,7.6262587890625,-0.0360364206135273,-0.03778436779975891,-0.011731164529919624
1772525844861241900,7.636241943359375,-0.03275222331285477,-0.04087354242801666,-0.006003118120133877
1772525844871225900,7.646225830078125,-0.024566197767853737,-0.03822875767946243,0.00006010010838508606
1772525844881208600,7.65620849609375,-0.024864502251148224,-0.013593927957117558,0.007565402891486883
1772525844891191800,7.66619189453125,-0.0200180821120739,0.01388856302946806,0.0135726947337389
1772525844901174800,7.6761748046875,-0.016158374026417732,0.030371220782399178,0.01906745135784149
1772525844911158800,7.68615869140625,-0.005204260814934969,0.029080918058753014,0.01599949039518833
1772525844921141500,7.6961416015625,0.011263810098171234,0.01323008444160223,0.016667168587446213
1772525844931124700,7.706124755859375,0.023917553946375847,-0.0010537803173065186,0.016483675688505173
1772525844941108700,7.716108642578125,0.029391150921583176,-0.009964831173419952,0.0232123751193285
1772525844951091700,7.726091796875,0.024461640045046806,0.005542488768696785,0.024921858683228493
1772525844961075000,7.736074951171875,0.020302539691329002,0.021873140707612038,0.031030720099806786
1772525844971057700,7.7460576171875,0.02571621537208557,0.020939435809850693,0.03855974227190018
1772525844981041700,7.756041748046875,0.031173624098300934,0.029459848999977112,0.0436067208647728
1772525844991024600,7.766024658203125,0.030316084623336792,0.022135891020298004,0.04853516444563866
1772525845001007900,7.7760078125,0.03070748783648014,0.016096122562885284,0.04922300949692726
1772525845010991900,7.785991943359375,0.040360912680625916,0.007330595050007105,0.04257655888795853
1772525845020974600,7.795974609375,0.042912308126688004,0.0022225193679332733,0.030786488205194473
1772525845030957800,7.805957763671875,0.05022827535867691,0.0021780445240437984,0.021396446973085403
1772525845040940800,7.81594091796875,0.04608329012989998,0.006160527002066374,0.008285855874419212
1772525845050924800,7.8259248046875,0.0402698740363121,0.015065072104334831,-0.0012501245364546776
1772525845060907800,7.83590771484375,0.0310383178293705,0.008358782157301903,-0.014191720634698868
1772525845070890800,7.845890869140625,0.0205201618373394,-0.0014059648383408785,-0.024580447003245354
1772525845080874800,7.855874755859375,0.014642316848039627,-0.018760409206151962,-0.038188543170690536
1772525845090857700,7.865857666015625,0.007250448223203421,-0.03583206981420517,-0.03975421562790871
1772525845100840700,7.8758408203125,0.007725971285253763,-0.034927476197481155,-0.04251459985971451
1772525845110823700,7.88582373046875,0.00967380777001381,-0.02762375958263874,-0.04278198257088661
1772525845120807700,7.8958076171875,0.011899612843990326,-0.011882135644555092,-0.0426487922668457
1772525845130790700,7.905790771484375,0.006445193663239479,0.0015039773425087333,-0.0415012389421463
1772525845140774000,7.91577392578125,0.011608881875872612,0.0008735917508602142,-0.03920767456293106
1772525845150756900,7.9257568359375,0.006184288766235113,-0.0071965851821005344,-0.027125177904963493
1772525845160740600,7.93574072265625,0.004623346030712128,-0.02047649398446083,-0.009841764345765114
1772525845170723600,7.9457236328125,-0.005893476773053408,-0.02829207293689251,0.007597945164889097
1772525845180706800,7.955706787109375,-0.014890465885400772,-0.02781999297440052,0.027035854756832123
1772525845190690300,7.965690185546875,-0.01741194725036621,-0.013937998563051224,0.03853272274136543
1772525845200673300,7.97567333984375,-0.019406642764806747,-0.0016705107409507036,0.043692488223314285
1772525845210656300,7.98565625,-0.01833392307162285,0.006073429249227047,0.04151215776801109
1772525845220639200,7.99563916015625,-0.012681758031249046,0.02287479303777218,0.03416352719068527
1772525845230623200,8.005623291015626,-0.005546882748603821,0.021344540640711784,0.018939832225441933
1772525845240604200,8.015604248046875,0.0005554212257266045,0.01908506080508232,0.006585456896573305
1772525845250588200,8.025588134765625,0.00689054885879159,0.019813701510429382,-0.009492047131061554
1772525845260571100,8.035571044921875,0.007889511995017529,0.03021298721432686,-0.015300784260034561
1772525845270554400,8.045554443359375,0.004766423255205154,0.04369311034679413,-0.015388136729598045
1772525845280537000,8.055537109375,-0.005697382614016533,0.050281018018722534,-0.004015521612018347
1772525845290521000,8.06552099609375,-0.013364356942474842,0.0646762028336525,0.0020351801067590714
1772525845300504300,8.07550439453125,-0.01509991753846407,0.054571181535720825,0.0077948421239852905
1772525845310487300,8.0854873046875,-0.0002573220990598202,0.0343649759888649,0.013187211006879807
1772525845320471300,8.09547119140625,0.009128913283348083,0.023076411336660385,0.014808952808380127
1772525845330454000,8.1054541015625,0.015137538313865662,0.022277463227510452,0.015836399048566818
1772525845340437200,8.115437255859375,0.015035517513751984,0.02389126643538475,0.013650164008140564
1772525845350420200,8.125420166015624,0.016132473945617676,0.023247579112648964,0.008614925667643547
1772525845360404200,8.135404296875,0.018343698233366013,0.0187203511595726,-0.0012121731415390968
1772525845370387200,8.14538720703125,0.0308496356010437,0.014105891808867455,-0.017524566501379013
1772525845380370200,8.1553701171875,0.022767730057239532,0.014693478122353554,-0.02594243735074997
1772525845390354200,8.165354248046874,0.013942279852926731,0.023722393438220024,-0.028553932905197144
1772525845400337200,8.175337158203124,0.009784052148461342,0.04734047129750252,-0.03217719867825508
1772525845410320400,8.1853203125,0.007824763655662537,0.07075871527194977,-0.032625939697027206
1772525845420303400,8.195303466796876,0.01964985951781273,0.10290424525737762,-0.03712594136595726
1772525845430287000,8.205287109375,0.0252547487616539,0.12004754692316055,-0.040039706975221634
1772525845440270000,8.21527001953125,0.03551395609974861,0.12083292007446289,-0.05399791896343231
1772525845450253300,8.22525341796875,0.048597268760204315,0.1376209557056427,-0.07647020369768143
1772525845460236300,8.235236328125,0.06428294628858566,0.1722111999988556,-0.05548727884888649
1772525845470220300,8.24522021484375,0.039984799921512604,0.18185903131961823,0.011849681846797466
1772525845480203300,8.255203369140625,0.010680856183171272,0.11072564870119095,0.054198719561100006
1772525845490186200,8.265186279296875,0.01897953264415264,-0.014825348742306232,0.058889877051115036
1772525845500170200,8.275170166015625,0.02883690409362316,-0.09414150565862656,0.03407716006040573
1772525845510153200,8.2851533203125,0.012326635420322418,-0.09532954543828964,-0.023678813129663467
1772525845520136200,8.29513623046875,-0.011422881856560707,-0.052072152495384216,-0.0968264490365982
1772525845530119200,8.305119140625,-0.010846307501196861,0.04082556441426277,-0.14320778846740723
1772525845540103200,8.315103271484375,-0.012539910152554512,0.1409502923488617,-0.16064505279064178
