time,seconds_elapsed,z,y,x
1772526382565177300,0.08217724609375,-0.4465396524071693,-0.1343846511788666,0.11106639249883592
1772526382575160600,0.09216064453125,-0.36162849557995796,-0.10209975364580749,0.050991716894879933
1772526382585142300,0.102142333984375,-0.22371698544919488,-0.08466858024299144,0.09999730147384106
1772526382595124500,0.11212451171875,-0.09116086487174034,-0.033553894555568696,0.13199936347752808
1772526382605106400,0.1221064453125,0.026515081959962845,0.009359802889078854,0.15933007266931234
1772526382615089400,0.13208935546875,0.12426526209414004,0.025222996322810647,0.18297244873717425
1772526382625071600,0.142071533203125,0.16769056232273577,-0.005758125135302544,0.18060016664788126
1772526382635053300,0.15205322265625,0.15929799703061578,-0.019191753334552048,0.12028886927645653
1772526382645035500,0.162035400390625,0.09428045819699764,-0.052827627085149285,0.03861212779320776
1772526382655017500,0.172017578125,0.07043021153211593,-0.0826167622797191,-0.003192074039578438
1772526382665000400,0.18200048828125,0.08453998542726039,-0.09616115737706422,-0.007958009799756109
1772526382674982400,0.191982421875,0.06797755768299102,-0.10850596742630005,-0.010714797694608568
1772526382684964400,0.20196435546875,0.087267364564538,-0.08507628426104784,-0.04146444848440587
1772526382694946600,0.211946533203125,0.11524842742383479,-0.07566212083622813,-0.0691499624632299
1772526382704928500,0.221928466796875,0.1639250723093748,-0.06732698481976986,-0.07684314731433987
1772526382714911500,0.231911376953125,0.1915799719542265,-0.08976999503523111,-0.055118660631775854
1772526382724893400,0.2418935546875,0.2202525242090225,-0.09653539751693606,-0.06531980971582234
1772526382734875400,0.25187548828125,0.21064707599580287,-0.07669087936207651,-0.10726159338839351
1772526382744857300,0.261857421875,0.15649170743823052,-0.0803754130937159,-0.12038637483417987
1772526382754840300,0.27184033203125,0.07238952890634537,-0.07468859962895512,-0.17786876892261205
1772526382764822500,0.281822509765625,0.03861994577348232,-0.047213294334709645,-0.22095015108436344
1772526382774804500,0.291804443359375,0.11418342854082583,-0.008947276565432549,-0.19816526862867176
1772526382784786400,0.301786376953125,0.19440379720330236,0.0331833076775074,-0.14280936517491935
1772526382794768400,0.311768310546875,0.2687397840023041,0.08036547622159122,-0.06647540949173271
1772526382804751400,0.32175146484375,0.3208160081982612,0.14826850736364722,-0.02917779836319387
1772526382814733600,0.331733642578125,0.30736674403846265,0.1799434563048184,0.042406368977017696
1772526382824715300,0.34171533203125,0.2771598218232393,0.20746245461031793,0.06641191580146551
1772526382834697500,0.351697509765625,0.25550737746357916,0.2633786953605711,0.0020402371233329175
1772526382844680200,0.36168017578125,0.23663784182071684,0.25803002780899403,-0.026720066480152307
1772526382854662400,0.371662353515625,0.26117197909653184,0.20238573586791753,-0.04184416851699352
1772526382864644600,0.38164453125,0.27753683844208715,0.17342676788717507,-0.05136270563174039
1772526382874626300,0.391626220703125,0.3216489518910646,0.15024915978685022,-0.07933054368328303
1772526382884608500,0.4016083984375,0.3442798858940601,0.10031257796809076,-0.07581756712626665
1772526382894591200,0.41159130859375,0.37379414967000485,0.05265738508477807,-0.0987701708316803
1772526382904573400,0.421573486328125,0.3693862700998783,0.01744140253588557,-0.11451105305999516
1772526382914555400,0.431555419921875,0.373545727866888,-0.02421981062963605,-0.12198686883337795
1772526382924537300,0.441537353515625,0.3219365366607904,-0.08452405720576643,-0.08735080506429076
1772526382934520600,0.4515205078125,0.28015725007355213,-0.08844970621690154,-0.07471914089769124
1772526382944502300,0.461502197265625,0.19205752633810041,-0.09119827427268028,-0.05665262873340398
1772526382954484500,0.471484375,0.1172264494985342,-0.06201777249574661,-0.07767086684275418
1772526382964466400,0.481466552734375,0.056501639422774315,-0.04462970758229494,-0.0977494860144332
1772526382974448400,0.491448486328125,0.012459084078669547,-0.04533259515464306,-0.11735044120438397
1772526382984431600,0.501431640625,-0.012925532546639442,-0.06406827528476715,-0.10640702238567173
1772526382994413300,0.511413330078125,-0.011499299135804176,-0.09316928208470344,-0.11577387607004493
1772526383004395500,0.5213955078125,0.02871463783085346,-0.12462372014299035,-0.118926312218979
1772526383014377500,0.53137744140625,0.05889584108293056,-0.14616262112557887,-0.08516374334879219
1772526383024359400,0.541359375,0.04014788599312305,-0.16130013063326476,-0.033772761470638214
1772526383034342400,0.55134228515625,-0.04009469450116157,-0.14366115969866514,-0.006634688774123787
1772526383044324400,0.561324462890625,-0.11874328380227088,-0.09160524763837456,-0.01942994600459933
1772526383054306600,0.571306640625,-0.16347265236675737,-0.07397796714156865,-0.06473236521668732
1772526383064288300,0.581288330078125,-0.19579963547587392,-0.09748539171814918,-0.0660129065465182
1772526383074271500,0.591271484375,-0.1648228979319334,-0.105594756154716,-0.07359514183644204
1772526383084253200,0.601253173828125,-0.09370587317943573,-0.11280717175155877,-0.08423650896865874
1772526383094235400,0.6112353515625,-0.020669863063097,-0.08689502412080764,-0.08075374488681554
1772526383104217600,0.621217529296875,0.026892683100700376,-0.06801423643156886,-0.054253568235039705
1772526383114199300,0.63119921875,0.06760638628304004,-0.060225628381967544,-0.001531958807632327
1772526383124182500,0.6411826171875,0.05183832378685474,-0.020247692128270864,0.030438100622594354
1772526383134164200,0.651164306640625,0.007784662526845932,0.017502485073357818,0.000037409400939941404
1772526383144146400,0.661146484375,-0.04289747696220875,0.046042789250612254,-0.014190657111629843
1772526383154128400,0.67112841796875,-0.09552081364691258,0.03611249299719929,-0.011608385533466934
1772526383164110000,0.681110107421875,-0.11857143436670303,0.016335633251070975,-0.013094349774904548
1772526383174093300,0.69109326171875,-0.09921791459918021,-0.006129588796198368,-0.017231413047015667
1772526383184075000,0.701074951171875,-0.04498246654272079,0.0069591714881360525,-0.009377850002422928
1772526383194057200,0.71105712890625,0.024310849913954734,0.016482786636799574,0.019189159518666565
1772526383204039200,0.7210390625,0.09440086970627308,0.034963907483965155,0.02470649816803634
1772526383214022100,0.731022216796875,0.14895546671450138,0.03701280283778906,0.01816642887480557
1772526383224004400,0.74100439453125,0.1439256558537483,0.0016746552139520643,0.03498590012006461
1772526383233986000,0.750986083984375,0.11746785703897475,-0.013678104479610919,0.044963031189888716
1772526383243968300,0.76096826171875,0.10057517442703247,-0.0030431670881807802,0.03932345440033823
1772526383253950200,0.7709501953125,0.09014613487124443,0.023766075512766837,0.03843129133358598
1772526383263933200,0.78093310546875,0.053795887595415114,-0.004026040645688772,0.054525480511598286
1772526383273915400,0.790915283203125,0.05254267266392708,-0.01406710379719734,0.04858918579779565
1772526383283897000,0.80089697265625,0.08225859649181365,0.010284516518563032,-0.0023440058428794144
1772526383293879300,0.81087939453125,0.10260171181857586,0.007423135738074779,-0.03009896832872182
1772526383303861200,0.820861328125,0.11649053643941878,-0.027459084811806676,-0.022796207567304373
1772526383313844200,0.83084423828125,0.1158148291349411,-0.026761896327883002,-0.036441030831821264
1772526383323826400,0.840826416015625,0.09302432065606117,-0.006559504646062851,-0.03822104611638933
1772526383333808000,0.85080810546875,0.0014876082092523575,-0.0322517259158194,0.02219199459645897
1772526383343790300,0.860790283203125,-0.09328735550642013,-0.0034951486393809315,0.051662090437114234
1772526383353773000,0.87077294921875,-0.13399345990419387,0.06928323345407843,0.02905534102730453
1772526383363755300,0.88075537109375,-0.142135849827528,0.08851327297240495,0.027920966702513397
1772526383373737200,0.8907373046875,-0.1084293950587511,0.06625424102172255,0.07472509571444243
1772526383383719200,0.90071923828125,-0.05162555781900882,0.051774610900878905,0.07644472258128225
1772526383393701400,0.910701416015625,0.01923427730202675,0.03575593464449048,0.034726007074862716
1772526383403684000,0.92068408203125,0.061469490963220595,0.03141761317923665,0.005902611639909446
1772526383413666300,0.930666259765625,0.08465981241464614,0.0003127192109823227,0.017586911953799425
1772526383423648000,0.94064794921875,0.10724982988536358,-0.01988148916438222,0.029102650767751037
1772526383433630200,0.950630126953125,0.09818915607333183,-0.034970044963806866,0.029217399721220134
1772526383443613200,0.96061328125,0.10912146897614002,-0.019542320337891578,0.007051562479324638
1772526383453595100,0.97059521484375,0.09552256721258164,-0.021599983520060775,-0.018841076733358202
1772526383463577300,0.980577392578125,0.10984861420691013,-0.058883712253719564,-0.031178653324209153
1772526383473559000,0.99055908203125,0.13472528131008146,-0.11749079952314495,-0.03619794279094785
1772526383483541200,1.000541259765625,0.14309505024850366,-0.1379636787094176,-0.037246501995809374
1772526383493524200,1.010524169921875,0.11701368353068828,-0.09846183553487062,-0.06856226223576814
1772526383503506200,1.020506103515625,0.1056061543315649,-0.09999196771159767,-0.05649864374808967
1772526383513488400,1.03048828125,0.05488777448534965,-0.08466273502409458,-0.00868212282322347
1772526383523470000,1.040469970703125,-0.005434300008416175,-0.01748012711107731,-0.0015638517832383513
1772526383533452300,1.050452392578125,-0.07444646143615245,0.04712620057314634,-0.004270224665105343
1772526383543435000,1.06043505859375,-0.11136311042308807,0.0680975308008492,-0.01407817318048328
1772526383553417200,1.070417236328125,-0.1155225681900978,0.05096738617122173,-0.021354374728538093
1772526383563399400,1.0803994140625,-0.11528875943422316,0.013384674490988254,-0.02446962067224085
1772526383573381000,1.090381103515625,-0.07770984714627266,-0.021780308523029087,-0.017798837671428917
1772526383583364400,1.1003642578125,-0.034012159717082976,-0.02866305377408862,-0.0355319531628862
1772526383593346000,1.110345947265625,-0.007620411875844001,-0.049405689812451595,-0.03340495107155293
1772526383603328300,1.120328369140625,-0.012234043151140211,-0.059965662271529434,0.013744557311944662
1772526383613310200,1.130310302734375,-0.02954115178287029,-0.03386237598285079,0.019384426362439987
1772526383623292200,1.140292236328125,-0.05742518400847912,-0.0011357260316610335,-0.010437113264389335
1772526383633275400,1.150275390625,-0.024637597650289535,0.020587737737596035,-0.02600366183910519
1772526383643257000,1.160257080078125,0.015250176101922988,0.014584844060987234,-0.017751381800509988
1772526383653239300,1.1702392578125,0.054691959652304646,0.025099369943141936,-0.022231194095686076
1772526383663221200,1.18022119140625,0.09149462687075137,0.03118073568344116,-0.018869389512389898
1772526383673203200,1.190203125,0.11492810942828655,0.04965747261643409,-0.024427608161419628
1772526383683186200,1.200186279296875,0.10979951436817645,0.06219955880343914,-0.0258504805713892
1772526383693168000,1.210168212890625,0.11659633490145206,0.06280673091635107,-0.027774945827946065
1772526383703150300,1.220150390625,0.13515782750844954,0.06538797958120704,-0.011635711931809782
1772526383713132000,1.230132080078125,0.136980951282382,0.06167378136366605,-0.01825973318144679
1772526383723114200,1.2401142578125,0.16478198139965533,0.06216229553297162,-0.014233729068376123
1772526383733097200,1.25009716796875,0.21441081244349477,0.06367226170450449,-0.0012131386494264006
1772526383743079200,1.2600791015625,0.2601841371029615,0.05201046548336744,-0.0028348580997437237
1772526383753061400,1.270061279296875,0.287274388602376,0.07053966325595974,-0.0125796051857993
1772526383763043000,1.28004296875,0.2786760716050863,0.07824497693628073,-0.030071313136816023
1772526383773026300,1.2900263671875,0.275780350163579,0.0765206373617053,-0.029127018024027347
1772526383783008000,1.300008056640625,0.2799257794052362,0.0768190357863903,-0.002363660391420126
1772526383792990200,1.309990234375,0.2880114707052708,0.07265490184426307,0.04165007071699947
1772526383802972400,1.319972412109375,0.2906079169392586,0.09764613523781299,0.08226053272057324
1772526383812954000,1.3299541015625,0.26496260355114937,0.12867036518529057,0.10655581973921507
1772526383822937300,1.339937255859375,0.21894436421990393,0.1396462249688804,0.09594207126628607
1772526383832919000,1.3499189453125,0.18685235891044139,0.12834201001375914,0.06233995365481823
1772526383842901200,1.3599013671875,0.14862170471549033,0.10243234660103917,0.045321196977794166
1772526383852883200,1.36988330078125,0.11406360155344009,0.09323401788398623,0.03958981371894479
1772526383862865200,1.379865234375,0.08674597103893757,0.08940174624472856,0.04541019043549895
1772526383872848400,1.389848388671875,0.05867664537429809,0.07139175004065036,0.054083107038959854
1772526383882830000,1.399830078125,0.04779986205101013,0.07788695727884769,0.06846647371109575
1772526383892812300,1.409812255859375,0.02950900307893753,0.10025237221345305,0.10133044977374374
1772526383902794200,1.419794189453125,-0.0020049100816249845,0.11807166815102099,0.12687540805991737
1772526383912777200,1.429777099609375,-0.031063246783614155,0.12303016734123229,0.11301515194643288
1772526383922759200,1.43975927734375,-0.065120414686203,0.12195581610798835,0.07878708445634693
1772526383932741000,1.4497412109375,-0.07940145349502563,0.12830971517935394,0.0688827263617888
1772526383942723300,1.459723388671875,-0.08620353472530841,0.09718202485740184,0.07675437305234373
1772526383952705000,1.469705078125,-0.0912450360238552,0.020501666889339683,0.053409262898005544
1772526383962688300,1.479688232421875,-0.07184592354893685,0.001099193413555622,-0.017695048503391445
1772526383972670200,1.489670166015625,-0.06404197179973126,-0.019145576105266807,-0.07768138823676854
1772526383982652200,1.499652099609375,-0.06675064623653888,-0.04537833399251103,-0.057584648886509236
1772526383992634400,1.50963427734375,-0.04646481405496597,-0.04053834661543369,-0.04352872407045215
1772526384002616000,1.519615966796875,-0.02509878542125225,0.002918517795205116,-0.06576996463611721
1772526384012599300,1.529599365234375,0.007301847445964813,0.01392053493335843,-0.07538860112447292
1772526384022581000,1.5395810546875,0.05222118562459945,-0.011495061352103948,-0.09908446094524115
1772526384032563200,1.549563232421875,0.09244622850716114,-0.051449908991158005,-0.10403017371911555
1772526384042545400,1.55954541015625,0.12764964383542537,-0.10846753511205315,-0.09729757752846926
1772526384052528000,1.569528076171875,0.14272563241422176,-0.10995222071185708,-0.12320110346134751
1772526384062510300,1.57951025390625,0.16478665757477282,-0.05981514788493514,-0.13023713957797736
1772526384072492000,1.589491943359375,0.15682254682779312,-0.04108779719173908,-0.12237645267285406
1772526384082474200,1.59947412109375,0.11577391260266304,-0.04307181061580777,-0.08674651902820915
1772526384092456200,1.609456298828125,0.036650691527128215,-0.03902019713744521,-0.08948653845135122
1772526384102439200,1.619439208984375,-0.047096682217717165,-0.052754123457521195,-0.11500621616579591
1772526384112421400,1.62942138671875,-0.10638006131350994,-0.03751622231528163,-0.14248057161197064
1772526384122403000,1.639403076171875,-0.13541618618369103,-0.04929945295900106,-0.1450705515725538
1772526384132385300,1.64938525390625,-0.1479571033269167,-0.0704239279218018,-0.13918408734984694
1772526384142367200,1.6593671875,-0.1476087282806635,-0.07850932696089148,-0.12129947109110653
1772526384152351000,1.66935107421875,-0.14572890588343143,-0.09771730077788233,-0.11243702326491474
1772526384162333000,1.6793330078125,-0.14074001155495644,-0.10736848782896995,-0.10552169091850519
1772526384172315000,1.68931494140625,-0.12687924398481845,-0.10318930244818329,-0.09376527521647512
1772526384182297000,1.699297119140625,-0.08458440909087657,-0.09687383569106459,-0.07945205117110163
1772526384192278800,1.70927880859375,-0.06830605898499488,-0.09172054458111524,-0.06589267770033329
1772526384202262000,1.719261962890625,-0.07434943080246448,-0.09120908792763947,-0.0804037989379838
1772526384212244000,1.729243896484375,-0.0718172819763422,-0.08426306818202138,-0.09281414850410073
1772526384222226000,1.739225830078125,-0.05547697255015373,-0.09447685755193233,-0.12032328300271182
1772526384232208100,1.7492080078125,-0.04890694651007652,-0.09870309694483875,-0.11503189859632403
1772526384242191000,1.759191162109375,-0.03423427803516388,-0.1184409398548305,-0.09567242401205003
1772526384252173000,1.769173095703125,-0.01571194839477539,-0.1334312959767878,-0.0839493260577321
1772526384262155000,1.779155029296875,-0.004155366113781929,-0.12505085951387881,-0.06573332242015749
1772526384272137000,1.789136962890625,0.02878010428249836,-0.09154694157987832,-0.037822621383331714
1772526384282119000,1.799118896484375,0.08129179728627205,-0.0589224368289113,-0.028153058425337076
1772526384292102000,1.809101806640625,0.14960019435882568,-0.009714899937063455,-0.02279788806773722
1772526384302084000,1.819083984375,0.19554361488819122,0.01376329854503274,0.0026778043745085594
1772526384312066000,1.829066162109375,0.23147066831588745,0.02470642510280013,0.03147887837979942
1772526384322048000,1.839048095703125,0.23729893607795238,0.04987053084522485,0.036204664792679246
1772526384332030000,1.849030029296875,0.2260609182268381,0.0862682705245912,0.042338308709487314
1772526384342013000,1.859012939453125,0.2044283476114273,0.10611424998417496,0.04538439840711653
1772526384351995000,1.868994873046875,0.20324644435048103,0.12838117298036814,0.05830836005117744
1772526384361976800,1.878976806640625,0.18485855474472046,0.15953896617963909,0.0753547353874892
1772526384371959000,1.888958984375,0.16934534379243849,0.1884888740710914,0.07788670155052095
1772526384381942000,1.89894189453125,0.16380875245332716,0.20367899054884908,0.11056863557714969
1772526384391924000,1.908924072265625,0.1637631597459316,0.1842512365013361,0.12143946408368646
1772526384401906000,1.918906005859375,0.13910978000462054,0.14467048287168144,0.12207056506145744
1772526384411887900,1.928887939453125,0.10290858581066131,0.10642141623720526,0.1275270038364455
1772526384421870000,1.9388701171875,0.07590776616036891,0.08969283814579247,0.09550375291425735
1772526384431853000,1.94885302734375,0.05556231274604797,0.08500672615617513,0.056056562536396085
1772526384441835000,1.9588349609375,0.019095745614171027,0.05544423932433128,0.03234842775594443
1772526384451817000,1.96881689453125,0.0034907647252082822,0.03467062362581491,0.018549582973495123
1772526384461799000,1.978798828125,0.012269114464521407,0.005728899040818214,0.022990378432534635
1772526384471781000,1.988781005859375,-0.0010410334855318068,-0.014320932427793741,0.02289853543061763
1772526384481764000,1.99876416015625,0.02674304549694061,-0.018361293859779835,-0.0023618337605148553
1772526384491746000,2.00874609375,0.039457565641403194,-0.03026902766600251,0.005316774575971067
1772526384501728000,2.01872802734375,0.0385293448805809,-0.05357596123442054,0.032527437584660944
1772526384511710000,2.0287099609375,0.035134441745281214,-0.062169163665175435,0.024321663568913934
1772526384521692200,2.038692138671875,0.03242810539603233,-0.04092310814931988,-0.020086071825772524
1772526384531675000,2.0486748046875,0.0040951603591442105,-0.03391220647394657,-0.04617445280626416
1772526384541657000,2.058656982421875,-0.0034586160212755203,-0.04657353512644768,-0.04813727731183171
1772526384551639000,2.06863916015625,0.008736848685145378,-0.05363675151094794,-0.03916263781543821
1772526384561621000,2.07862109375,0.015092939713597297,-0.05123626624047756,-0.013167780337296426
1772526384571604000,2.08860400390625,0.010798457390069962,-0.04153773291632533,-0.006637209524773061
1772526384581586000,2.0985859375,-0.00958674351274967,-0.0118457744859159,-0.019321882520243524
1772526384591568000,2.10856787109375,-0.014061843100190163,-0.02792787136733532,-0.02897569991983473
1772526384601549800,2.1185498046875,0.0010614917516708372,-0.04210603432357311,-0.05486103260889649
1772526384611532000,2.128531982421875,0.031100071662664413,-0.06176072899475693,-0.07969159554801881
1772526384621515000,2.138514892578125,0.06441840389668942,-0.07676116811931133,-0.10571611751206218
1772526384631497000,2.1484970703125,0.07832067252099513,-0.08008066793084144,-0.0945333735121414
1772526384641479000,2.15847900390625,0.00885083045363426,-0.060943275132030246,-0.13206800826694814
1772526384651460900,2.1684609375,-0.0617699352145195,-0.03268573341891169,-0.10534501917734741
1772526384661443000,2.178443115234375,-0.08574059338867664,0.033228900384902955,-0.11839863508306443
1772526384671426000,2.188426025390625,-0.084147186717391,0.07697349569573998,-0.09293624051380903
1772526384681408000,2.198407958984375,-0.06504501136243343,0.0734206255197525,-0.04758906884454191
1772526384691390000,2.208389892578125,-0.02769464713335037,0.08536986038014292,-0.01169544276241213
1772526384701372000,2.218371826171875,0.02091068608164787,0.06855871857181191,0.007255670216679572
1772526384711354000,2.22835400390625,0.056115854975581164,0.06584668313413858,0.011926073180511592
1772526384721337000,2.238337158203125,0.08264262737333775,0.04553104033619165,0.010176672229915857
1772526384731319000,2.248319091796875,0.09594400749504566,0.040922085236012935,0.006234072083979845
1772526384741301000,2.258301025390625,0.11910685641765593,0.03476809265092015,-0.004983852827176451
1772526384751283000,2.268282958984375,0.12879706030488014,0.01870879212319851,-0.02550919285304844
1772526384761266000,2.278265869140625,0.10273965898454189,0.010002338576316832,-0.045999023174121974
1772526384771247900,2.288247802734375,0.07133212880790234,0.005094400529563427,-0.06808025087248533
1772526384781230000,2.29822998046875,0.041184243303537364,-0.00035188217759132384,-0.07819156624861061
1772526384791211800,2.308211669921875,0.02442074002921581,-0.00127922615557909,-0.08668919935040176
1772526384801194000,2.318194091796875,0.0342418768197298,-0.007173544891178608,-0.06718366735894232
1772526384811177000,2.328177001953125,0.06800210760235786,0.02105783946737647,-0.041538865427486596
1772526384821159000,2.338158935546875,0.10214578474462031,0.04834098319038749,-0.04185578588955104
1772526384831141000,2.34814111328125,0.12154548174142837,0.06122589146569371,-0.028040063037537036
1772526384841122800,2.358122802734375,0.1323673200070858,0.0462706066571176,-0.032490576172992586
1772526384851105000,2.36810498046875,0.11380582740008831,0.03890753054320812,-0.0358330184686929
1772526384861088000,2.378087890625,0.09407470649182796,0.03041457361653447,-0.05393602671846747
1772526384871070000,2.388070068359375,0.0423024336785078,-0.001448152981698513,-0.06293558146040887
1772526384881052000,2.398052001953125,0.0028571429967880245,-0.003171761903911829,-0.06851389304939658
1772526384891033900,2.408033935546875,-0.014338906475901603,0.02315393496379256,-0.08440594725143163
1772526384901016800,2.418016845703125,-0.009394435811042785,0.028395781140029427,-0.0811874966615811
1772526384910999000,2.4279990234375,0.001050970357656479,0.026014438961446285,-0.05747084978111088
1772526384920981000,2.43798095703125,-0.004275777623057365,0.03216872380748391,-0.018165515559352932
1772526384930963000,2.447962890625,-0.029360534518957135,0.0383038655616343,-0.002916106642410159
1772526384940945000,2.45794482421875,-0.0386076708137989,0.038710985057801,-0.002454334349557757
1772526384950928000,2.467927978515625,-0.05162438877522945,0.04148074203208089,-0.014089132965914904
1772526384960909800,2.477909912109375,-0.04627835157215595,0.019117957445979116,-0.033891967403516174
1772526384970892000,2.48789208984375,-0.03046761897802353,0.00021495792493224142,-0.04268810852784663
1772526384980874000,2.4978740234375,-0.0013566753059625625,-0.014465017073601483,-0.05676427241433411
1772526384990856000,2.50785595703125,0.020957447832822797,-0.030885552129149434,-0.06428502330798655
1772526385000839000,2.5178388671875,0.020285247659683227,-0.04328676854074001,-0.0497101526517421
1772526385010820900,2.52782080078125,0.007193126374483108,-0.02895604537129402,-0.04858374243769795
1772526385020803000,2.537802978515625,-0.022072131076455115,-0.008125731049478054,-0.06262830560952425
1772526385030784800,2.54778466796875,-0.04918751701712608,0.007278028178960084,-0.0625192557444796
1772526385040767000,2.55776708984375,-0.054580315971374506,0.009525953236222266,-0.03350906903315335
1772526385050750000,2.56775,-0.03507482051253319,0.013880787444859743,-0.0032466537710279224
1772526385060732000,2.57773193359375,0.006087210959196091,0.02739259544685483,0.03491049679629504
1772526385070714000,2.587714111328125,0.05331950225532055,0.03316884076073766,0.041913726621866224
1772526385080695800,2.59769580078125,0.09835691385567187,0.038935733724385496,0.016552527404762804
1772526385090679000,2.607678955078125,0.13177753742039203,0.01943944448530674,0.006467369383201003
1772526385100661000,2.617660888671875,0.16978607329726217,0.0027618659287691116,0.02318155362308025
1772526385110643000,2.627642822265625,0.17335165682435036,0.008590279821306467,0.06629015258532017
1772526385120625000,2.637625,0.16276538088023662,0.03809942903071642,0.0936327714106068
1772526385130606800,2.64760693359375,0.1530453663766384,0.0652250441044569,0.10249299074709414
1772526385140590000,2.657590087890625,0.10491992563307284,0.06974456735551357,0.1059815635152161
1772526385150571800,2.66757177734375,0.05885317098498344,0.050384471716731785,0.12545538519416002
1772526385160553700,2.6775537109375,0.03455868768393993,0.018593349049985407,0.12420173187125473
1772526385170535700,2.68753564453125,0.032951252487301824,-0.007297463531792164,0.0912922361664474
1772526385180518000,2.697517822265625,0.022176175972819328,-0.006715133599191903,0.06725731711704283
1772526385190500900,2.7075009765625,-0.0017675941944122313,-0.003973287545144558,0.05279372481554746
1772526385200482800,2.71748291015625,-0.04319733669161796,0.013675766392052173,0.049158254390023644
1772526385210464800,2.72746484375,-0.08113982159495353,0.04710486552417278,0.06100300596263259
1772526385220446700,2.73744677734375,-0.0936766470849514,0.06078209322094917,0.05291534190122038
1772526385230428700,2.7474287109375,-0.10084346997439861,0.06328472369164229,0.04853796706721186
1772526385240411600,2.75741162109375,-0.07837211044728755,0.02818710682541132,0.03534457736462354
1772526385250393900,2.767393798828125,-0.054959670677781104,-0.02160480582565069,0.022528679204918443
1772526385260375800,2.777375732421875,-0.020956278789043426,-0.06468582266122103,0.009284326500073074
1772526385270357800,2.787357666015625,0.0005091185659170151,-0.09390928679704666,0.012456161469221114
1772526385280341000,2.797341064453125,0.025490999609231946,-0.0979310896590352,-0.005084536722674966
1772526385290322700,2.80732275390625,0.03856266262829303,-0.08471431908085941,0.010222922524437308
1772526385300305000,2.817304931640625,0.07131926932632923,-0.06505100271180271,0.04145242925304919
1772526385310286800,2.827286865234375,0.10529518868625164,-0.03483706623390317,0.04147449495438486
1772526385320268800,2.837268798828125,0.12424246574044227,-0.015392653312534093,0.024974757182784378
1772526385330251800,2.847251708984375,0.1247246962994337,-0.01063157639056444,0.01603146267272532
1772526385340233700,2.857233642578125,0.10309913994669914,-0.027147096253186464,0.01348948657233268
1772526385350216000,2.8672158203125,0.08951251314282417,-0.04129077241793275,0.02403539397343993
1772526385360198000,2.877197998046875,0.08084697612822056,-0.03618292788490653,0.03478836825396865
1772526385370179800,2.887179931640625,0.0756079064309597,-0.037111587037146086,0.04061981435380876
1772526385380162800,2.897162841796875,0.05975859539210796,-0.0017106033101677894,0.060902979654259976
1772526385390144800,2.907144775390625,0.03601239362359047,0.008573474816977978,0.08036028858982026
1772526385400126700,2.917126708984375,0.005647065976262093,0.03080342680364847,0.10527115022353828
1772526385410109000,2.92710888671875,0.003839139771461487,0.05054682267159223,0.09292290610820055
1772526385420091000,2.9370908203125,0.013678981262445449,0.04849105918556452,0.09413695807307958
1772526385430073900,2.947073974609375,0.037763621205091476,0.018151888892799613,0.09719554192610085
1772526385440055800,2.957055908203125,0.06232055483460426,-0.007393617382645607,0.07722290387954563
1772526385450037800,2.967037841796875,0.10891571727097034,-0.007575695951282977,0.04123323354441672
1772526385460019700,2.977019775390625,0.13528876041173934,-0.016706658520549533,0.03560483573600649
1772526385470001700,2.987001708984375,0.1328945587515831,-0.01970847068503499,0.06576685936357826
1772526385479984600,2.996984619140625,0.10531447790861129,-0.004476414761692285,0.09978062651585787
1772526385489966800,3.006966796875,0.0410609091848135,0.007706190463155508,0.12375618006084113
1772526385499948800,3.01694873046875,-0.004983633631467819,0.019063596910238265,0.13008129142913966
1772526385509930800,3.0269306640625,-0.042213001829385755,0.04434782190099358,0.12836531782411037
1772526385519914000,3.0369140625,-0.01443009189069271,0.04988821263238787,0.10913695880621671
1772526385529895700,3.046895751953125,0.0016167875468730926,0.045587154437601564,0.077808740943484
1772526385539878000,3.0568779296875,0.019542904859781263,0.018308102367818355,0.08942099893447011
1772526385549859800,3.06685986328125,0.023225977286696432,0.0051617666773498055,0.07477393982484937
1772526385559841800,3.076841796875,0.001743044275045395,0.023285598519444464,0.05847140512578189
1772526385569824800,3.08682470703125,-0.011716156756877899,0.03539806111752987,0.056368441497161983
1772526385579806700,3.096806640625,0.010434884774684905,0.042401510138809675,0.04078377274386585
1772526385589789000,3.106788818359375,0.057037061473727224,0.05279883938208222,0.03989727223291993
1772526385599771000,3.11677099609375,0.08699848449528216,0.03287190364077687,0.029259814090840518
1772526385609752800,3.1267529296875,0.09982640188634395,0.011663549786806105,0.013160948737710714
1772526385619735800,3.13673583984375,0.11735153718292712,-0.003131137632578611,-0.0074345704475417725
1772526385629717800,3.1467177734375,0.14048983618617056,-0.014138707728683947,-0.037042175062745805
1772526385639699700,3.15669970703125,0.15049334380626678,-0.020792028138041495,-0.054025568165443835
1772526385649682000,3.166681884765625,0.15480010108947753,-0.009761223296821117,-0.058508960657194256
1772526385659663600,3.17666357421875,0.12964052539169788,-0.012266922507435083,-0.04686579607129097
1772526385669646800,3.186646728515625,0.10088438650667667,-0.004224485827237367,-0.048897740290313955
1772526385679628800,3.19662890625,0.10972411104440688,0.0077076517678797245,-0.06629639966301619
1772526385689610800,3.20661083984375,0.10900339555442333,0.00023892332240939138,-0.06496193618886173
1772526385699592700,3.2165927734375,0.13584697881639002,-0.009752893859893082,-0.06380823610909282
1772526385709576000,3.226575927734375,0.18399638495743273,-0.03306742621287703,-0.07795867080818861
1772526385719558000,3.236557861328125,0.23794950894117353,-0.0494840157456696,-0.08885306285340339
1772526385729539800,3.246539794921875,0.2536012515813112,-0.05205152814611792,-0.11829882797040045
1772526385739521800,3.256521728515625,0.20498247436285016,-0.05702712460160255,-0.12948394659049808
1772526385749503700,3.266503662109375,0.10932663615942001,-0.058371378817409274,-0.1335791800148785
1772526385759487000,3.276487060546875,-0.03089315091371536,-0.03831789408698678,-0.13472908070236445
1772526385769468700,3.28646875,-0.16343991914093495,-0.016111176845431327,-0.13883556617312132
1772526385779451000,3.296450927734375,-0.2130126360833645,0.011390431933850049,-0.11684676599856465
1772526385789432800,3.306432861328125,-0.21594459788203238,0.04019859326705336,-0.08825933474395424
1772526385799414800,3.316414794921875,-0.16516718132495878,0.048369770893454546,-0.06199439162015914
1772526385809397800,3.326397705078125,-0.09345686685442924,0.046688832069188356,-0.043818245068937535
1772526385819379700,3.336379638671875,-0.04451367998719215,0.02863280476629734,-0.05284297078475356
1772526385829361700,3.346361572265625,-0.012668927437067032,-0.01150865148603916,-0.036754772956110536
1772526385839343900,3.35634375,0.002621580675244331,-0.06660276219844817,-0.02692402808703482
1772526385849325800,3.366325927734375,0.01480301685631275,-0.07616422513946891,-0.035045557885430755
1772526385859308800,3.376308837890625,0.035622517523169514,-0.07198854689002036,-0.07730934005398303
1772526385869290800,3.386290771484375,0.04737023846209049,-0.07445011469796299,-0.0912726546831429
1772526385879272700,3.396272705078125,0.08220365143418312,-0.07474281403422355,-0.08795377592612058
1772526385889255000,3.4062548828125,0.12228548645377159,-0.0692728581905365,-0.0842983586911112
1772526385899238000,3.41623779296875,0.17015139947831628,-0.06255757846087218,-0.06685019762087613
1772526385909219800,3.4262197265625,0.19538462493419645,-0.05552139621376991,-0.059932198393344877
1772526385919201800,3.436201904296875,0.19261808283030984,-0.05512377519831061,-0.05507752490378916
1772526385929183700,3.446183837890625,0.15756138249635696,-0.06104278998374939,-0.054244654276221986
1772526385939166000,3.456166015625,0.08286825282275677,-0.050674102313071484,-0.0699276688374579
1772526385949149000,3.46614892578125,-0.007264438045024872,-0.0463894107311964,-0.08247640396095812
1772526385959131000,3.476130859375,-0.08223638466000556,-0.03974894980341196,-0.07649482706701383
1772526385969112800,3.48611279296875,-0.12347791110873221,-0.037038229539990426,-0.061764802381675685
1772526385979094800,3.4960947265625,-0.11738836206197738,-0.02310162025466561,-0.05667648453302681
1772526385989076700,3.50607666015625,-0.10918635090589522,-0.022853052321076393,-0.014817447240464389
1772526385999059700,3.516059814453125,-0.04597381566762924,-0.021329057624191045,0.02132193376366049
1772526386009041700,3.526041748046875,0.02172024889886379,-0.0035555005244910713,0.05521587392855435
1772526386019024000,3.53602392578125,0.08284779455661773,-0.00847074509486556,0.08068780351113528
1772526386029005800,3.546005859375,0.12926233972907067,-0.02585325705036521,0.0941296880820766
1772526386038987800,3.55598779296875,0.18647592681348324,-0.041334903820604084,0.09459829197451472
1772526386048970800,3.565970703125,0.22931202897727487,-0.06739508161991835,0.11320373332109301
1772526386058952700,3.57595263671875,0.2529407418459654,-0.08823737864047289,0.1353802380874753
1772526386068934700,3.5859345703125,0.27025661830604075,-0.06441095124259591,0.15370711822099983
1772526386078916900,3.595916748046875,0.2970247982442379,-0.02780731372758746,0.1764425720443949
1772526386088899800,3.60589990234375,0.32011224384307857,0.02875993827730417,0.20610048207473008
1772526386098881800,3.6158818359375,0.31947453046143054,0.09165931591317057,0.2271275245450437
1772526386108863700,3.62586376953125,0.32511107504367825,0.13092033606916664,0.2738862800452858
1772526386118845700,3.635845703125,0.2851110730886459,0.15813596751391887,0.31267551797106863
1772526386128828000,3.645827880859375,0.2276958259522915,0.21049027799889444,0.31968262025415894
1772526386138811000,3.655810791015625,0.20054010800123215,0.28265739632621406,0.30872981255259363
1772526386148792300,3.665792236328125,0.1542693552136421,0.32302097089663145,0.33858083400223404
1772526386158774000,3.67577392578125,0.13861585900783538,0.33899346992373464,0.33320677628107365
1772526386168756200,3.685756103515625,0.13746318184137343,0.38576018953472374,0.2737756227450445
1772526386178738200,3.69573828125,0.1497819806665182,0.4025115639798343,0.23653891149088738
1772526386188721200,3.70572119140625,0.18131167591810227,0.3579593055479228,0.24071451667509972
1772526386198703400,3.715703369140625,0.21043606359362602,0.3397919268250465,0.21795272283405065
1772526386208685000,3.72568505859375,0.2297767238795757,0.3496129174850881,0.1927520114082843
1772526386218667300,3.735667236328125,0.22875673318207262,0.3569214869327843,0.1790268529165536
1772526386228649200,3.745649169921875,0.2048942115575075,0.3453621281728148,0.16977577109895645
1772526386238632200,3.755632080078125,0.15520868189036846,0.3180241855226457,0.15183471194524317
1772526386248614100,3.7656142578125,0.1406581784904003,0.25713892418816686,0.09073233726136386
1772526386258596000,3.77559619140625,0.13643325427174569,0.19529475469365715,0.012068550391122698
1772526386268578000,3.785578125,0.11419921063184738,0.11044015035927295,-0.06660601360145955
1772526386278561000,3.79556103515625,0.09968787019848822,0.03387815807387232,-0.13030143698584287
1772526386288543200,3.805543212890625,0.08470248251259327,-0.019116934532672165,-0.19256956751346588
1772526386298525200,3.815525146484375,0.09482990877330302,-0.04356251674219966,-0.2386811476839706
1772526386308507100,3.825507080078125,0.08799334075152873,-0.07057926461398602,-0.2531047733012587
1772526386318489000,3.835489013671875,0.10533493617475032,-0.09039937897995114,-0.2650547022813931
1772526386328472000,3.84547216796875,0.173331783080101,-0.09940408482104539,-0.2746901437740773
1772526386338454300,3.855454345703125,0.22734920447170734,-0.14698957346901298,-0.24937219917681067
1772526386348436200,3.865436279296875,0.24438801755607126,-0.19627455951124428,-0.2353069585431367
1772526386358418200,3.875418212890625,0.2544301036208868,-0.23009499604851005,-0.2569535576839
1772526386368400100,3.885400146484375,0.2593675600230694,-0.2134792306818068,-0.28617917724419384
1772526386378383000,3.895383056640625,0.25023557454049583,-0.1950182758398354,-0.27599136256575585
1772526386388365300,3.905365234375,0.2278425409466028,-0.19451982479840516,-0.26090660615861416
1772526386398347300,3.91534716796875,0.13498831616044044,-0.19449629779234529,-0.23649459742512552
1772526386408329200,3.9253291015625,0.010022796842455862,-0.16580767118558287,-0.22152272680792956
1772526386418311200,3.935311279296875,-0.13023966032862663,-0.12833090409785508,-0.25763945758882906
1772526386428294100,3.945294189453125,-0.2868973719835281,-0.07342910108715295,-0.25492669149879366
1772526386438276000,3.955276123046875,-0.3912742767810821,-0.05247033808007836,-0.23871157935485243
1772526386448258000,3.965258056640625,-0.4527092809528112,-0.055875031957030294,-0.2048259320942685
1772526386458240300,3.975240234375,-0.4523492154687643,-0.07001578551232815,-0.16231109777409583
1772526386468223000,3.985222900390625,-0.4199649492144584,-0.07533245049044489,-0.138090666089952
1772526386478205200,3.995205078125,-0.3783955059856176,-0.08283668864071368,-0.10114365849737077
1772526386488187100,4.005187255859375,-0.33213878172338007,-0.08207447209656238,-0.07443871652111411
1772526386498169000,4.015169189453125,-0.2636287245988846,-0.06869184343218802,-0.08171926545072346
1772526386508151000,4.025151123046875,-0.19180209027230738,-0.0648699470564723,-0.0720400213489309
1772526386518134000,4.035134033203125,-0.12631868749260902,-0.07782543634995817,-0.0502644255336374
1772526386528116200,4.0451162109375,-0.07699088522195816,-0.07008008292019367,-0.04373959034215659
1772526386538098200,4.05509814453125,-0.05715513489544391,-0.04076718693524599,-0.03771696905177086
1772526386548080000,4.065080078125,-0.08516074767410754,-0.03721212480217218,-0.019276253280229864
1772526386558062000,4.07506201171875,-0.12881985665857792,-0.026874124530702828,0.017522322284989057
1772526386568045000,4.085045166015625,-0.1517734467446804,0.01375453071668744,0.03939805400650948
1772526386578027300,4.09502734375,-0.1356084938853979,0.04948109313622117,0.052337322817556556
1772526386588009200,4.10500927734375,-0.09795359375178814,0.05025587690100074,0.0538667243419215
1772526386597991200,4.1149912109375,-0.047720367074012754,0.034882366680353875,0.04101246693320572
1772526386607973000,4.12497314453125,0.05123977337181568,0.06643383537232875,0.019447591259144244
1772526386617956000,4.1349560546875,0.1581605174332857,0.09967910237014294,0.016083412055671212
1772526386627938300,4.144938232421875,0.20399404784739017,0.09076981972754002,0.02521842974554747
1772526386637920300,4.154920166015625,0.22191899611651897,0.11181523810476064,0.0276097818614915
1772526386647902200,4.164902099609375,0.18035948975980282,0.12577800474464892,0.019029694640636443
1772526386657884200,4.17488427734375,0.10075579169094562,0.1160416236281395,-0.00962035352140665
1772526386667867100,4.1848671875,0.028255203625559805,0.09391045584082602,-0.06051792585942894
1772526386677849000,4.19484912109375,-0.01771276682317257,0.08760945600047707,-0.10203998628258705
1772526386687831000,4.2048310546875,-0.013853753307461738,0.06785933813080192,-0.11486494453158229
1772526386697813200,4.214813232421875,0.006249708044528961,0.04544277753084898,-0.12502700371425599
1772526386707796200,4.224796142578125,0.05088906023800373,0.027409838842600582,-0.14595233937576413
1772526386717778200,4.234778076171875,0.07784779431223869,-0.01593114410340786,-0.14907733952850102
1772526386727760100,4.244760009765625,0.10564239468872547,-0.023669044879078862,-0.16171386253330855
1772526386737742000,4.2547421875,0.1519429580926895,-0.007173398760706186,-0.17601378870569168
1772526386747724000,4.26472412109375,0.21016133830547332,-0.019740765519440172,-0.18663298053871838
1772526386757707000,4.27470703125,0.27698972595334054,-0.02678293911591172,-0.17008176830820737
1772526386767689200,4.284689208984375,0.2885913164198398,-0.08172551252841949,-0.16657704812288282
1772526386777671200,4.294671142578125,0.2853466354101896,-0.1255658232986927,-0.17793036291673778
1772526386787653000,4.304653076171875,0.2738496743619442,-0.1318928343631327,-0.19997458307296037
1772526386797635000,4.314635009765625,0.2680769361793995,-0.14615502234101294,-0.20632311184946447
1772526386807618000,4.3246181640625,0.20039865370392798,-0.1526652810178697,-0.20971867257189003
1772526386817600300,4.334600341796875,0.12155483409166336,-0.13489391587525607,-0.23016378696840256
1772526386827582200,4.344582275390625,0.020377602118253707,-0.11183262763097881,-0.25978929256647826
1772526386837564200,4.354564208984375,-0.07797522008419036,-0.11490998924970626,-0.24702607444208113
1772526386847546000,4.364546142578125,-0.14518413148224352,-0.1230862814426422,-0.2272172121224925
1772526386857529000,4.374529052734375,-0.16344693340361116,-0.08433715633153915,-0.20348609832525252
1772526386867511300,4.38451123046875,-0.17621055338680744,-0.04525310017764568,-0.16919296624232083
1772526386877493200,4.3944931640625,-0.16024609153568745,-0.016503537163883447,-0.14827771358340977
1772526386887475200,4.40447509765625,-0.12598141836225984,-0.004073679179698229,-0.11709427448622882
1772526386897457200,4.41445703125,-0.10802139877974987,-0.005151245283335447,-0.1074661029845476
1772526386907440000,4.424440185546875,-0.11889233688414096,-0.030464404107630252,-0.12151030083019286
1772526386917422000,4.434422119140625,-0.1660994937390089,-0.05305763644874096,-0.1530028424091637
1772526386927404300,4.444404296875,-0.20972002427875994,-0.033665099845081564,-0.22286595811042934
1772526386937386200,4.45438623046875,-0.27724983819425103,-0.004035685256868601,-0.24689375329930333
1772526386947369200,4.464369140625,-0.3490168512880802,0.010454466257989407,-0.26647549233213064
1772526386957351200,4.47435107421875,-0.41388942869305606,0.005780044706165791,-0.2805826358787715
1772526386967333000,4.4843330078125,-0.4463391613990068,0.015326163947582244,-0.28627054532207546
1772526386977315000,4.494315185546875,-0.4284060298234224,0.02437178632095456,-0.2841695179222151
1772526386987297000,4.504297119140625,-0.3951806365698576,0.037574528373777866,-0.26899682750329373
1772526386997280000,4.514280029296875,-0.35241292346715924,0.0379487685136497,-0.2827486548062414
1772526387007262200,4.52426220703125,-0.279870249825716,0.04280906802639365,-0.33819468422885984
1772526387017244200,4.534244140625,-0.19770809944570064,0.04095101906955242,-0.3829521463766694
1772526387027226000,4.54422607421875,-0.11630991917550564,-0.0050907472677528855,-0.40190837392229584
1772526387037208000,4.5542080078125,-0.0312964710175991,-0.05269815548658371,-0.415781672180444
1772526387047191000,4.56419091796875,0.009455810609459877,-0.07890197954028845,-0.4341999569244683
1772526387057173200,4.57417333984375,0.030547113955020903,-0.08753507559001446,-0.4508627763032913
1772526387067155200,4.5841552734375,0.05545768332779407,-0.08984349866285919,-0.45450540712196374
1772526387077137200,4.59413720703125,0.08479951314628124,-0.06417275857254863,-0.47088707147184755
1772526387087119000,4.604119140625,0.13385609726011752,-0.050108577384799714,-0.4721850023278966
1772526387097102000,4.61410205078125,0.15439444289803503,-0.07035539273023605,-0.45666075852494686
1772526387107084300,4.624084228515625,0.1296919633179903,-0.06134761814922094,-0.43413657283205537
1772526387117066200,4.634066162109375,0.07112579258084296,-0.04639189494922757,-0.40927510329801586
1772526387127048200,4.644048095703125,-0.0021188918501138685,-0.019313041626662013,-0.391061437748
1772526387137030100,4.654030029296875,-0.03542144199311733,0.0258437585696578,-0.38573377645183354
1772526387147013000,4.66401318359375,-0.04517477424442768,0.037557723369449375,-0.35249515839051454
1772526387156995000,4.6739951171875,-0.07193827800750732,0.013099866200238465,-0.29885552080273625
1772526387166977000,4.68397705078125,-0.11271510955393314,0.00823459825143218,-0.2771712200000882
1772526387176959000,4.693958984375,-0.19493863473236558,-0.008440788348019123,-0.27931141036655754
1772526387186942200,4.703942138671875,-0.2928729392617941,-0.030027181734144686,-0.2801407007975504
1772526387196924000,4.713923828125,-0.3703922322720289,0.0025755495764315127,-0.2508609764298424
1772526387206906000,4.723906005859375,-0.4150456129908561,0.04488675108328461,-0.22842790308650582
1772526387216888000,4.73388818359375,-0.41777299212813374,0.07912818951159716,-0.19375965408086776
1772526387226870000,4.7438701171875,-0.4093529543071985,0.11129399070963263,-0.1787866144198924
1772526387236853200,4.753853271484375,-0.3948614876180887,0.12059724110588431,-0.17716847516614942
1772526387246835000,4.7638349609375,-0.3513701364159584,0.09916837636902928,-0.1954961955498904
1772526387256817200,4.773817138671875,-0.2933949173092842,0.061318245924264186,-0.2164335504427552
1772526387266798800,4.783798828125,-0.2547907536268234,-0.007861527155339717,-0.2331764493204653
1772526387276781000,4.793781005859375,-0.21007190645635127,-0.052765667764842504,-0.27486093376372006
1772526387286764000,4.803763916015625,-0.1532242300748825,-0.0695104663386941,-0.3057701224967837
1772526387296746000,4.81374609375,-0.09083353261351584,-0.10545008698701858,-0.28107966214809565
1772526387306728200,4.823728271484375,-0.016880407652258872,-0.12972791141420603,-0.25411848038844764
1772526387316710000,4.8337099609375,0.05783084219992161,-0.13637217173427343,-0.2330751078378409
1772526387326692000,4.843692138671875,0.12379881362617015,-0.15563757482692597,-0.22542660237867385
1772526387336674800,4.8536748046875,0.1667699403464794,-0.17420754300132393,-0.2655342659592628
1772526387346657000,4.863656982421875,0.15495207678079603,-0.16636179793700576,-0.3211289831375703
1772526387356639200,4.87363916015625,0.09446575163602829,-0.17098273573592304,-0.3468517091434449
1772526387366621000,4.883620849609375,0.004589665877819061,-0.15213585031628607,-0.3370962945329025
1772526387376603100,4.89360302734375,-0.05759294179081916,-0.09146437786296009,-0.33659353264253583
1772526387386585900,4.9035859375,-0.04255377809107303,-0.0012337795786559582,-0.3393361093489453
1772526387396568000,4.913568115234375,0.036249124988913535,0.0688968644849956,-0.32402295101340856
1772526387406550000,4.923550048828125,0.1830821927219629,0.09873524564877152,-0.3055647361177951
1772526387416532000,4.933531982421875,0.30396248855292796,0.08814020187631248,-0.3447687288569286
1772526387426515200,4.94351513671875,0.3921452143967151,0.06542056667655706,-0.43454358273036775
1772526387436497000,4.953496826171875,0.3891536313652992,0.01700871020704508,-0.5156471639681607
1772526387446479000,4.96347900390625,0.35215164218246936,-0.00560600331351161,-0.5915159498250112
1772526387456461000,4.9734609375,0.2482768416881561,0.007851005761325358,-0.6142053725495934
1772526387466443000,4.983443115234375,0.10328910956084728,-0.0003191489517688751,-0.592135214234516
1772526387476426200,4.99342626953125,-0.013037760749459266,0.04300093733668327,-0.5782174923127517
1772526387486408000,5.003407958984375,-0.051230421021580694,0.07800166969969868,-0.538366031982936
1772526387496390100,5.01339013671875,-0.0151145670235157,0.10227028790712356,-0.457218794266507
1772526387506372000,5.0233720703125,0.002599368843436241,0.13968728763163088,-0.3946542015429586
1772526387516354000,5.03335400390625,0.07500409531891346,0.14997414223775266,-0.3618208032816648
1772526387526337000,5.0433369140625,0.15063479810357092,0.1388603352881968,-0.33383396826870737
1772526387536319000,5.053319091796875,0.22967443254888056,0.07608326885774731,-0.2668808217300102
1772526387546301200,5.06330126953125,0.2571943076372146,0.03051584203392267,-0.20639098945390433
1772526387556283000,5.073282958984375,0.20526304486989974,0.010089286207407712,-0.20667528628800064
1772526387566265000,5.08326513671875,0.10441782132983207,0.0029446751497685907,-0.17976561551988124
1772526387576247800,5.093247802734375,-0.06332184083163737,0.004834288288652897,-0.13356062144488096
1772526387586230000,5.10322998046875,-0.1826385406076908,0.03344341991841793,-0.09944167688507587
1772526387596212200,5.113212158203125,-0.23090952730178832,0.08726078869327902,-0.06544442247617989
1772526387606194000,5.12319384765625,-0.22634265777766704,0.11959800093546509,0.037655192394554615
1772526387616176000,5.133176025390625,-0.1815665274620056,0.15130714440718293,0.16964666482657192
1772526387626158800,5.143158935546875,-0.14292203176915644,0.1672343429878354,0.29592564136330035
1772526387636141000,5.15314111328125,-0.1326063894599676,0.18994535648971794,0.39502785716094074
1772526387646123000,5.163123046875,-0.11295768613815307,0.2657579917125404,0.4260507719341665
1772526387656105000,5.17310498046875,-0.05095043503642082,0.344511356562376,0.4515289851270616
1772526387666087200,5.183087158203125,0.01680558885037899,0.33005919897034763,0.5017746328949928
1772526387676070000,5.19306982421875,0.09398878177404403,0.30916531789302826,0.5331912962261587
1772526387686052000,5.203052001953125,0.15393559321463107,0.2709748495779931,0.5038561884094029
1772526387696034000,5.213033935546875,0.19053601585924623,0.2103853563196957,0.47085853949710726
1772526387706016000,5.22301611328125,0.1968862616688013,0.1274587974384427,0.4006441626727581
1772526387715999200,5.232999267578125,0.23182371953725814,0.10337108875587582,0.34384719356521964
1772526387725981000,5.24298095703125,0.2611345696955919,0.06528598051145672,0.3206119004609063
1772526387735963100,5.252963134765625,0.2887888848185539,0.03745572429969907,0.3155388715129345
1772526387745945000,5.262945068359375,0.31438626741170883,0.07997706142589449,0.3254563082847744
1772526387755927000,5.272927001953125,0.3372007412880659,0.10584493152350187,0.3429499159319326
1772526387765910300,5.28291015625,0.3652256432890892,0.1267081252016127,0.3616121289670467
1772526387775892000,5.29289208984375,0.3868582139045,0.1570344360128045,0.3661291680000722
1772526387785874200,5.302874267578125,0.4181447480499744,0.19727789133489132,0.36242519891560077
1772526387795856000,5.31285595703125,0.4393061940222978,0.2126861806079745,0.36941074695400894
1772526387805838000,5.322838134765625,0.429900652295351,0.20066578020751474,0.3614127339374274
1772526387815821000,5.332821044921875,0.40972237214148044,0.20552154967561362,0.31517449517995116
1772526387825803000,5.342802978515625,0.3903267667979002,0.19298530870750547,0.2386781885419041
1772526387835785200,5.35278515625,0.33599487262964245,0.14302812249213456,0.19677036193786188
1772526387845767000,5.362766845703125,0.2555003632009029,0.12513196192607282,0.14774196273889392
1772526387855749000,5.3727490234375,0.19479308878183363,0.1428163794375956,0.08229794212151319
1772526387865731800,5.38273193359375,0.17414368398487567,0.18697379333302377,0.05315600052298978
1772526387875714000,5.392714111328125,0.192573074644804,0.20162161962762473,0.1071048319241032
1772526387885696000,5.402696044921875,0.22457155645191668,0.23050182328373192,0.21260131533611565
1772526387895678000,5.412677978515625,0.2785270185232162,0.277726369664818,0.24235342472223564
1772526387905660200,5.42266015625,0.328517084094882,0.28488237889930607,0.22615528197940438
1772526387915643000,5.432642822265625,0.3621270927518606,0.28269904351085423,0.2154630431764759
1772526387925625000,5.442625,0.3783399764060974,0.2568018011882901,0.19991556462841106
1772526387935607000,5.45260693359375,0.3648690849363804,0.21536723638549446,0.17323170197280122
1772526387945589000,5.462589111328125,0.34026480503380296,0.20021862096190451,0.13232534402888269
1772526387955571000,5.472571044921875,0.2913952679246664,0.18698299955278633,0.10203479865081608
1772526387965554000,5.482553955078125,0.22096505639255046,0.1459023627541959,0.09353711075009778
1772526387975536000,5.4925361328125,0.1835842970252037,0.11521993198171257,0.0663139353197068
1772526387985518000,5.50251806640625,0.1265466510295868,0.09741495683044195,0.04361868564253673
1772526387995500000,5.5125,0.04128828819990158,0.08996171821504831,0.025733338731434196
1772526388005482000,5.52248193359375,-0.02027647983133793,0.009334668447822332,-0.015581307752430438
1772526388015465000,5.53246484375,0.05222644632160663,-0.09536255434527993,0.008198065633326769
1772526388025447200,5.542447265625,0.051124038037657735,-0.06280336991548538,-0.030555425125639885
1772526388035429000,5.55242919921875,0.09105681997537612,0.014571546187996864,0.04831040538903326
1772526388045411000,5.5624111328125,0.10372574741244316,0.08411050796881317,0.1373283582142554
1772526388055394000,5.57239404296875,0.05859831944108009,0.03656608198359609,0.13373661733260378
1772526388065376000,5.5823759765625,-0.0037450317472219464,0.020822277145832777,0.09451200193054973
1772526388075358200,5.592358154296875,-0.03273147225677967,0.017854221120476722,0.1418530873633921
1772526388085340000,5.60233984375,-0.09496785593926906,-0.005349398203939199,0.21480894491560756
1772526388095322000,5.612322021484375,-0.1667746165215969,-0.02701440978422761,0.22576253806846214
1772526388105304800,5.622304931640625,-0.18208616742193698,-0.05289572388529777,0.18946550055090336
1772526388115287000,5.632287109375,-0.13449205707609652,-0.07955474436059594,0.17599718463076278
1772526388125269000,5.64226904296875,-0.05133329687416553,-0.10524418915137648,0.24144301361273973
1772526388135251000,5.6522509765625,0.02921440404653549,-0.09888210677355527,0.3281647635258734
1772526388145233200,5.662233154296875,0.10042612134516239,-0.09202595726847648,0.3923604645825922
1772526388155216400,5.67221630859375,0.17246669068336487,-0.06396013873517513,0.41949638185463844
1772526388165198300,5.6821982421875,0.2166805109411478,-0.04042889489158988,0.47843905775398016
1772526388175180500,5.6921806640625,0.2421463761091232,-0.040830899821221824,0.5093211027517914
1772526388185162200,5.702162353515625,0.1779115120857954,-0.039607641636580225,0.5363399329828098
1772526388195144400,5.71214453125,0.07512041517496108,-0.021634616442024707,0.499678975789994
1772526388205127200,5.722127197265625,-0.008386135551333426,0.004923574007302522,0.44012061567772176
1772526388215109400,5.732109375,-0.078727499756217,0.0019059797517955303,0.42175826237201686
1772526388225091300,5.74209130859375,-0.11622574802339077,-0.009704524673521519,0.3824371825918555
1772526388235073300,5.7520732421875,-0.1845247927457094,0.017367168255895377,0.34959202082753177
1772526388245055500,5.762055419921875,-0.25197920333743096,0.013232260408252476,0.32114966059941796
1772526388255038200,5.7720380859375,-0.3276449774354696,-0.017766835097968576,0.24893755235290152
1772526388265020400,5.7820205078125,-0.337663098102808,-0.0020566402688622473,0.17543666467117144
1772526388275002400,5.79200244140625,-0.3623568098545074,-0.02808963780030608,0.15439404103923587
1772526388284984300,5.801984375,-0.3978033862888813,-0.05019742471203208,0.11071412672875448
1772526388294967300,5.81196728515625,-0.43051030862629414,-0.053201721094548696,0.06069879885166883
1772526388304949200,5.82194921875,-0.44825171702206135,-0.04952610132172704,-0.019534940749034283
1772526388314931500,5.831931396484375,-0.3999854065030813,-0.04960135851502418,-0.08666068564197048
1772526388324913200,5.8419130859375,-0.30381401999294755,-0.05802811833769083,-0.117828032120876
1772526388334895400,5.851895263671875,-0.17444880441129207,-0.0801674694314599,-0.12755283239744603
1772526388344878300,5.86187841796875,-0.06808686327636242,-0.10143018382117151,-0.13295275521222502
1772526388354860300,5.8718603515625,0.018409516915678978,-0.10383300717920065,-0.13415259598866106
1772526388364842500,5.881842529296875,0.10983750829100608,-0.07261135496348142,-0.14315752102546392
1772526388374824200,5.89182421875,0.20128011271357535,-0.04623641212657094,-0.17498258249443024
1772526388384806400,5.901806396484375,0.27278759808838365,-0.04283186438009143,-0.2006323528619483
1772526388394789000,5.9117890625,0.3282861979484558,-0.04303542412817478,-0.20885010957643388
1772526388404771300,5.921771240234375,0.3335387116491794,-0.04481193228140473,-0.17866338989902286
1772526388414753500,5.93175341796875,0.3259808436155319,-0.0354185193836689,-0.163337700875476
1772526388424735200,5.9417353515625,0.30177170051038266,0.0013020225092768669,-0.14293554883785545
1772526388434717400,5.951717529296875,0.26126491807699204,0.0473959574252367,-0.09746924430094658
1772526388444700200,5.9617001953125,0.23411446082293985,0.11603709358349441,-0.0532807046148926
1772526388454682400,5.971682373046875,0.19869243430793285,0.17342603723481295,-0.0013325637780129908
1772526388464664300,5.981664306640625,0.14764847576916218,0.2136332521997392,0.0823533986357972
1772526388474646300,5.991646240234375,0.09461597376167774,0.25759134413078427,0.12838731046020985
1772526388484628500,6.00162841796875,0.0794727651655674,0.28677622982189055,0.1491662599209696
1772526388494611200,6.011611083984375,0.07473696881532668,0.3226505301490426,0.15172379891667515
1772526388504593400,6.021593505859375,0.06431786613166332,0.3422558327205479,0.17167623442541807
1772526388514575400,6.031575439453125,0.04964461313486099,0.32979002664014695,0.20447452484071255
1772526388524557300,6.041557373046875,0.008839724537730216,0.3191699945569038,0.24086269297413526
1772526388534539300,6.051539306640625,-0.05403086539506912,0.324224793728441,0.2719938538948074
1772526388544522200,6.061522216796875,-0.08841770364344119,0.32030995837226506,0.288652727750875
1772526388554504400,6.07150439453125,-0.07922083623111248,0.33753947172313925,0.26831319262068715
1772526388564486100,6.081486083984375,-0.0228963069409132,0.32849092674031855,0.2535762632705271
1772526388574468400,6.09146826171875,0.06669219404757022,0.26458734049797056,0.2340965233074501
1772526388584450300,6.1014501953125,0.18734277277588843,0.20142185927182435,0.2020467862371355
1772526388594433300,6.111433349609375,0.2853998269021511,0.12862024243324993,0.17536679603904484
1772526388604415500,6.12141552734375,0.3712123164832592,0.07390826290622353,0.1265076341934502
1772526388614397200,6.131397216796875,0.4162894755721092,0.04831935588046908,0.11897983250450342
1772526388624379400,6.14137939453125,0.4234352556735277,0.02217719888612628,0.08852748416084796
1772526388634361300,6.151361328125,0.45208442705273627,-0.040129327423125506,0.07189283143058418
1772526388644344300,6.16134423828125,0.47756899692118165,-0.08903072097525,0.07104589574504644
1772526388654326500,6.171326416015625,0.4716472056567669,-0.13645342027693985,0.08839633206184953
1772526388664308200,6.18130810546875,0.4497954393327236,-0.15003493251428007,0.10202606735508889
1772526388674290400,6.19129052734375,0.39231589478850365,-0.21260610110908745,0.08849011129252612
1772526388684273200,6.201273193359375,0.295942848226428,-0.2576958274185657,0.05076660290211439
1772526388694255400,6.21125537109375,0.16730828500688075,-0.28462533539831636,0.03516666351445019
1772526388704237300,6.2212373046875,0.009095160603523254,-0.3009787965670228,-0.06819901841394603
1772526388714219300,6.23121923828125,-0.08593231656849384,-0.27182562118843195,-0.055539735588058824
1772526388724201500,6.241201416015625,-0.23317513414621352,-0.20898951804712412,-0.04363357268441468
1772526388734184200,6.25118408203125,-0.2819277668774128,-0.12963643373847006,0.04383479434493929
1772526388744166400,6.26116650390625,-0.2728647549778223,-0.044566579218208786,0.0923912834495306
1772526388754148400,6.2711484375,-0.29548282949924465,-0.005394990911334753,0.18670228291526436
1772526388764130300,6.28113037109375,-0.37587329403162,0.04663958609998226,0.24820669906139373
1772526388774112300,6.2911123046875,-0.42191199162900445,0.1313008598193526,0.25138876316361125
1772526388784095200,6.30109521484375,-0.4379956959456205,0.15954963370412586,0.2551257942674681
1772526388794077400,6.311077392578125,-0.45303018347024915,0.1357205759577453,0.21171269593331962
1772526388804059400,6.321059326171875,-0.49550329754054545,0.1657294913828373,0.20567725169397888
1772526388814041300,6.331041259765625,-0.49002574291229245,0.13636267325356602,0.18019980568606406
1772526388824023300,6.341023193359375,-0.44952363665401934,0.1383729901626706,0.14308277528882027
1772526388834006300,6.35100634765625,-0.34843583652973176,0.16623101116418837,0.10988163969367742
1772526388843988500,6.360988525390625,-0.21026772128939628,0.18784093155637382,0.1284660017196089
1772526388853970200,6.37097021484375,-0.0887748465180397,0.18770546860843895,0.1922018667122349
1772526388863952400,6.380952392578125,0.0014957915157079696,0.16224501026794313,0.19384612678792326
1772526388873934300,6.390934326171875,0.07840425915122032,0.14913170006424187,0.1506589826967567
1772526388883917300,6.400917236328125,0.13557225352823735,0.08198577089980244,0.11469247404150665
1772526388893899500,6.4108994140625,0.20602058523893355,0.010080810640007256,0.08169537311848253
1772526388903881200,6.420881103515625,0.26048458135426045,-0.050578825245052576,0.04365161979775876
1772526388913863400,6.430863525390625,0.24983459252417087,-0.06983487598747015,0.018655052641965448
1772526388923845400,6.440845458984375,0.22595687333047387,-0.06018894963338971,-0.015228914118185638
1772526388933828400,6.450828369140625,0.19813129329383372,-0.04765957679748535,-0.04808415888510644
1772526388943810300,6.460810302734375,0.20527590435147283,-0.029227117397636174,-0.06361735317949205
1772526388953792300,6.470792236328125,0.2622632814645767,-0.008179945454746484,-0.07076295061782002
1772526388963774500,6.4807744140625,0.3597831599742174,0.02355696280673146,-0.03716086953897029
1772526388973756400,6.49075634765625,0.4710492397636175,0.05129428003802895,-0.00046345279328525063
1772526388983739400,6.500739501953125,0.58736500415802,0.06631576195061206,0.014816022468358277
1772526388993721300,6.510721435546875,0.6694388917326927,0.06934986894950271,0.04420534469038248
1772526389003703300,6.520703369140625,0.7076181080013513,0.07050166933313012,0.05773096202202141
1772526389013685200,6.530685302734375,0.7165496024757623,0.07859291359111666,0.07246588207818568
1772526389023667500,6.54066748046875,0.725852852872014,0.08909881777539849,0.07954447869490831
1772526389033650400,6.550650390625,0.6969254490733147,0.12666574736461042,0.11098839535918086
1772526389043632400,6.56063232421875,0.6568786853671074,0.172053287576884,0.17845011247452347
1772526389053614300,6.5706142578125,0.5938426757395268,0.185537330789119,0.24227486132699994
1772526389063596300,6.58059619140625,0.5421551586002111,0.18612959759384393,0.2685988776942715
1772526389073579300,6.590579345703125,0.5476251144438982,0.1653273403227329,0.31377124078590424
1772526389083561500,6.6005615234375,0.5677946267694235,0.13688655099719763,0.36719091548006977
1772526389093543200,6.610543212890625,0.6018780981570482,0.13262947807461023,0.3926784079579636
1772526389103525400,6.620525390625,0.6222609609723091,0.13523790700733662,0.3695404377482831
1772526389113507300,6.63050732421875,0.6122101070791482,0.12156199448481202,0.3597952157381922
1772526389123490300,6.640490234375,0.5749789853155612,0.09615589668005704,0.34350232565030453
1772526389133472500,6.650472412109375,0.4931511814564466,0.10692468958422541,0.3103552217973396
1772526389143454200,6.6604541015625,0.3969499843299389,0.1232725977949798,0.29193865408636627
1772526389153436400,6.6704365234375,0.3010240970134735,0.12569178776592016,0.26781591062303634
1772526389163418600,6.680418701171875,0.22801029872894285,0.08637304607331753,0.2663441210374236
1772526389173401300,6.6904013671875,0.09919745633304118,0.037522213664650916,0.16950042475629598
1772526389183383600,6.700383544921875,0.07232990767359733,0.032306232582032676,0.10499408684782684
1772526389193365200,6.710365234375,-0.035172435668110846,-0.025511019483953713,0.11395511794397607
1772526389203347500,6.720347412109375,-0.19731880786716938,-0.15613953299969432,0.09230470114462078
1772526389213329400,6.730329345703125,-0.3957593132406473,-0.21380261741727588,-0.0016352913179434835
1772526389223312400,6.7403125,-0.6152969671785831,-0.2060822522982955,-0.1588439879191108
1772526389233294600,6.750294677734375,-0.8178390626519918,-0.2680444952145219,-0.28565246822265905
1772526389243276300,6.7602763671875,-0.9570867898225783,-0.31600261656716466,-0.36684509771708396
1772526389253258500,6.770258544921875,-1.0127928949534892,-0.33812450506947933,-0.3900826558437198
1772526389263240400,6.780240478515625,-0.9783329914689064,-0.37331491478569806,-0.3692161376973614
1772526389273223400,6.790223388671875,-0.8730114992976188,-0.3355030705247074,-0.3581466813461855
1772526389283205600,6.80020556640625,-0.7700222494661808,-0.2883069465205073,-0.3048088762491941
1772526389293187300,6.810187255859375,-0.5979390051424504,-0.16298245769701897,-0.33844825713112947
1772526389303169500,6.82016943359375,-0.42023499832749367,-0.14400785424448548,-0.24536252514403312
1772526389313151200,6.830151123046875,-0.23403905749917028,-0.1544556715659797,-0.11634276199918239
1772526389323134500,6.840134521484375,-0.09232114082276821,-0.16050729975514114,-0.019982465320825576
1772526389333116400,6.850116455078125,-0.020831191104650496,-0.1641034245509654,0.015914704425260422
1772526389343098400,6.860098388671875,0.030885552129149434,-0.17463884709067642,0.03017276421729475
1772526389353080600,6.87008056640625,0.06156359898746013,-0.19373627320528028,0.017033004398085177
1772526389363062300,6.880062255859375,0.08849135340154171,-0.21379136537089943,-0.006591288023814559
1772526389373045500,6.89004541015625,0.12216098329126834,-0.21989567359536885,-0.006225158125162124
1772526389383027200,6.900027099609375,0.16341010852456092,-0.19417671044915913,-0.005858261041529476
1772526389393009400,6.910009521484375,0.20555764390230177,-0.17208412110656499,0.01757061840612441
1772526389402991600,6.91999169921875,0.27367256422936914,-0.1400625506848097,0.08363087122570723
1772526389412973300,6.929973388671875,0.3336965325593948,-0.09096366179920733,0.13520857131499797
1772526389422956500,6.93995654296875,0.33819150589108465,-0.06440028371810913,0.14486845312919466
1772526389432938200,6.949938232421875,0.29243396332263943,-0.03748524265512824,0.1506129150653258
1772526389442920400,6.95992041015625,0.19336334823966025,-0.025515476463362573,0.15301310807485133
1772526389452902400,6.96990234375,0.09098141665160656,-0.026942148265615105,0.17004037685189397
1772526389462885400,6.979885498046875,-0.0036398178070783612,0.03081387513242662,0.19313458098508415
1772526389472867600,6.98986767578125,-0.07679331682324408,0.08916245759613811,0.20589622820690273
1772526389482849300,6.999849365234375,-0.16560031204521655,0.11204407842457294,0.2123498613256961
1772526389492831500,7.00983154296875,-0.23863223050832746,0.15577238018773495,0.20163173916283994
1772526389502813400,7.0198134765625,-0.31992695040404795,0.15752952605336903,0.18059724403843283
1772526389512796400,7.02979638671875,-0.37876024764478206,0.13190459786616265,0.18797971897255628
1772526389522778600,7.039778564453125,-0.41524142782390117,0.134792355196923,0.18777097159270195
1772526389532760300,7.04976025390625,-0.44727030476927754,0.1577237334512174,0.17299023963343352
1772526389542742500,7.059742431640625,-0.4246639206856489,0.18995602401420472,0.16417225200347602
1772526389552724500,7.069724365234375,-0.3366834394156933,0.2392494125586003,0.17696206587385385
1772526389562707500,7.07970751953125,-0.26321955927610396,0.23816702414937316,0.17214611695948986
1772526389572689400,7.089689453125,-0.16435878755152225,0.19307554427422582,0.1947179046537727
1772526389582671400,7.09967138671875,-0.05318447769880295,0.11283939352072775,0.13840557725802063
1772526389592653600,7.109653564453125,0.036998482051491734,0.008271715391427278,0.043054786415770645
1772526389602635300,7.11963525390625,0.1558598392754793,-0.10671572300866246,-0.022064897618070244
1772526389612618500,7.129618408203125,0.2490314594477415,-0.17148111371211708,-0.0942876185901463
1772526389622600200,7.13960009765625,0.23879472759366033,-0.21312384137287735,-0.12768683404065667
1772526389632582400,7.14958251953125,0.19031448206305504,-0.2370022181537002,-0.15123239867053925
1772526389642564600,7.159564697265625,0.1628004521936178,-0.2164409300316125,-0.1542172231676057
1772526389652546300,7.16954638671875,0.19203648355007172,-0.12618439358845351,-0.18023469433635472
1772526389662529500,7.179529541015625,0.26975392948091026,-0.03706263332888484,-0.17319763530641794
1772526389672511200,7.18951123046875,0.3727402567028999,-0.020345745675265786,-0.11674600903782993
1772526389682493400,7.199493408203125,0.49659986060559747,-0.06321209684684873,-0.055619851619563995
1772526389692475400,7.209475341796875,0.5796621746957302,-0.099409491648525,-0.05013477127198129
1772526389702457300,7.219457275390625,0.601656564360857,-0.1591487978182733,-0.04368862733989954
1772526389712440600,7.229440673828125,0.5921522384345531,-0.24940233858674762,-0.036325405095517634
1772526389722422300,7.23942236328125,0.5723924759536981,-0.26670623234808444,-0.11157638784758746
1772526389732404500,7.249404541015625,0.5291454549014568,-0.24035408586487172,-0.17193050144743174
1772526389742386400,7.259386474609375,0.4398731802552938,-0.24813538739085195,-0.28683552226107567
1772526389752368400,7.269368408203125,0.2749374695986509,-0.2778651936136186,-0.3582337385751307
1772526389762351600,7.2793515625,0.08345686636567115,-0.2437961891427636,-0.4247421370210126
1772526389772333300,7.289333251953125,-0.12832184400856494,-0.187835451663658,-0.3535004995081574
1772526389782315500,7.2993154296875,-0.2887713491618633,-0.11316409543044864,-0.2788892759643495
1772526389792297500,7.30929736328125,-0.4090221149176359,0.009241875597834586,-0.16105032059065996
1772526389802279400,7.319279541015625,-0.4857710080772638,0.143707556123659,-0.048869975500553844
1772526389812262700,7.3292626953125,-0.5319108279615641,0.264826629146561,0.009050554276816546
1772526389822244400,7.339244384765625,-0.5379454319506883,0.3041420098382979,0.03828355342596769
1772526389832226600,7.3492265625,-0.491744237267971,0.2911124323952943,0.011071209916844963
1772526389842208500,7.35920849609375,-0.3636766602814197,0.256355737921223,0.004981587804853916
1772526389852190500,7.3691904296875,-0.20306641160845756,0.195814906110242,0.01713328643478453
1772526389862173400,7.37917333984375,-0.027493571603298187,0.10399360456839203,0.0018153788588941096
1772526389872155400,7.3891552734375,0.2043453455030918,0.0896281754117459,0.021159838537126777
1772526389882137600,7.3991376953125,0.3995966994464397,0.09647533789277077,0.10260105423144995
1772526389892119300,7.409119384765625,0.516250317493081,0.06576134293824434,0.16355192814804612
1772526389902101500,7.4191015625,0.5832055463910103,0.054930152322351926,0.1157175793055445
1772526389912084200,7.429084228515625,0.7299263859212398,0.12047069211676716,0.11822284012474119
1772526389922066400,7.43906640625,0.8275584926337003,0.1029307976424694,0.22687406124062834
1772526389932048400,7.44904833984375,0.8665297360628843,-0.002963087589293718,0.28671456276252866
1772526389942030300,7.4590302734375,0.8346990120381116,-0.09278773542121052,0.31600035154484213
1772526389952012500,7.469012451171875,0.7654092027127742,-0.10219240036532282,0.22302374248802662
1772526389961995300,7.478995361328125,0.7009416989773511,-0.10221446606665849,0.14810520656071602
1772526389971977500,7.4889775390625,0.5836152962356805,-0.18180092073976992,0.07309095517396927
1772526389981959400,7.49895947265625,0.49962008520960804,-0.3477329489573836,0.07211399990059435
1772526389991941400,7.50894140625,0.3824526724219322,-0.5535828538045287,0.10516294060871005
1772526390001923300,7.51892333984375,0.24069383921325205,-0.6775830352216958,0.09774966867752373
1772526390011906300,7.52890625,0.17262743420302867,-0.636758711271733,0.0715627957586199
1772526390021888500,7.538888427734375,0.12607026568949223,-0.5144853536471724,-0.03619790625832975
1772526390031870500,7.548870361328125,0.06671791301071643,-0.3877573547013104,-0.21944215767420827
1772526390041852400,7.558852294921875,0.050963879039883614,-0.21859555078223347,-0.32126360583528873
1772526390051835600,7.568835693359375,-0.00243862532377243,-0.14490414549708366,-0.22240780254676937
1772526390061817300,7.5788173828125,-0.19328093065321444,-0.1595883582793176,0.01761537086330354
1772526390071799600,7.588799560546875,-0.5039204127520323,-0.09641133274585008,0.1534814197063446
1772526390081781500,7.598781494140625,-0.9022346711724996,0.04934577631875872,0.2382239419683814
1772526390091763500,7.608763427734375,-1.2459089923888444,0.16590017177462577,0.32795192449279126
1772526390101746400,7.618746337890625,-1.442410638654232,0.2297125726021826,0.3763669227674603
1772526390111728400,7.628728271484375,-1.478423616799712,0.30954408807754513,0.387742668588832
1772526390121710600,7.638710693359375,-1.3669465246081351,0.38297844986170526,0.2800815544888377
1772526390131692300,7.6486923828125,-1.056322240078449,0.3720636726155877,0.10811923313103615
1772526390141674500,7.658674560546875,-0.7122516130208969,0.28233839350491763,0.032426790221780535
1772526390151657200,7.6686572265625,-0.3691670743912458,0.2068649271085858,0.03636149932220578
1772526390161640000,7.678639892578125,-0.19263094231188296,0.12377411757633089,0.12179499952308832
1772526390171622100,7.6886220703125,-0.18388240318894386,0.1095372101701796,0.20358955869972706
1772526390181604000,7.69860400390625,-0.21308394775390624,0.22473785292953252,0.2508506376989186
1772526390191586000,7.7085859375,-0.1917927379220724,0.3412058852761984,0.283406314997375
1772526390201569000,7.718569091796875,-0.16026479623615741,0.3703179979920387,0.36478126052245496
1772526390211551000,7.728551025390625,-0.1439659878641367,0.32626550577580926,0.44375783966891463
1772526390221533200,7.738533203125,-0.13981003722846508,0.2719048239044845,0.4900489776574075
1772526390231515000,7.748514892578125,-0.1975315738350153,0.21303090239241718,0.5024797854896634
1772526390241497000,7.7584970703125,-0.23437165045440195,0.17080913273468612,0.49893480635918674
1772526390251480000,7.76847998046875,-0.2958171760201454,0.1114727082774043,0.4422682586982846
1772526390261462000,7.7784619140625,-0.3522901738703251,0.05704831352010369,0.32004436623863874
1772526390271444000,7.78844384765625,-0.39980011306405067,0.017974048107862472,0.23161504522264004
1772526390281426000,7.798426025390625,-0.4655138174682855,-0.07478036956563591,0.18945501568950712
1772526390291408100,7.808408203125,-0.5228501541495323,-0.14088964915871618,0.052113268270716065
1772526390301391000,7.81839111328125,-0.5795458548396826,-0.2105709420196712,-0.019179843701049686
1772526390311373000,7.828373046875,-0.6737152538776398,-0.3109031014710665,-0.08052892315499484
1772526390321355000,7.83835498046875,-0.6646119099676608,-0.30998832471370696,-0.10600154685731977
1772526390331337000,7.8483369140625,-0.5780798739403485,-0.2816781760305166,-0.023758220999874173
1772526390341319200,7.858319091796875,-0.44297582244575023,-0.14548413734212517,0.057250923420116305
1772526390351302100,7.86830224609375,-0.2863087584406137,0.19977467658668754,0.19143208791613578
1772526390361284000,7.8782841796875,-0.04404664699733257,0.532816398499161,0.41554516001082953
1772526390371266000,7.88826611328125,0.2295674650430679,0.6962966496504843,0.7413624836277216
1772526390381248000,7.898248046875,0.37051264378130433,0.45641573425531384,0.7257027038116007
1772526390391230200,7.908230224609375,0.23321721972227094,-0.19443959916904568,0.37747283818274735
1772526390401213000,7.918212890625,0.23229016800522803,-0.39690862940624355,0.04090454957932234
1772526390411195100,7.928195068359375,0.18200024270415305,-0.7515545726224779,0.00857194044701755
1772526390421177000,7.938177001953125,-0.238413034799695,-0.8785559816822409,-0.022889000417292117
