time,seconds_elapsed,z,y,x
1772526382565177300,0.08217724609375,0.08449345827102661,-0.11777356266975403,0.41706982254981995
1772526382575160600,0.09216064453125,0.07293028384447098,-0.09239497035741806,0.4478170871734619
1772526382585142300,0.102142333984375,0.07194765657186508,-0.07583006471395493,0.4630972146987915
1772526382595124500,0.11212451171875,0.06894014775753021,-0.07921520620584488,0.4486945569515228
1772526382605106400,0.1221064453125,0.06993433088064194,-0.09073223173618317,0.41885054111480713
1772526382615089400,0.13208935546875,0.07744257897138596,-0.09018974751234055,0.37306520342826843
1772526382625071600,0.142071533203125,0.07941579073667526,-0.07745373249053955,0.31639471650123596
1772526382635053300,0.15205322265625,0.08468858152627945,-0.04928334429860115,0.254862904548645
1772526382645035500,0.162035400390625,0.09541749954223633,-0.00794169306755066,0.19932521879673004
1772526382655017500,0.172017578125,0.095816969871521,0.033474989235401154,0.15669040381908417
1772526382665000400,0.18200048828125,0.09140162914991379,0.045600734651088715,0.12582790851593018
1772526382674982400,0.191982421875,0.08542336523532867,0.06586259603500366,0.11020874232053757
1772526382684964400,0.20196435546875,0.07993457466363907,0.07783498615026474,0.10600470751523972
1772526382694946600,0.211946533203125,0.07592012733221054,0.07964061200618744,0.10225816816091537
1772526382704928500,0.221928466796875,0.07465413212776184,0.05740446597337723,0.1052747294306755
1772526382714911500,0.231911376953125,0.07532551139593124,0.030512135475873947,0.11074033379554749
1772526382724893400,0.2418935546875,0.07310675084590912,0.008485296741127968,0.12405833601951599
1772526382734875400,0.25187548828125,0.05913873761892319,-0.014376875944435596,0.14792904257774353
1772526382744857300,0.261857421875,0.04170504957437515,-0.02561148814857006,0.17530754208564758
1772526382754840300,0.27184033203125,0.031180500984191895,-0.015036341734230518,0.20458447933197021
1772526382764822500,0.281822509765625,0.025023750960826874,-0.007184882648289204,0.23146265745162964
1772526382774804500,0.291804443359375,0.01693013869225979,-0.01927776448428631,0.2498810887336731
1772526382784786400,0.301786376953125,0.010580348782241344,-0.04303493723273277,0.26284781098365784
1772526382794768400,0.311768310546875,0.0019104275852441788,-0.06945428997278214,0.2635554075241089
1772526382804751400,0.32175146484375,0.003716479055583477,-0.10261550545692444,0.2581019103527069
1772526382814733600,0.331733642578125,0.01579870656132698,-0.10861480981111526,0.25343018770217896
1772526382824715300,0.34171533203125,0.01950877532362938,-0.09238932281732559,0.24751660227775574
1772526382834697500,0.351697509765625,0.023513637483119965,-0.07649850845336914,0.23645037412643433
1772526382844680200,0.36168017578125,0.021835049614310265,-0.05505121871829033,0.2227816879749298
1772526382854662400,0.371662353515625,0.024135755375027657,-0.0411178283393383,0.19874905049800873
1772526382864644600,0.38164453125,0.028844408690929413,-0.021517857909202576,0.1644342839717865
1772526382874626300,0.391626220703125,0.03393451124429703,-0.012163237668573856,0.13178898394107819
1772526382884608500,0.4016083984375,0.03172973170876503,0.00950697623193264,0.09954984486103058
1772526382894591200,0.41159130859375,0.02010742947459221,0.009240393526852131,0.0727216899394989
1772526382904573400,0.421573486328125,0.011334440670907497,0.00930078886449337,0.04507463797926903
1772526382914555400,0.431555419921875,0.0038235271349549294,-0.015160078182816505,0.023534195497632027
1772526382924537300,0.441537353515625,-0.005619373172521591,-0.041200581938028336,0.0018006889149546623
1772526382934520600,0.4515205078125,-0.012625351548194885,-0.071437306702137,-0.01088021881878376
1772526382944502300,0.461502197265625,-0.01628449745476246,-0.08095182478427887,-0.018595583736896515
1772526382954484500,0.471484375,-0.019320767372846603,-0.06507273018360138,-0.02158258482813835
1772526382964466400,0.481466552734375,-0.017675600945949554,-0.042728181928396225,-0.021126611158251762
1772526382974448400,0.491448486328125,-0.02048337087035179,-0.02789916843175888,-0.022481894120573997
1772526382984431600,0.501431640625,-0.025833051651716232,-0.017648085951805115,-0.021975405514240265
1772526382994413300,0.511413330078125,-0.033373259007930756,-0.011593122966587543,-0.02838403545320034
1772526383004395500,0.5213955078125,-0.04228704795241356,-0.01280183345079422,-0.04010627418756485
1772526383014377500,0.53137744140625,-0.046044766902923584,-0.03227433189749718,-0.049342915415763855
1772526383024359400,0.541359375,-0.045851949602365494,-0.05227062106132507,-0.05418562516570091
1772526383034342400,0.55134228515625,-0.04267772659659386,-0.051201630383729935,-0.04639880731701851
1772526383044324400,0.561324462890625,-0.03750678151845932,-0.02912580408155918,-0.03052113577723503
1772526383054306600,0.571306640625,-0.04170658439397812,-0.014053642749786377,-0.011384457349777222
1772526383064288300,0.581288330078125,-0.048849597573280334,-0.00640134047716856,0.002416384406387806
1772526383074271500,0.591271484375,-0.05542280897498131,-0.0035341812763363123,0.012749715708196163
1772526383084253200,0.601253173828125,-0.05917486920952797,-0.0057334378361701965,0.012313727289438248
1772526383094235400,0.6112353515625,-0.06251926720142365,-0.012456853874027729,0.004153002984821796
1772526383104217600,0.621217529296875,-0.05923343077301979,-0.02380615472793579,-0.00605391850695014
1772526383114199300,0.63119921875,-0.053839731961488724,-0.043151624500751495,-0.017033865675330162
1772526383124182500,0.6411826171875,-0.04797021672129631,-0.051871560513973236,-0.02026178129017353
1772526383134164200,0.651164306640625,-0.04395283758640289,-0.046811822801828384,-0.016507789492607117
1772526383144146400,0.661146484375,-0.04099484160542488,-0.037124812602996826,-0.006294392514973879
1772526383154128400,0.67112841796875,-0.037396375089883804,-0.026599999517202377,0.0057739876210689545
1772526383164110000,0.681110107421875,-0.03999483957886696,-0.01344981137663126,0.01422879844903946
1772526383174093300,0.69109326171875,-0.03716683015227318,-0.0030797284562140703,0.019428886473178864
1772526383184075000,0.701074951171875,-0.03161220625042915,0.00123164476826787,0.02457728236913681
1772526383194057200,0.71105712890625,-0.02346133440732956,0.009405684657394886,0.02228430099785328
1772526383204039200,0.7210390625,-0.022094670683145523,0.0002942304126918316,0.02103104442358017
1772526383214022100,0.731022216796875,-0.02170611545443535,-0.024329356849193573,0.017268262803554535
1772526383224004400,0.74100439453125,-0.021738437935709953,-0.04342449828982353,0.020887352526187897
1772526383233986000,0.750986083984375,-0.021449217572808266,-0.055358123034238815,0.02434173971414566
1772526383243968300,0.76096826171875,-0.020343467593193054,-0.065155029296875,0.024689530953764915
1772526383253950200,0.7709501953125,-0.019075270742177963,-0.06761685758829117,0.024785136803984642
1772526383263933200,0.78093310546875,-0.014037484303116798,-0.04943671077489853,0.023671310395002365
1772526383273915400,0.790915283203125,-0.010543683543801308,-0.022148363292217255,0.016335900872945786
1772526383283897000,0.80089697265625,-0.012018818408250809,0.0006905233021825552,0.005537883378565311
1772526383293879300,0.81087939453125,-0.017282556742429733,0.008055495098233223,-0.006296405103057623
1772526383303861200,0.820861328125,-0.022569887340068817,0.0036741874646395445,-0.01877986267209053
1772526383313844200,0.83084423828125,-0.029538048431277275,-0.006369125097990036,-0.028672970831394196
1772526383323826400,0.840826416015625,-0.032470885664224625,-0.030575059354305267,-0.025690635666251183
1772526383333808000,0.85080810546875,-0.026374375447630882,-0.04389912262558937,-0.012789750471711159
1772526383343790300,0.860790283203125,-0.01991850510239601,-0.04113176465034485,0.007015506736934185
1772526383353773000,0.87077294921875,-0.014990592375397682,-0.02929001674056053,0.029369547963142395
1772526383363755300,0.88075537109375,-0.005571626126766205,-0.011731864884495735,0.04636598005890846
1772526383373737200,0.8907373046875,0.0009107743389904499,0.0033703886438161135,0.055946435779333115
1772526383383719200,0.90071923828125,0.0052637699991464615,0.017963044345378876,0.05565269663929939
1772526383393701400,0.910701416015625,0.006223040632903576,0.02641192264854908,0.05491313710808754
1772526383403684000,0.92068408203125,0.004231812432408333,0.017443638294935226,0.050055745989084244
1772526383413666300,0.930666259765625,0.0016259090043604374,0.002317681908607483,0.04803813248872757
1772526383423648000,0.94064794921875,0.0001020645722746849,-0.012726073153316975,0.04379726201295853
1772526383433630200,0.950630126953125,-0.0028527125250548124,-0.015360738150775433,0.040178824216127396
1772526383443613200,0.96061328125,-0.0044705732725560665,-0.0056107863783836365,0.03493768721818924
1772526383453595100,0.97059521484375,-0.007080737501382828,0.021777695044875145,0.030032409355044365
1772526383463577300,0.980577392578125,-0.011436890810728073,0.03756387531757355,0.01718246564269066
1772526383473559000,0.99055908203125,-0.021694589406251907,0.042191118001937866,0.0031758351251482964
1772526383483541200,1.000541259765625,-0.02902192808687687,0.04115178808569908,-0.0057620638981461525
1772526383493524200,1.010524169921875,-0.043200597167015076,0.01766723394393921,-0.01381439808756113
1772526383503506200,1.020506103515625,-0.04977291822433472,-0.02474125847220421,-0.020369870588183403
1772526383513488400,1.03048828125,-0.0458170622587204,-0.03782590106129646,-0.020691579207777977
1772526383523470000,1.040469970703125,-0.03604639694094658,-0.03334420174360275,-0.014155376702547073
1772526383533452300,1.050452392578125,-0.0285826213657856,-0.014902608469128609,-0.0005932287313044071
1772526383543435000,1.06043505859375,-0.023087959736585617,0.0011309771798551083,0.006989766843616962
1772526383553417200,1.070417236328125,-0.018740348517894745,0.01412693690508604,0.017704728990793228
1772526383563399400,1.0803994140625,-0.015413723886013031,0.02397315762937069,0.021949246525764465
1772526383573381000,1.090381103515625,-0.009487657807767391,0.026667477563023567,0.02390693500638008
1772526383583364400,1.1003642578125,-0.013683082535862923,0.016835596412420273,0.02524125576019287
1772526383593346000,1.110345947265625,-0.01691296324133873,-0.0035783310886472464,0.026779763400554657
1772526383603328300,1.120328369140625,-0.01094115898013115,-0.014117182232439518,0.03716583549976349
1772526383613310200,1.130310302734375,-0.011248753406107426,-0.013080147095024586,0.05714114010334015
1772526383623292200,1.140292236328125,-0.01416858285665512,-0.013160976581275463,0.06897223740816116
1772526383633275400,1.150275390625,-0.012865763157606125,-0.018001537770032883,0.07665412873029709
1772526383643257000,1.160257080078125,-0.011714912950992584,-0.026181960478425026,0.07473200559616089
1772526383653239300,1.1702392578125,-0.013216670602560043,-0.02542189508676529,0.06741257756948471
1772526383663221200,1.18022119140625,-0.011322766542434692,-0.023828675970435143,0.05693967267870903
1772526383673203200,1.190203125,-0.009571472182869911,-0.0205556508153677,0.043200425803661346
1772526383683186200,1.200186279296875,-0.007975058630108833,-0.016390284523367882,0.03179153800010681
1772526383693168000,1.210168212890625,-0.008095699362456799,-0.005866271443665028,0.016639748588204384
1772526383703150300,1.220150390625,-0.009628968313336372,0.009169777855277061,0.0076551251113414764
1772526383713132000,1.230132080078125,-0.008702454157173634,0.01992681808769703,0.0007785768248140812
1772526383723114200,1.2401142578125,-0.010149969719350338,0.02928154543042183,-0.00984175968915224
1772526383733097200,1.25009716796875,-0.01127701997756958,0.03450560197234154,-0.02153676748275757
1772526383743079200,1.2600791015625,-0.012536803260445595,0.03191102668642998,-0.02651725523173809
1772526383753061400,1.270061279296875,-0.012764770537614822,0.028725354000926018,-0.03180522844195366
1772526383763043000,1.28004296875,-0.017225762829184532,0.018257251009345055,-0.03175412490963936
1772526383773026300,1.2900263671875,-0.020446056500077248,0.005640791729092598,-0.029985252767801285
1772526383783008000,1.300008056640625,-0.022583115845918655,-0.012299029156565666,-0.028892500326037407
1772526383792990200,1.309990234375,-0.019625142216682434,-0.03102797456085682,-0.024046344682574272
1772526383802972400,1.319972412109375,-0.009536289609968662,-0.05409600958228111,-0.02390493080019951
1772526383812954000,1.3299541015625,-0.001924443058669567,-0.06486210227012634,-0.021948574110865593
1772526383822937300,1.339937255859375,-0.0026898044161498547,-0.06227848306298256,-0.021519115194678307
1772526383832919000,1.3499189453125,-0.0021840701811015606,-0.05686108022928238,-0.026138901710510254
1772526383842901200,1.3599013671875,-0.008223084732890129,-0.051049087196588516,-0.03407048434019089
1772526383852883200,1.36988330078125,-0.01126707810908556,-0.04240686073899269,-0.04598919302225113
1772526383862865200,1.379865234375,-0.011971166357398033,-0.030288895592093468,-0.0596439354121685
1772526383872848400,1.389848388671875,-0.011598058044910431,-0.016977086663246155,-0.07628683000802994
1772526383882830000,1.399830078125,-0.010710375383496284,-0.002450324594974518,-0.08995519578456879
1772526383892812300,1.409812255859375,-0.003758459584787488,-0.005126269068568945,-0.09679951518774033
1772526383902794200,1.419794189453125,0.004907161928713322,-0.00120011274702847,-0.0972561165690422
1772526383912777200,1.429777099609375,0.012163742445409298,-0.0005380508955568075,-0.09261476248502731
1772526383922759200,1.43975927734375,0.01587957702577114,-0.0018656791653484106,-0.07857079803943634
1772526383932741000,1.4497412109375,0.02621503919363022,0.001626790501177311,-0.07007638365030289
1772526383942723300,1.459723388671875,0.03466732054948807,0.01046835444867611,-0.0555480495095253
1772526383952705000,1.469705078125,0.03082171268761158,0.011422298848628998,-0.04159468412399292
1772526383962688300,1.479688232421875,0.022598715499043465,0.012252363376319408,-0.03500010445713997
1772526383972670200,1.489670166015625,0.016150670126080513,0.01602046936750412,-0.025643620640039444
1772526383982652200,1.499652099609375,0.011120518669486046,0.014642307534813881,-0.01807447336614132
1772526383992634400,1.50963427734375,0.011596426367759705,0.025559669360518456,-0.011429354548454285
1772526384002616000,1.519615966796875,0.014472558163106441,0.03318393602967262,-0.010056162253022194
1772526384012599300,1.529599365234375,0.012923131696879864,0.04118620231747627,-0.010774683207273483
1772526384022581000,1.5395810546875,0.01270296424627304,0.04251888766884804,-0.021481169387698174
1772526384032563200,1.549563232421875,0.0071686492301523685,0.04284246265888214,-0.03038039058446884
1772526384042545400,1.55954541015625,-0.0001275273971259594,0.039340563118457794,-0.04127093404531479
1772526384052528000,1.569528076171875,-0.007763609290122986,0.032842718064785004,-0.05026283115148544
1772526384062510300,1.57951025390625,-0.009743653237819672,0.01977715827524662,-0.059624165296554565
1772526384072492000,1.589491943359375,-0.004670597147196531,0.0034485182259231806,-0.07125738263130188
1772526384082474200,1.59947412109375,0.004702381789684296,-0.012814783491194248,-0.08026813715696335
1772526384092456200,1.609456298828125,0.007518940605223179,-0.016979433596134186,-0.07632213085889816
1772526384102439200,1.619439208984375,0.011952808126807213,-0.010598523542284966,-0.06980501860380173
1772526384112421400,1.62942138671875,0.010199649259448051,-0.0046769846230745316,-0.05755235254764557
1772526384122403000,1.639403076171875,0.01166810467839241,-0.006351429037749767,-0.046837352216243744
1772526384132385300,1.64938525390625,0.012458529323339462,-0.004556991159915924,-0.03537164628505707
1772526384142367200,1.6593671875,0.016956720501184464,-0.005532384850084782,-0.024059755727648735
1772526384152351000,1.66935107421875,0.019364219158887863,-0.009769207797944546,-0.008616883307695389
1772526384162333000,1.6793330078125,0.022907836362719536,-0.011097950860857964,0.004577694460749626
1772526384172315000,1.68931494140625,0.02528391033411026,-0.0256369449198246,0.018275663256645203
1772526384182297000,1.699297119140625,0.02563110552728176,-0.03992144390940666,0.028146736323833466
1772526384192278800,1.70927880859375,0.025666790083050728,-0.047398801892995834,0.03563740849494934
1772526384202262000,1.719261962890625,0.02118450589478016,-0.04307851940393448,0.04136233776807785
1772526384212244000,1.729243896484375,0.020682234317064285,-0.03551487624645233,0.041218794882297516
1772526384222226000,1.739225830078125,0.012863349169492722,-0.025479411706328392,0.034018296748399734
1772526384232208100,1.7492080078125,0.013426341116428375,-0.008765146136283875,0.023655403405427933
1772526384242191000,1.759191162109375,0.007485003210604191,0.004824482835829258,0.016404248774051666
1772526384252173000,1.769173095703125,0.0011259070597589016,0.014636900275945663,0.007346571888774633
1772526384262155000,1.779155029296875,0.0002690865658223629,0.028215991333127022,0.004415029659867287
1772526384272137000,1.789136962890625,-0.0013908613473176956,0.036473389714956284,0.006432640366256237
1772526384282119000,1.799118896484375,-0.0028663224074989557,0.03259371221065521,0.005080848932266235
1772526384292102000,1.809101806640625,-0.004715355113148689,0.019261127337813377,0.002733804751187563
1772526384302084000,1.819083984375,-0.003509504720568657,-0.0019411195535212755,0.0024960734881460667
1772526384312066000,1.829066162109375,-0.0052101993933320045,-0.017881469801068306,-0.000540462788194418
1772526384322048000,1.839048095703125,-0.0076205916702747345,-0.02932312712073326,-0.006391267757862806
1772526384332030000,1.849030029296875,-0.005249578971415758,-0.03411548584699631,-0.009571347385644913
1772526384342013000,1.859012939453125,-0.004490062594413757,-0.023871544748544693,-0.013289334252476692
1772526384351995000,1.868994873046875,-0.0049851443618535995,-0.02361455000936985,-0.019363470375537872
1772526384361976800,1.878976806640625,-0.001518316101282835,-0.019759932532906532,-0.028471969068050385
1772526384371959000,1.888958984375,0.006537479814141989,-0.009493445977568626,-0.03603614494204521
1772526384381942000,1.89894189453125,0.016936330124735832,-0.0013489089906215668,-0.04269752651453018
1772526384391924000,1.908924072265625,0.02185066044330597,-0.0010165460407733917,-0.048677392303943634
1772526384401906000,1.918906005859375,0.02926591970026493,-0.009696518070995808,-0.046935271471738815
1772526384411887900,1.928887939453125,0.031522415578365326,-0.017052700743079185,-0.04137406125664711
1772526384421870000,1.9388701171875,0.030964693054556847,-0.01700756512582302,-0.03722299635410309
1772526384431853000,1.94885302734375,0.025285767391324043,-0.010963786393404007,-0.03480963781476021
1772526384441835000,1.9588349609375,0.022838899865746498,0.0018604215001687407,-0.033307310193777084
1772526384451817000,1.96881689453125,0.01820952817797661,0.01298923883587122,-0.03196188434958458
1772526384461799000,1.978798828125,0.014829584397375584,0.03193537890911102,-0.03862055763602257
1772526384471781000,1.988781005859375,0.010227109305560589,0.03876771777868271,-0.0440605953335762
1772526384481764000,1.99876416015625,0.0055615343153476715,0.04794728010892868,-0.04702767729759216
1772526384491746000,2.00874609375,0.00585528090596199,0.04486280679702759,-0.05024131387472153
1772526384501728000,2.01872802734375,0.006427767686545849,0.03819616138935089,-0.058059725910425186
1772526384511710000,2.0287099609375,0.005266097374260426,0.0347585529088974,-0.05685703828930855
1772526384521692200,2.038692138671875,-0.0019403351470828056,0.03669663518667221,-0.05366237834095955
1772526384531675000,2.0486748046875,-0.008358286693692207,0.03724950924515724,-0.053510311990976334
1772526384541657000,2.058656982421875,-0.007022826932370663,0.03700404614210129,-0.053637437522411346
1772526384551639000,2.06863916015625,-0.007499266415834427,0.02788138948380947,-0.0505143478512764
1772526384561621000,2.07862109375,-0.0011943900026381016,0.019320517778396606,-0.048529647290706635
1772526384571604000,2.08860400390625,0.0027633337303996086,0.016714880242943764,-0.0456843264400959
1772526384581586000,2.0985859375,0.004891384858638048,0.015199441462755203,-0.0402306392788887
1772526384591568000,2.10856787109375,0.010927172377705574,0.026270201429724693,-0.04124743491411209
1772526384601549800,2.1185498046875,0.011371295899152756,0.026471054181456566,-0.04034265875816345
1772526384611532000,2.128531982421875,0.0034899371676146984,0.016163023188710213,-0.04603037238121033
1772526384621515000,2.138514892578125,-0.000021481886506080627,0.01753814145922661,-0.05542587861418724
1772526384631497000,2.1484970703125,-0.01013110764324665,-0.012047449126839638,-0.06822556257247925
1772526384641479000,2.15847900390625,-0.011249802075326443,-0.008616491220891476,-0.06132197380065918
1772526384651460900,2.1684609375,-0.013361155986785889,0.0013906029053032398,-0.04964667558670044
1772526384661443000,2.178443115234375,-0.010555580258369446,0.010104806162416935,-0.035027507692575455
1772526384671426000,2.188426025390625,-0.003406856907531619,0.01744367927312851,-0.021973488852381706
1772526384681408000,2.198407958984375,0.0043241772800683975,0.015129419043660164,-0.011104404926300049
1772526384691390000,2.208389892578125,0.010544789023697376,0.005082111340016127,-0.004226525314152241
1772526384701372000,2.218371826171875,0.014721164479851723,-0.007401931099593639,0.006194671615958214
1772526384711354000,2.22835400390625,0.018828291445970535,-0.014973297715187073,0.007843434810638428
1772526384721337000,2.238337158203125,0.01988336071372032,-0.022608358412981033,0.007850938476622105
1772526384731319000,2.248319091796875,0.01909266784787178,-0.027323218062520027,0.006972361821681261
1772526384741301000,2.258301025390625,0.02038278430700302,-0.03438848257064819,0.0018782028928399086
1772526384751283000,2.268282958984375,0.013326739892363548,-0.03117164969444275,-0.006632993463426828
1772526384761266000,2.278265869140625,0.005991894751787186,-0.028825324028730392,-0.017076954245567322
1772526384771247900,2.288247802734375,-0.0011030323803424835,-0.014014420099556446,-0.015506487339735031
1772526384781230000,2.29822998046875,-0.00954254250973463,-0.0023678659927099943,-0.015359971672296524
1772526384791211800,2.308211669921875,-0.014670725911855698,0.011051270179450512,-0.014203893020749092
1772526384801194000,2.318194091796875,-0.017797155305743217,0.018486255779862404,-0.013301003724336624
1772526384811177000,2.328177001953125,-0.015218149870634079,0.013759944587945938,-0.016681354492902756
1772526384821159000,2.338158935546875,-0.015697188675403595,0.0023839115165174007,-0.019131207838654518
1772526384831141000,2.34814111328125,-0.009481105022132397,-0.00891641341149807,-0.018319476395845413
1772526384841122800,2.358122802734375,-0.015352297574281693,-0.021130885928869247,-0.021308111026883125
1772526384851105000,2.36810498046875,-0.015860429033637047,-0.030848227441310883,-0.023651959374547005
1772526384861088000,2.378087890625,-0.022982550784945488,-0.025151215493679047,-0.023074232041835785
1772526384871070000,2.388070068359375,-0.027045736089348793,-0.021769534796476364,-0.02149338088929653
1772526384881052000,2.398052001953125,-0.03024551086127758,-0.012903489172458649,-0.022191962227225304
1772526384891033900,2.408033935546875,-0.034783538430929184,-0.002109964145347476,-0.017927177250385284
1772526384901016800,2.418016845703125,-0.038126926869153976,-0.012138230726122856,-0.02050032839179039
1772526384910999000,2.4279990234375,-0.03927235305309296,-0.023076100274920464,-0.02621786668896675
1772526384920981000,2.43798095703125,-0.03146665170788765,-0.03640438988804817,-0.024644136428833008
1772526384930963000,2.447962890625,-0.026091858744621277,-0.032152920961380005,-0.025480102747678757
1772526384940945000,2.45794482421875,-0.02355315536260605,-0.030371952801942825,-0.02373671345412731
1772526384950928000,2.467927978515625,-0.023272724822163582,-0.019601332023739815,-0.025316501036286354
1772526384960909800,2.477909912109375,-0.0244290791451931,-0.013071376830339432,-0.023430414497852325
1772526384970892000,2.48789208984375,-0.029619313776493073,-0.0064379749819636345,-0.02418648451566696
1772526384980874000,2.4978740234375,-0.031177444383502007,-0.00806314405053854,-0.02606010250747204
1772526384990856000,2.50785595703125,-0.03764040395617485,-0.022736629471182823,-0.0272060614079237
1772526385000839000,2.5178388671875,-0.04273029416799545,-0.0323057658970356,-0.024026254191994667
1772526385010820900,2.52782080078125,-0.04211004450917244,-0.03573884814977646,-0.019198207184672356
1772526385020803000,2.537802978515625,-0.04558858275413513,-0.025074386969208717,-0.009685462340712547
1772526385030784800,2.54778466796875,-0.04852418601512909,-0.01425715908408165,-0.0000714501366019249
1772526385040767000,2.55776708984375,-0.048599813133478165,-0.008793093264102936,0.009833360090851784
1772526385050750000,2.56775,-0.04310331493616104,-0.006177070550620556,0.01732882857322693
1772526385060732000,2.57773193359375,-0.03719695657491684,0.000671514542773366,0.02095179259777069
1772526385070714000,2.587714111328125,-0.03692293539643288,0.00237869331613183,0.020745450630784035
1772526385080695800,2.59769580078125,-0.03821554780006409,0.0014259722083806992,0.017298437654972076
1772526385090679000,2.607678955078125,-0.043682217597961426,-0.005357898306101561,0.0074732378125190735
1772526385100661000,2.617660888671875,-0.04321286454796791,-0.01923529803752899,-0.0026250723749399185
1772526385110643000,2.627642822265625,-0.04218781366944313,-0.03370531648397446,-0.011168227531015873
1772526385120625000,2.637625,-0.035226427018642426,-0.04251949489116669,-0.016787324100732803
1772526385130606800,2.64760693359375,-0.02768595516681671,-0.042564235627651215,-0.02086755447089672
1772526385140590000,2.657590087890625,-0.018132835626602173,-0.037649691104888916,-0.023130541667342186
1772526385150571800,2.66757177734375,-0.013978836126625538,-0.02743886411190033,-0.02152305841445923
1772526385160553700,2.6775537109375,-0.011273590847849846,-0.018823746591806412,-0.021327335387468338
1772526385170535700,2.68753564453125,-0.012149771675467491,-0.01743517443537712,-0.017887596040964127
1772526385180518000,2.697517822265625,-0.014869367703795433,-0.032460231333971024,-0.016350489109754562
1772526385190500900,2.7075009765625,-0.014961248263716698,-0.04255174845457077,-0.012381315231323242
1772526385200482800,2.71748291015625,-0.011422989889979362,-0.042344994843006134,-0.0044301277957856655
1772526385210464800,2.72746484375,-0.00022040214389562607,-0.028271254152059555,-0.0007232739590108395
1772526385220446700,2.73744677734375,0.006535875611007214,-0.015497601591050625,0.0036308583803474903
1772526385230428700,2.7474287109375,0.01773500069975853,0.002755171852186322,0.00987490639090538
1772526385240411600,2.75741162109375,0.01968850940465927,0.013399394229054451,0.012442927807569504
1772526385250393900,2.767393798828125,0.022421181201934814,0.013056378811597824,0.01681530475616455
1772526385260375800,2.777375732421875,0.018897071480751038,0.0034578677732497454,0.02117578312754631
1772526385270357800,2.787357666015625,0.014209375716745853,-0.0036474457010626793,0.028897084295749664
1772526385280341000,2.797341064453125,0.01233464851975441,-0.01614229381084442,0.03468542918562889
1772526385290322700,2.80732275390625,0.01107337512075901,-0.02721518464386463,0.040481265634298325
1772526385300305000,2.817304931640625,0.013667283579707146,-0.037739045917987823,0.03312432020902634
1772526385310286800,2.827286865234375,0.015468645840883255,-0.04090607911348343,0.026800110936164856
1772526385320268800,2.837268798828125,0.017274539917707443,-0.0407281257212162,0.012776419520378113
1772526385330251800,2.847251708984375,0.014291800558567047,-0.03229682147502899,-0.0029428880661726
1772526385340233700,2.857233642578125,0.016495633870363235,-0.02010168880224228,-0.011851457878947258
1772526385350216000,2.8672158203125,0.011658001691102982,-0.0029485360719263554,-0.020932570099830627
1772526385360198000,2.877197998046875,0.01500399224460125,0.0022688054013997316,-0.02728685736656189
1772526385370179800,2.887179931640625,0.013306759297847748,-0.009195569902658463,-0.018877392634749413
1772526385380162800,2.897162841796875,0.014644879847764969,-0.024473857134580612,-0.009133698418736458
1772526385390144800,2.907144775390625,0.018648942932486534,-0.041044048964977264,0.012217927724123001
1772526385400126700,2.917126708984375,0.024634908884763718,-0.04676182195544243,0.030878771096467972
1772526385410109000,2.92710888671875,0.02736225165426731,-0.04994909465312958,0.041131142526865005
1772526385420091000,2.9370908203125,0.03143090382218361,-0.044601231813430786,0.048313893377780914
1772526385430073900,2.947073974609375,0.032672733068466187,-0.0245945006608963,0.043266139924526215
1772526385440055800,2.957055908203125,0.02674853801727295,-0.018077686429023743,0.028425924479961395
1772526385450037800,2.967037841796875,0.018012303858995438,-0.011047741398215294,0.008789904415607452
1772526385460019700,2.977019775390625,0.01483851671218872,-0.006552332080900669,-0.010042255744338036
1772526385470001700,2.987001708984375,0.01014629378914833,-0.005745661444962025,-0.028643103316426277
1772526385479984600,2.996984619140625,0.020281793549656868,0.003071938641369343,-0.03436689078807831
1772526385489966800,3.006966796875,0.022620314732193947,0.009168180637061596,-0.03035351075232029
1772526385499948800,3.01694873046875,0.026132728904485703,0.014506196603178978,-0.017273303121328354
1772526385509930800,3.0269306640625,0.03533767908811569,0.021468497812747955,-0.004379076883196831
1772526385519914000,3.0369140625,0.03770282864570618,0.016211627051234245,0.0005837404169142246
1772526385529895700,3.046895751953125,0.03989940136671066,0.00420689582824707,0.007493045646697283
1772526385539878000,3.0568779296875,0.03929930925369263,-0.005984589457511902,0.007507491856813431
1772526385549859800,3.06685986328125,0.04231906682252884,-0.011931694112718105,0.011494509875774384
1772526385559841800,3.076841796875,0.04405615106225014,-0.00777024682611227,0.014240614138543606
1772526385569824800,3.08682470703125,0.04772438853979111,0.005945032928138971,0.014548208564519882
1772526385579806700,3.096806640625,0.05469736456871033,0.01312141865491867,0.011068452149629593
1772526385589789000,3.106788818359375,0.060945674777030945,0.014895083382725716,0.004628129303455353
1772526385599771000,3.11677099609375,0.061692431569099426,0.021312560886144638,0.002550046890974045
1772526385609752800,3.1267529296875,0.0651841014623642,0.02534991316497326,-0.0037304856814444065
1772526385619735800,3.13673583984375,0.06395576894283295,0.021813994273543358,-0.0065651084296405315
1772526385629717800,3.1467177734375,0.05790800228714943,0.012083068490028381,-0.007615991402417421
1772526385639699700,3.15669970703125,0.057461123913526535,0.0008290829136967659,-0.005223674234002829
1772526385649682000,3.166681884765625,0.056931156665086746,-0.01669451594352722,-0.000491769053041935
1772526385659663600,3.17666357421875,0.057898927479982376,-0.024332962930202484,0.008198464289307594
1772526385669646800,3.186646728515625,0.0558573454618454,-0.0284640584141016,0.01786440797150135
1772526385679628800,3.19662890625,0.05078395456075668,-0.027322610840201378,0.030337084084749222
1772526385689610800,3.20661083984375,0.0514657236635685,-0.02004738710820675,0.03051125630736351
1772526385699592700,3.2165927734375,0.04889329522848129,-0.012437237426638603,0.023639565333724022
1772526385709576000,3.226575927734375,0.04509748890995979,-0.011135484091937542,0.010081412270665169
1772526385719558000,3.236557861328125,0.034566618502140045,-0.0278860442340374,-0.012480632402002811
1772526385729539800,3.246539794921875,0.022297168150544167,-0.053309377282857895,-0.03831009939312935
1772526385739521800,3.256521728515625,0.014204598031938076,-0.06509889662265778,-0.05283011496067047
1772526385749503700,3.266503662109375,0.006422841921448708,-0.057793039828538895,-0.06531421840190887
1772526385759487000,3.276487060546875,0.004561500623822212,-0.028149528428912163,-0.060935184359550476
1772526385769468700,3.28646875,-0.00038052769377827644,0.004786581266671419,-0.051000528037548065
1772526385779451000,3.296450927734375,0.005718168802559376,0.030240943655371666,-0.03836808353662491
1772526385789432800,3.306432861328125,0.009063365869224072,0.04466835409402847,-0.023248519748449326
1772526385799414800,3.316414794921875,0.01951291412115097,0.04083932563662529,-0.009177046827971935
1772526385809397800,3.326397705078125,0.018332067877054214,0.022743944078683853,0.0077100577764213085
1772526385819379700,3.336379638671875,0.027165018022060394,-0.003940907306969166,0.018032509833574295
1772526385829361700,3.346361572265625,0.025624115020036697,-0.022145744413137436,0.0332237109541893
1772526385839343900,3.35634375,0.025974027812480927,-0.03458867967128754,0.04317905008792877
1772526385849325800,3.366325927734375,0.019206935539841652,-0.04105110466480255,0.04707898199558258
1772526385859308800,3.376308837890625,0.012643743306398392,-0.029647991061210632,0.0474143922328949
1772526385869290800,3.386290771484375,0.006348829250782728,-0.014261579141020775,0.03955646976828575
1772526385879272700,3.396272705078125,-0.0026240667793899775,-0.004222842864692211,0.021150730550289154
1772526385889255000,3.4062548828125,-0.003438461571931839,0.006855108309537172,0.0060181161388754845
1772526385899238000,3.41623779296875,-0.008946261368691921,0.00502240564674139,-0.00761949410662055
1772526385909219800,3.4262197265625,-0.01128771249204874,-0.00995654333382845,-0.025054942816495895
1772526385919201800,3.436201904296875,-0.016296910122036934,-0.021183233708143234,-0.03593875467777252
1772526385929183700,3.446183837890625,-0.019802428781986237,-0.038765422999858856,-0.03964933753013611
1772526385939166000,3.456166015625,-0.021490074694156647,-0.047068361192941666,-0.03177543357014656
1772526385949149000,3.46614892578125,-0.02560199424624443,-0.04590429365634918,-0.023455189540982246
1772526385959131000,3.476130859375,-0.030456718057394028,-0.029259998351335526,-0.01310786698013544
1772526385969112800,3.48611279296875,-0.03136005997657776,-0.011553438380360603,-0.004766047932207584
1772526385979094800,3.4960947265625,-0.033830467611551285,0.008085106499493122,0.0024311398155987263
1772526385989076700,3.50607666015625,-0.02921893820166588,0.02019503153860569,0.004938771948218346
1772526385999059700,3.516059814453125,-0.018663562834262848,0.03295564278960228,0.0040636686608195305
1772526386009041700,3.526041748046875,-0.009577389806509018,0.03757276386022568,0.004446631297469139
1772526386019024000,3.53602392578125,-0.002408160362392664,0.038281697779893875,0.005212023854255676
1772526386029005800,3.546005859375,0.00028402917087078094,0.03699379414319992,0.006648000329732895
1772526386038987800,3.55598779296875,-0.0011043916456401348,0.02786962129175663,0.006713420152664185
1772526386048970800,3.565970703125,-0.004108970053493977,0.011848044581711292,0.011779285036027431
1772526386058952700,3.57595263671875,-0.007342742756009102,0.006343357264995575,0.014744311571121216
1772526386068934700,3.5859345703125,-0.011801939457654953,-0.0047255391255021095,0.016434887424111366
1772526386078916900,3.595916748046875,-0.008960053324699402,-0.018684737384319305,0.018061455339193344
1772526386088899800,3.60589990234375,-0.008381614461541176,-0.03085991181433201,0.013234741985797882
1772526386098881800,3.6158818359375,-0.005559234879910946,-0.03994835540652275,0.0015462548471987247
1772526386108863700,3.62586376953125,-0.00003370828926563263,-0.04416147619485855,-0.013432161882519722
1772526386118845700,3.635845703125,0.0036291335709393024,-0.03432907164096832,-0.030246799811720848
1772526386128828000,3.645827880859375,0.013976579532027245,-0.015343395993113518,-0.04354849085211754
1772526386138811000,3.655810791015625,0.026257790625095367,0.01215962041169405,-0.05356353148818016
1772526386148792300,3.665792236328125,0.044780343770980835,0.038084693253040314,-0.055881012231111526
1772526386158774000,3.67577392578125,0.05806945264339447,0.055005691945552826,-0.05581335723400116
1772526386168756200,3.685756103515625,0.0641622319817543,0.053149737417697906,-0.05421732738614082
1772526386178738200,3.69573828125,0.07313815504312515,0.04232371971011162,-0.05467938631772995
1772526386188721200,3.70572119140625,0.07641969621181488,0.030409004539251328,-0.056931622326374054
1772526386198703400,3.715703369140625,0.08504931628704071,0.021766621619462967,-0.06308344006538391
1772526386208685000,3.72568505859375,0.09545668214559555,0.017851242795586586,-0.07574304193258286
1772526386218667300,3.735667236328125,0.1051565483212471,0.020209746435284615,-0.09129442274570465
1772526386228649200,3.745649169921875,0.11954054236412048,0.03221367672085762,-0.09909562021493912
1772526386238632200,3.755632080078125,0.13043439388275146,0.04634857550263405,-0.10631618648767471
1772526386248614100,3.7656142578125,0.13706353306770325,0.055158309638500214,-0.11507665365934372
1772526386258596000,3.77559619140625,0.13867764174938202,0.05338402837514877,-0.12163963913917542
1772526386268578000,3.785578125,0.13559797406196594,0.05312463641166687,-0.1300238072872162
1772526386278561000,3.79556103515625,0.12656870484352112,0.05645440146327019,-0.13171353936195374
1772526386288543200,3.805543212890625,0.11865779757499695,0.060466986149549484,-0.13022324442863464
1772526386298525200,3.815525146484375,0.11218079924583435,0.06384263932704926,-0.13095781207084656
1772526386308507100,3.825507080078125,0.11209424585103989,0.0660216435790062,-0.12968376278877258
1772526386318489000,3.835489013671875,0.1066029816865921,0.07047524303197861,-0.12538395822048187
1772526386328472000,3.84547216796875,0.1022079661488533,0.059501416981220245,-0.12498768419027328
1772526386338454300,3.855454345703125,0.10052110999822617,0.03999743238091469,-0.1296364814043045
1772526386348436200,3.865436279296875,0.09008178859949112,0.030254259705543518,-0.13756896555423737
1772526386358418200,3.875418212890625,0.0788603201508522,0.030608484521508217,-0.15015169978141785
1772526386368400100,3.885400146484375,0.07002448290586472,0.035228002816438675,-0.16774800419807434
1772526386378383000,3.895383056640625,0.06863357871770859,0.020449306815862656,-0.18444152176380157
1772526386388365300,3.905365234375,0.06609559059143066,-0.010346955619752407,-0.19851632416248322
1772526386398347300,3.91534716796875,0.06361450999975204,-0.040941447019577026,-0.19235371053218842
1772526386408329200,3.9253291015625,0.05557309463620186,-0.07039734721183777,-0.18115831911563873
1772526386418311200,3.935311279296875,0.0526714026927948,-0.07333944737911224,-0.1558312028646469
1772526386428294100,3.945294189453125,0.0542738251388073,-0.06025746837258339,-0.1266016811132431
1772526386438276000,3.955276123046875,0.06037328764796257,-0.03916605934500694,-0.10275900363922119
1772526386448258000,3.965258056640625,0.06361089646816254,-0.011914201080799103,-0.08284042030572891
1772526386458240300,3.975240234375,0.06518647819757462,0.01394842192530632,-0.06400228291749954
1772526386468223000,3.985222900390625,0.0669228583574295,0.021265458315610886,-0.05132110416889191
1772526386478205200,3.995205078125,0.07454188913106918,0.02964104153215885,-0.0397440567612648
1772526386488187100,4.005187255859375,0.07604071497917175,0.03427307680249214,-0.027149967849254608
1772526386498169000,4.015169189453125,0.06950847059488297,0.027412015944719315,-0.017226826399564743
1772526386508151000,4.025151123046875,0.06754545122385025,0.011231182143092155,-0.007472464814782143
1772526386518134000,4.035134033203125,0.0635819137096405,-0.006723623722791672,-0.0037580938078463078
1772526386528116200,4.0451162109375,0.05810725688934326,-0.024327650666236877,0.0005333242006599903
1772526386538098200,4.05509814453125,0.052872296422719955,-0.0373774990439415,0.004173546098172665
1772526386548080000,4.065080078125,0.04507429152727127,-0.04017195478081703,0.015118071809411049
1772526386558062000,4.07506201171875,0.04790818691253662,-0.028128638863563538,0.029885228723287582
1772526386568045000,4.085045166015625,0.04634277895092964,-0.011582421138882637,0.0394451767206192
1772526386578027300,4.09502734375,0.04524541646242142,0.008304320275783539,0.046756863594055176
1772526386588009200,4.10500927734375,0.04226720333099365,0.030169937759637833,0.05404407158493996
1772526386597991200,4.1149912109375,0.03936023637652397,0.04200863465666771,0.055591657757759094
1772526386607973000,4.12497314453125,0.031560637056827545,0.03658164665102959,0.04280076175928116
1772526386617956000,4.1349560546875,0.026036418974399567,0.016808239743113518,0.022576788440346718
1772526386627938300,4.144938232421875,0.031036771833896637,0.007357480935752392,0.004186063073575497
1772526386637920300,4.154920166015625,0.03386994078755379,0.003865552134811878,-0.018732421100139618
1772526386647902200,4.164902099609375,0.035043865442276,0.00883740745484829,-0.03596440702676773
1772526386657884200,4.17488427734375,0.02913394197821617,0.021896209567785263,-0.038586702197790146
1772526386667867100,4.1848671875,0.02654588222503662,0.04887695983052254,-0.037316638976335526
1772526386677849000,4.19484912109375,0.020346812903881073,0.06693504005670547,-0.03296308219432831
1772526386687831000,4.2048310546875,0.020912734791636467,0.08486929535865784,-0.028303349390625954
1772526386697813200,4.214813232421875,0.016743909567594528,0.09482354670763016,-0.029858186841011047
1772526386707796200,4.224796142578125,0.008521665818989277,0.09887927770614624,-0.029224354773759842
1772526386717778200,4.234778076171875,0.006124740466475487,0.10156603902578354,-0.030452271923422813
1772526386727760100,4.244760009765625,-0.00019121216610074043,0.10683190822601318,-0.027162732556462288
1772526386737742000,4.2547421875,-0.00397877860814333,0.1071435883641243,-0.028265763074159622
1772526386747724000,4.26472412109375,-0.008599363267421722,0.09748909622430801,-0.037131160497665405
1772526386757707000,4.27470703125,-0.008558870293200016,0.078683041036129,-0.051119446754455566
1772526386767689200,4.284689208984375,-0.011483287438750267,0.07068636268377304,-0.0641670748591423
1772526386777671200,4.294671142578125,-0.01782284304499626,0.06623329222202301,-0.08055894821882248
1772526386787653000,4.304653076171875,-0.02840970829129219,0.04603109136223793,-0.09382548183202744
1772526386797635000,4.314635009765625,-0.032516296952962875,0.025491252541542053,-0.10830032080411911
1772526386807618000,4.3246181640625,-0.04158755764365196,0.013982136733829975,-0.1121286153793335
1772526386817600300,4.334600341796875,-0.04420774430036545,0.018447941169142723,-0.11610373854637146
1772526386827582200,4.344582275390625,-0.04380667209625244,0.02305627427995205,-0.10888444632291794
1772526386837564200,4.354564208984375,-0.04285130277276039,0.024245116859674454,-0.0969618633389473
1772526386847546000,4.364546142578125,-0.04782075807452202,0.02186744660139084,-0.07777512073516846
1772526386857529000,4.374529052734375,-0.049293577671051025,0.015664197504520416,-0.060169920325279236
1772526386867511300,4.38451123046875,-0.044543564319610596,0.009510163217782974,-0.049630194902420044
1772526386877493200,4.3944931640625,-0.038827523589134216,0.00827659573405981,-0.04342195391654968
1772526386887475200,4.40447509765625,-0.033409588038921356,-0.008589203469455242,-0.05045589432120323
1772526386897457200,4.41445703125,-0.02841418795287609,-0.022109530866146088,-0.056833624839782715
1772526386907440000,4.424440185546875,-0.030065879225730896,-0.032025281339883804,-0.06458529084920883
1772526386917422000,4.434422119140625,-0.034582607448101044,-0.04195934534072876,-0.07451849430799484
1772526386927404300,4.444404296875,-0.03786575049161911,-0.04034706577658653,-0.07956518232822418
1772526386937386200,4.45438623046875,-0.03859862685203552,-0.04516514390707016,-0.08116910606622696
1772526386947369200,4.464369140625,-0.04308152571320534,-0.04262315854430199,-0.07184697687625885
1772526386957351200,4.47435107421875,-0.05317867174744606,-0.03105035424232483,-0.0677468329668045
1772526386967333000,4.4843330078125,-0.05190914496779442,-0.01038981694728136,-0.05858929082751274
1772526386977315000,4.494315185546875,-0.046813637018203735,0.004706944338977337,-0.055161863565444946
1772526386987297000,4.504297119140625,-0.042599719017744064,0.018530348315835,-0.04785388335585594
1772526386997280000,4.514280029296875,-0.03633048012852669,0.028955169022083282,-0.040089018642902374
1772526387007262200,4.52426220703125,-0.03690199553966522,0.03139728680253029,-0.031800996512174606
1772526387017244200,4.534244140625,-0.039780084043741226,0.022532574832439423,-0.026775844395160675
1772526387027226000,4.54422607421875,-0.0456014908850193,0.01102452352643013,-0.0236120093613863
1772526387037208000,4.5542080078125,-0.055307745933532715,-0.009619775228202343,-0.020393725484609604
1772526387047191000,4.56419091796875,-0.06226765364408493,-0.02540086768567562,-0.014393091201782227
1772526387057173200,4.57417333984375,-0.07668482512235641,-0.032219771295785904,-0.00829939916729927
1772526387067155200,4.5841552734375,-0.08515101671218872,-0.034988660365343094,-0.001744027715176344
1772526387077137200,4.59413720703125,-0.10139432549476624,-0.04289466142654419,-0.00004375306889414787
1772526387087119000,4.604119140625,-0.11345711350440979,-0.06564711034297943,-0.005739189218729734
1772526387097102000,4.61410205078125,-0.12025128304958344,-0.08659245073795319,-0.016964761540293694
1772526387107084300,4.624084228515625,-0.13015663623809814,-0.10010986030101776,-0.025449326261878014
1772526387117066200,4.634066162109375,-0.13830441236495972,-0.09546483308076859,-0.029691072180867195
1772526387127048200,4.644048095703125,-0.14441530406475067,-0.07833938300609589,-0.03417637199163437
1772526387137030100,4.654030029296875,-0.15149538218975067,-0.06980529427528381,-0.0367431677877903
1772526387147013000,4.66401318359375,-0.15642568469047546,-0.06716637313365936,-0.04135097190737724
1772526387156995000,4.6739951171875,-0.16405966877937317,-0.06725262105464935,-0.044302478432655334
1772526387166977000,4.68397705078125,-0.16920702159404755,-0.0695972666144371,-0.047079622745513916
1772526387176959000,4.693958984375,-0.17601914703845978,-0.06342616677284241,-0.04555409401655197
1772526387186942200,4.703942138671875,-0.18730534613132477,-0.04857637360692024,-0.0350513830780983
1772526387196924000,4.713923828125,-0.19364731013774872,-0.040150925517082214,-0.023128796368837357
1772526387206906000,4.723906005859375,-0.19218629598617554,-0.0264593455940485,-0.01036905962973833
1772526387216888000,4.73388818359375,-0.18255969882011414,-0.015575820580124855,0.004287084564566612
1772526387226870000,4.7438701171875,-0.17129293084144592,-0.002355356002226472,0.01582283154129982
1772526387236853200,4.753853271484375,-0.16273616254329681,0.011899768374860287,0.02578696236014366
1772526387246835000,4.7638349609375,-0.15753979980945587,0.02464858628809452,0.03486328199505806
1772526387256817200,4.773817138671875,-0.16197402775287628,0.04075433686375618,0.04217102378606796
1772526387266798800,4.783798828125,-0.16451334953308105,0.05454524978995323,0.05113309621810913
1772526387276781000,4.793781005859375,-0.17138391733169556,0.05948334559798241,0.06108425557613373
1772526387286764000,4.803763916015625,-0.1782626062631607,0.06232121214270592,0.06851234287023544
1772526387296746000,4.81374609375,-0.18251021206378937,0.06281386315822601,0.0786268413066864
1772526387306728200,4.823728271484375,-0.18295176327228546,0.06676466763019562,0.07663585990667343
1772526387316710000,4.8337099609375,-0.18124639987945557,0.06066969037055969,0.07813668996095657
1772526387326692000,4.843692138671875,-0.18269968032836914,0.03963577747344971,0.0702366903424263
1772526387336674800,4.8536748046875,-0.1903209686279297,0.013554083183407784,0.06616811454296112
1772526387346657000,4.863656982421875,-0.20297817885875702,0.0034346040338277817,0.06713937222957611
1772526387356639200,4.87363916015625,-0.20785760879516602,0.00015343655832111835,0.07447315007448196
1772526387366621000,4.883620849609375,-0.20971862971782684,0.02049119956791401,0.08962946385145187
1772526387376603100,4.89360302734375,-0.20277391374111176,0.051538482308387756,0.11111108958721161
1772526387386585900,4.9035859375,-0.19074201583862305,0.07940393686294556,0.12564370036125183
1772526387396568000,4.913568115234375,-0.16880138218402863,0.08447182923555374,0.13420875370502472
1772526387406550000,4.923550048828125,-0.14999920129776,0.06508135050535202,0.13260100781917572
1772526387416532000,4.933531982421875,-0.13605548441410065,0.02256198413670063,0.12412708252668381
1772526387426515200,4.94351513671875,-0.13854393362998962,-0.025014854967594147,0.11221742630004883
1772526387436497000,4.953496826171875,-0.148330956697464,-0.057330235838890076,0.09837021678686142
1772526387446479000,4.96347900390625,-0.15247829258441925,-0.09768138825893402,0.0858277976512909
1772526387456461000,4.9734609375,-0.15919631719589233,-0.12506961822509766,0.08111237734556198
1772526387466443000,4.983443115234375,-0.1642685830593109,-0.123581163585186,0.08751967549324036
1772526387476426200,4.99342626953125,-0.16279327869415283,-0.11200889199972153,0.09520991891622543
1772526387486408000,5.003407958984375,-0.16032877564430237,-0.10440076887607574,0.09916125237941742
1772526387496390100,5.01339013671875,-0.14351215958595276,-0.09546053409576416,0.09974436461925507
1772526387506372000,5.0233720703125,-0.1276402622461319,-0.08058837056159973,0.10421288013458252
1772526387516354000,5.03335400390625,-0.12765836715698242,-0.08759142458438873,0.10063838213682175
1772526387526337000,5.0433369140625,-0.12683065235614777,-0.11685237288475037,0.08580351620912552
1772526387536319000,5.053319091796875,-0.12473269551992416,-0.16093924641609192,0.06723868101835251
1772526387546301200,5.06330126953125,-0.12929895520210266,-0.21114222705364227,0.04370592534542084
1772526387556283000,5.073282958984375,-0.1430666148662567,-0.2571280002593994,0.03338531404733658
1772526387566265000,5.08326513671875,-0.15433259308338165,-0.26839688420295715,0.032399676740169525
1772526387576247800,5.093247802734375,-0.16113758087158203,-0.25442755222320557,0.043953120708465576
1772526387586230000,5.10322998046875,-0.1749812364578247,-0.2273045778274536,0.05755921080708504
1772526387596212200,5.113212158203125,-0.18963675200939178,-0.20378431677818298,0.06918024271726608
1772526387606194000,5.12319384765625,-0.18952490389347076,-0.18031547963619232,0.07713936269283295
1772526387616176000,5.133176025390625,-0.19247008860111237,-0.1623023897409439,0.08127977699041367
1772526387626158800,5.143158935546875,-0.1822979897260666,-0.15742306411266327,0.08711838722229004
1772526387636141000,5.15314111328125,-0.16339024901390076,-0.13936609029769897,0.09787265956401825
1772526387646123000,5.163123046875,-0.14688052237033844,-0.11971861869096756,0.10672793537378311
1772526387656105000,5.17310498046875,-0.12906387448310852,-0.110696941614151,0.12166417390108109
1772526387666087200,5.183087158203125,-0.11438746005296707,-0.12019483745098114,0.13302788138389587
1772526387676070000,5.19306982421875,-0.09966108202934265,-0.13420847058296204,0.13641954958438873
1772526387686052000,5.203052001953125,-0.09265350550413132,-0.13333389163017273,0.1345769166946411
1772526387696034000,5.213033935546875,-0.09887713938951492,-0.11159897595643997,0.1289345771074295
1772526387706016000,5.22301611328125,-0.10607566684484482,-0.08627444505691528,0.11587177217006683
1772526387715999200,5.232999267578125,-0.1202041506767273,-0.06215720996260643,0.10270679742097855
1772526387725981000,5.24298095703125,-0.13936905562877655,-0.04105618596076965,0.09074414521455765
1772526387735963100,5.252963134765625,-0.15334908664226532,-0.02903117425739765,0.08026227355003357
1772526387745945000,5.262945068359375,-0.1603579968214035,-0.03420569375157356,0.07169675081968307
1772526387755927000,5.272927001953125,-0.173424631357193,-0.033282388001680374,0.07001295685768127
1772526387765910300,5.28291015625,-0.18192967772483826,-0.030734805390238762,0.07413686066865921
1772526387775892000,5.29289208984375,-0.1893780529499054,-0.033309455960989,0.0689271092414856
1772526387785874200,5.302874267578125,-0.1903570294380188,-0.03333981707692146,0.062344569712877274
1772526387795856000,5.31285595703125,-0.18980766832828522,-0.028674684464931488,0.04925953596830368
1772526387805838000,5.322838134765625,-0.19252356886863708,-0.018268650397658348,0.03228641301393509
1772526387815821000,5.332821044921875,-0.19155116379261017,0.001623076619580388,0.014417084865272045
1772526387825803000,5.342802978515625,-0.19913052022457123,0.009531333111226559,-0.00273287296295166
1772526387835785200,5.35278515625,-0.2130650281906128,0.008253468200564384,-0.01585029438138008
1772526387845767000,5.362766845703125,-0.2258540689945221,0.0289776548743248,-0.02349170297384262
1772526387855749000,5.3727490234375,-0.23428690433502197,0.05216040089726448,-0.024160966277122498
1772526387865731800,5.38273193359375,-0.24221912026405334,0.0577666237950325,-0.02116278186440468
1772526387875714000,5.392714111328125,-0.2444080263376236,0.05145762860774994,-0.013207444921135902
1772526387885696000,5.402696044921875,-0.2363511621952057,0.04215121269226074,-0.011798366904258728
1772526387895678000,5.412677978515625,-0.22033803164958954,0.04279695451259613,-0.022822000086307526
1772526387905660200,5.42266015625,-0.19759704172611237,0.045291271060705185,-0.037923190742731094
1772526387915643000,5.432642822265625,-0.1873438060283661,0.038222432136535645,-0.047914065420627594
1772526387925625000,5.442625,-0.17836815118789673,0.009214481338858604,-0.059557147324085236
1772526387935607000,5.45260693359375,-0.18065278232097626,-0.015670204535126686,-0.06811236590147018
1772526387945589000,5.462589111328125,-0.17559224367141724,-0.03235357627272606,-0.07557853311300278
1772526387955571000,5.472571044921875,-0.17016063630580902,-0.040870361030101776,-0.07951373606920242
1772526387965554000,5.482553955078125,-0.16951481997966766,-0.04926730692386627,-0.07924102991819382
1772526387975536000,5.4925361328125,-0.17756366729736328,-0.0617123506963253,-0.07168010622262955
1772526387985518000,5.50251806640625,-0.1875888705253601,-0.08088338375091553,-0.06755460053682327
1772526387995500000,5.5125,-0.20508256554603577,-0.07184664905071259,-0.06106613948941231
1772526388005482000,5.52248193359375,-0.23137621581554413,-0.03309418633580208,-0.06800927221775055
1772526388015465000,5.53246484375,-0.2575254440307617,-0.036616917699575424,-0.09096178412437439
1772526388025447200,5.542447265625,-0.2627295255661011,-0.019295983016490936,-0.11102018505334854
1772526388035429000,5.55242919921875,-0.23523250222206116,-0.006297101266682148,-0.13051334023475647
1772526388045411000,5.5624111328125,-0.20834283530712128,0.006738806143403053,-0.1470600962638855
1772526388055394000,5.57239404296875,-0.20621785521507263,0.013052118010818958,-0.14979124069213867
1772526388065376000,5.5823759765625,-0.20180633664131165,0.024860307574272156,-0.135361447930336
1772526388075358200,5.592358154296875,-0.1915876567363739,0.005144517868757248,-0.1151488795876503
1772526388085340000,5.60233984375,-0.1753500998020172,-0.015487256459891796,-0.08789914846420288
1772526388095322000,5.612322021484375,-0.16244181990623474,-0.022469405084848404,-0.05005749687552452
1772526388105304800,5.622304931640625,-0.1595964878797531,-0.029580045491456985,-0.0047624544240534306
1772526388115287000,5.632287109375,-0.1672479212284088,-0.05631418153643608,0.034507866948843
1772526388125269000,5.64226904296875,-0.17275427281856537,-0.08215217292308807,0.0617554672062397
1772526388135251000,5.6522509765625,-0.1705714464187622,-0.09201869368553162,0.06871527433395386
1772526388145233200,5.662233154296875,-0.16348238289356232,-0.09067326784133911,0.0630861446261406
1772526388155216400,5.67221630859375,-0.15617115795612335,-0.08434658497571945,0.04217290133237839
1772526388165198300,5.6821982421875,-0.1493135243654251,-0.08441955596208572,0.010668503120541573
1772526388175180500,5.6921806640625,-0.14320994913578033,-0.07841463387012482,-0.022749580442905426
1772526388185162200,5.702162353515625,-0.13727536797523499,-0.07166458666324615,-0.05220600590109825
1772526388195144400,5.71214453125,-0.12063628435134888,-0.03982771560549736,-0.07018226385116577
1772526388205127200,5.722127197265625,-0.10641234368085861,-0.01761828549206257,-0.07488860189914703
1772526388215109400,5.732109375,-0.10119490325450897,-0.020595408976078033,-0.07273565977811813
1772526388225091300,5.74209130859375,-0.10119756311178207,-0.03262064605951309,-0.0653882622718811
1772526388235073300,5.7520732421875,-0.099159374833107,-0.03858304023742676,-0.05717768892645836
1772526388245055500,5.762055419921875,-0.09181997179985046,-0.0286001767963171,-0.044629670679569244
1772526388255038200,5.7720380859375,-0.08599906414747238,0.005677270703017712,-0.03265788406133652
1772526388265020400,5.7820205078125,-0.08174572885036469,0.01569528318941593,-0.024695297703146935
1772526388275002400,5.79200244140625,-0.08052946627140045,0.011885364539921284,-0.012796826660633087
1772526388284984300,5.801984375,-0.0786447674036026,0.023068606853485107,0.007067210040986538
1772526388294967300,5.81196728515625,-0.08612486720085144,0.04615491256117821,0.028261777013540268
1772526388304949200,5.82194921875,-0.08684844523668289,0.08534439653158188,0.04856491833925247
1772526388314931500,5.831931396484375,-0.08828433603048325,0.12209270894527435,0.06266148388385773
1772526388324913200,5.8419130859375,-0.09207667410373688,0.13229554891586304,0.07358096539974213
1772526388334895400,5.851895263671875,-0.09513887017965317,0.12915359437465668,0.08131648600101471
1772526388344878300,5.86187841796875,-0.10054003447294235,0.12125999480485916,0.08648648113012314
1772526388354860300,5.8718603515625,-0.10328926891088486,0.11244452744722366,0.09073342382907867
1772526388364842500,5.881842529296875,-0.10770505666732788,0.10009172558784485,0.0877312421798706
1772526388374824200,5.89182421875,-0.11274565011262894,0.08534503728151321,0.07763873040676117
1772526388384806400,5.901806396484375,-0.11679472029209137,0.0698917806148529,0.06401719152927399
1772526388394789000,5.9117890625,-0.12277498096227646,0.047817666083574295,0.050097446888685226
1772526388404771300,5.921771240234375,-0.12752074003219604,0.027902279049158096,0.03700694441795349
1772526388414753500,5.93175341796875,-0.13735589385032654,0.023773247376084328,0.028569651767611504
1772526388424735200,5.9417353515625,-0.14281722903251648,0.013479331508278847,0.025312604382634163
1772526388434717400,5.951717529296875,-0.13989423215389252,-0.0020037966314703226,0.018063262104988098
1772526388444700200,5.9617001953125,-0.13600148260593414,-0.01632814109325409,0.012245054356753826
1772526388454682400,5.971682373046875,-0.12644565105438232,-0.025710485875606537,0.007118675392121077
1772526388464664300,5.981664306640625,-0.11264915019273758,-0.017280248925089836,0.0063178627751767635
1772526388474646300,5.991646240234375,-0.092250756919384,-0.0028676472138613462,0.00589982932433486
1772526388484628500,6.00162841796875,-0.07915599644184113,-0.000009010080248117447,0.0004169135354459286
1772526388494611200,6.011611083984375,-0.06443749368190765,-0.009121490642428398,-0.004953901749104261
1772526388504593400,6.021593505859375,-0.048443082720041275,-0.019341904670000076,-0.010791551321744919
1772526388514575400,6.031575439453125,-0.03389643132686615,-0.02589299902319908,-0.007929153740406036
1772526388524557300,6.041557373046875,-0.01736166514456272,-0.027005136013031006,-0.0010824338532984257
1772526388534539300,6.051539306640625,0.002372873481363058,-0.013830916956067085,0.014364485628902912
1772526388544522200,6.061522216796875,0.020130299031734467,0.013984468765556812,0.03389504551887512
1772526388554504400,6.07150439453125,0.04121030122041702,0.03914592042565346,0.04854371026158333
1772526388564486100,6.081486083984375,0.06075657159090042,0.04510074853897095,0.05938677117228508
1772526388574468400,6.09146826171875,0.07403341680765152,0.036805227398872375,0.060736775398254395
1772526388584450300,6.1014501953125,0.07787396013736725,0.017182523384690285,0.05455397814512253
1772526388594433300,6.111433349609375,0.07619822770357132,-0.00915884505957365,0.04103581979870796
1772526388604415500,6.12141552734375,0.07274890691041946,-0.02063094452023506,0.02375163696706295
1772526388614397200,6.131397216796875,0.07171816378831863,-0.02744757942855358,0.0018624365329742432
1772526388624379400,6.14137939453125,0.07227103412151337,-0.011995918117463589,-0.022846637293696404
1772526388634361300,6.151361328125,0.06702101230621338,0.0003022626042366028,-0.04993317648768425
1772526388644344300,6.16134423828125,0.05944698303937912,0.0017528865719214082,-0.07253249734640121
1772526388654326500,6.171326416015625,0.04990163445472717,0.003746716771274805,-0.08786220848560333
1772526388664308200,6.18130810546875,0.039444997906684875,-0.004010272677987814,-0.09715984016656876
1772526388674290400,6.19129052734375,0.022537710145115852,-0.017246313393115997,-0.0984693095088005
1772526388684273200,6.201273193359375,-0.00013218261301517487,-0.021988071501255035,-0.09939901530742645
1772526388694255400,6.21125537109375,-0.027385089546442032,-0.02977018617093563,-0.09386448562145233
1772526388704237300,6.2212373046875,-0.06136782467365265,-0.006587104871869087,-0.08434048295021057
1772526388714219300,6.23121923828125,-0.09079042077064514,-0.0017853097524493933,-0.0665532723069191
1772526388724201500,6.241201416015625,-0.10189500451087952,0.015475968830287457,-0.04277922958135605
1772526388734184200,6.25118408203125,-0.11484792828559875,0.017230011522769928,-0.023737460374832153
1772526388744166400,6.26116650390625,-0.12102513015270233,0.00429290859028697,-0.012485604733228683
1772526388754148400,6.2711484375,-0.10865724831819534,-0.005767513066530228,0.000656964723020792
1772526388764130300,6.28113037109375,-0.0947885736823082,0.017485613003373146,0.01886073499917984
1772526388774112300,6.2911123046875,-0.08938178420066833,0.03889010474085808,0.033932238817214966
1772526388784095200,6.30109521484375,-0.09010616689920425,0.0424981564283371,0.055415693670511246
1772526388794077400,6.311077392578125,-0.06741683185100555,0.06303027272224426,0.06994245946407318
1772526388804059400,6.321059326171875,-0.049203477799892426,0.11005716770887375,0.07741768658161163
1772526388814041300,6.331041259765625,-0.03832266479730606,0.14812420308589935,0.08947329223155975
1772526388824023300,6.341023193359375,-0.031483132392168045,0.18781249225139618,0.08966051042079926
1772526388834006300,6.35100634765625,-0.020125245675444603,0.2059648185968399,0.08836893737316132
1772526388843988500,6.360988525390625,-0.0036480012349784374,0.2047554850578308,0.0837147980928421
1772526388853970200,6.37097021484375,0.014256461523473263,0.1896098405122757,0.07585705071687698
1772526388863952400,6.380952392578125,0.03772450238466263,0.18495437502861023,0.06211620569229126
1772526388873934300,6.390934326171875,0.05954107269644737,0.18551217019557953,0.04533069208264351
1772526388883917300,6.400917236328125,0.07289363443851471,0.16974519193172455,0.029591144993901253
1772526388893899500,6.4108994140625,0.07605568319559097,0.1302090734243393,0.01339692808687687
1772526388903881200,6.420881103515625,0.07830312103033066,0.08545917272567749,0.003681716974824667
1772526388913863400,6.430863525390625,0.07859033346176147,0.06450991332530975,0.0025379681028425694
1772526388923845400,6.440845458984375,0.082436203956604,0.06598903238773346,-0.0014519798569381237
1772526388933828400,6.450828369140625,0.08499984443187714,0.0694943368434906,0.005725457798689604
1772526388943810300,6.460810302734375,0.08410502225160599,0.06938940286636353,0.017003946006298065
1772526388953792300,6.470792236328125,0.08570541441440582,0.055152952671051025,0.027132362127304077
1772526388963774500,6.4807744140625,0.09261152148246765,0.032871611416339874,0.02974439039826393
1772526388973756400,6.49075634765625,0.09702041745185852,0.01335492730140686,0.025700824335217476
1772526388983739400,6.500739501953125,0.10283702611923218,-0.009203111752867699,0.019078873097896576
1772526388993721300,6.510721435546875,0.11065784841775894,-0.025797901675105095,0.004209178499877453
1772526389003703300,6.520703369140625,0.11567231267690659,-0.035115502774715424,-0.015424443408846855
1772526389013685200,6.530685302734375,0.11481689661741257,-0.04412535950541496,-0.0342462994158268
1772526389023667500,6.54066748046875,0.11294682323932648,-0.060875046998262405,-0.05058532580733299
1772526389033650400,6.550650390625,0.11345058679580688,-0.07789936661720276,-0.06672287732362747
1772526389043632400,6.56063232421875,0.11986774206161499,-0.08340492099523544,-0.07131150364875793
1772526389053614300,6.5706142578125,0.12450050562620163,-0.06723850965499878,-0.0779549852013588
1772526389063596300,6.58059619140625,0.13629484176635742,-0.0397522896528244,-0.0845676138997078
1772526389073579300,6.590579345703125,0.14349840581417084,-0.028749728575348854,-0.09092848002910614
1772526389083561500,6.6005615234375,0.1488388329744339,-0.038146428763866425,-0.10687335580587387
1772526389093543200,6.610543212890625,0.15193258225917816,-0.058938924223184586,-0.13078083097934723
1772526389103525400,6.620525390625,0.15480266511440277,-0.07373731583356857,-0.15803802013397217
1772526389113507300,6.63050732421875,0.1501382291316986,-0.09844265133142471,-0.18758031725883484
1772526389123490300,6.640490234375,0.14479433000087738,-0.1256100982427597,-0.22022747993469238
1772526389133472500,6.650472412109375,0.15256339311599731,-0.15193933248519897,-0.25307950377464294
1772526389143454200,6.6604541015625,0.17313417792320251,-0.19426360726356506,-0.27910658717155457
1772526389153436400,6.6704365234375,0.19676466286182404,-0.24935489892959595,-0.2963196337223053
1772526389163418600,6.680418701171875,0.2090223878622055,-0.31267768144607544,-0.3181820511817932
1772526389173401300,6.6904013671875,0.2105439007282257,-0.33096346259117126,-0.356914222240448
1772526389183383600,6.700383544921875,0.21460282802581787,-0.3450225293636322,-0.4073028266429901
1772526389193365200,6.710365234375,0.21653038263320923,-0.3517518937587738,-0.4498513638973236
1772526389203347500,6.720347412109375,0.20105768740177155,-0.32503771781921387,-0.4837323725223541
1772526389213329400,6.730329345703125,0.16996526718139648,-0.2611302435398102,-0.5040069818496704
1772526389223312400,6.7403125,0.14273816347122192,-0.13176637887954712,-0.5154436230659485
1772526389233294600,6.750294677734375,0.12147432565689087,0.03181002289056778,-0.5156315565109253
1772526389243276300,6.7602763671875,0.1093931645154953,0.18905876576900482,-0.5166637897491455
1772526389253258500,6.770258544921875,0.10025083273649216,0.30131933093070984,-0.49697837233543396
1772526389263240400,6.780240478515625,0.10554599016904831,0.38675034046173096,-0.472250372171402
1772526389273223400,6.790223388671875,0.09231942147016525,0.4595300853252411,-0.425251305103302
1772526389283205600,6.80020556640625,0.07046472281217575,0.5045225620269775,-0.37027087807655334
1772526389293187300,6.810187255859375,0.05447489395737648,0.5092272758483887,-0.30769315361976624
1772526389303169500,6.82016943359375,0.04808090999722481,0.4757063686847687,-0.24090614914894104
1772526389313151200,6.830151123046875,0.054668426513671875,0.38619929552078247,-0.17566901445388794
1772526389323134500,6.840134521484375,0.06036226451396942,0.27628371119499207,-0.10902049392461777
1772526389333116400,6.850116455078125,0.062469400465488434,0.16799160838127136,-0.03671695664525032
1772526389343098400,6.860098388671875,0.051532063633203506,0.06739096343517303,0.039306171238422394
1772526389353080600,6.87008056640625,0.03893499821424484,-0.020499559119343758,0.11700387299060822
1772526389363062300,6.880062255859375,0.02219116874039173,-0.08140259236097336,0.187461256980896
1772526389373045500,6.89004541015625,0.0010066898539662361,-0.11486495286226273,0.2451086938381195
1772526389383027200,6.900027099609375,-0.023041121661663055,-0.14600874483585358,0.2789013087749481
1772526389393009400,6.910009521484375,-0.037213485687971115,-0.17800253629684448,0.2844415307044983
1772526389402991600,6.91999169921875,-0.03801935911178589,-0.204171285033226,0.27156513929367065
1772526389412973300,6.929973388671875,-0.04133351147174835,-0.22030383348464966,0.23652584850788116
1772526389422956500,6.93995654296875,-0.04787024110555649,-0.21698792278766632,0.18209350109100342
1772526389432938200,6.949938232421875,-0.052784014493227005,-0.18372343480587006,0.1261393278837204
1772526389442920400,6.95992041015625,-0.053915321826934814,-0.13040055334568024,0.06920947134494781
1772526389452902400,6.96990234375,-0.052776504307985306,-0.0799998790025711,0.012437291443347931
1772526389462885400,6.979885498046875,-0.04469434171915054,-0.04736923426389694,-0.036286305636167526
1772526389472867600,6.98986767578125,-0.032572295516729355,-0.013362178578972816,-0.07462779432535172
1772526389482849300,6.999849365234375,-0.02045757696032524,0.024782544001936913,-0.09886042773723602
1772526389492831500,7.00983154296875,-0.006845473311841488,0.0497807115316391,-0.10825271159410477
1772526389502813400,7.0198134765625,0.012624897062778473,0.06116865575313568,-0.10631472617387772
1772526389512796400,7.02979638671875,0.0283170398324728,0.06797703355550766,-0.0956634134054184
1772526389522778600,7.039778564453125,0.04953497648239136,0.08060121536254883,-0.07296130061149597
1772526389532760300,7.04976025390625,0.06623420864343643,0.10652344673871994,-0.04905100166797638
1772526389542742500,7.059742431640625,0.08974353224039078,0.1393975019454956,-0.02714463695883751
1772526389552724500,7.069724365234375,0.11670603603124619,0.14154057204723358,-0.005235549993813038
1772526389562707500,7.07970751953125,0.1433781236410141,0.15997657179832458,0.015047084540128708
1772526389572689400,7.089689453125,0.1750815361738205,0.17669007182121277,0.035119280219078064
1772526389582671400,7.09967138671875,0.1922338902950287,0.17383837699890137,0.05220772325992584
1772526389592653600,7.109653564453125,0.1978844702243805,0.16306282579898834,0.07034266740083694
1772526389602635300,7.11963525390625,0.195826917886734,0.10925659537315369,0.08890649676322937
1772526389612618500,7.129618408203125,0.1914564073085785,0.03111758641898632,0.11918078362941742
1772526389622600200,7.13960009765625,0.19001244008541107,-0.043715909123420715,0.16138815879821777
1772526389632582400,7.14958251953125,0.19334059953689575,-0.10983207821846008,0.2167009562253952
1772526389642564600,7.159564697265625,0.1934063732624054,-0.1484343409538269,0.270650714635849
1772526389652546300,7.16954638671875,0.19727455079555511,-0.15035659074783325,0.3091701865196228
1772526389662529500,7.179529541015625,0.20598015189170837,-0.1504008024930954,0.3237520456314087
1772526389672511200,7.18951123046875,0.2118770033121109,-0.1418181210756302,0.3096899688243866
1772526389682493400,7.199493408203125,0.2055424153804779,-0.12392488867044449,0.2640487253665924
1772526389692475400,7.209475341796875,0.1999828815460205,-0.09300988912582397,0.1855170577764511
1772526389702457300,7.219457275390625,0.18193383514881134,-0.025968540459871292,0.09424573183059692
1772526389712440600,7.229440673828125,0.1604500710964203,0.04680240899324417,-0.019298657774925232
1772526389722422300,7.23942236328125,0.13360673189163208,0.10902823507785797,-0.13634565472602844
1772526389732404500,7.249404541015625,0.08841307461261749,0.15863031148910522,-0.2568608224391937
1772526389742386400,7.259386474609375,0.04547705873847008,0.1952599585056305,-0.36804404854774475
1772526389752368400,7.269368408203125,0.0073519316501915455,0.23720942437648773,-0.45118993520736694
1772526389762351600,7.2793515625,-0.019259706139564514,0.2650735378265381,-0.4930945038795471
1772526389772333300,7.289333251953125,-0.04317744821310043,0.24586822092533112,-0.48849374055862427
1772526389782315500,7.2993154296875,-0.05866745859384537,0.21832101047039032,-0.4419318437576294
1772526389792297500,7.30929736328125,-0.059144824743270874,0.19549641013145447,-0.36476844549179077
1772526389802279400,7.319279541015625,-0.044279322028160095,0.19300448894500732,-0.25980687141418457
1772526389812262700,7.3292626953125,-0.017655063420534134,0.2281002253293991,-0.13794341683387756
1772526389822244400,7.339244384765625,0.010126766748726368,0.2828572392463684,-0.013099746778607368
1772526389832226600,7.3492265625,0.03591202199459076,0.3281480073928833,0.09853357076644897
1772526389842208500,7.35920849609375,0.06141338869929314,0.32445794343948364,0.1989469975233078
1772526389852190500,7.3691904296875,0.0759594738483429,0.31729668378829956,0.29349201917648315
1772526389862173400,7.37917333984375,0.07289471477270126,0.3089793622493744,0.3700086176395416
1772526389872155400,7.3891552734375,0.068648561835289,0.26434338092803955,0.42637044191360474
1772526389882137600,7.3991376953125,0.0732736736536026,0.20127813518047333,0.4684819281101227
1772526389892119300,7.409119384765625,0.09041956812143326,0.18664467334747314,0.4962230324745178
1772526389902101500,7.4191015625,0.10865077376365662,0.20141349732875824,0.518696665763855
1772526389912084200,7.429084228515625,0.12980854511260986,0.16736531257629395,0.5297576189041138
1772526389922066400,7.43906640625,0.15302890539169312,0.10007016360759735,0.5442537665367126
1772526389932048400,7.44904833984375,0.16748923063278198,0.01862269453704357,0.5551666021347046
1772526389942030300,7.4590302734375,0.15506239235401154,-0.06400667130947113,0.5651366710662842
1772526389952012500,7.469012451171875,0.1363123506307602,-0.11102624237537384,0.5512307286262512
1772526389961995300,7.478995361328125,0.11627179384231567,-0.14297857880592346,0.5033888816833496
1772526389971977500,7.4889775390625,0.1025501936674118,-0.1416877657175064,0.4323618412017822
1772526389981959400,7.49895947265625,0.0908285528421402,-0.11826953291893005,0.3425461947917938
1772526389991941400,7.50894140625,0.07289141416549683,-0.08083658665418625,0.24439939856529236
1772526390001923300,7.51892333984375,0.07029590010643005,-0.02433655969798565,0.16144326329231262
1772526390011906300,7.52890625,0.0507805310189724,0.017900221049785614,0.09814868122339249
1772526390021888500,7.538888427734375,0.007971016690135002,0.038727737963199615,0.051692500710487366
1772526390031870500,7.548870361328125,-0.0377248115837574,0.036394715309143066,0.005409371107816696
1772526390041852400,7.558852294921875,-0.08194127678871155,-0.0351705476641655,-0.04289478063583374
1772526390051835600,7.568835693359375,-0.10516572743654251,-0.16941699385643005,-0.08972184360027313
1772526390061817300,7.5788173828125,-0.10240429639816284,-0.3014911115169525,-0.11882620304822922
1772526390071799600,7.588799560546875,-0.07841531187295914,-0.3852086365222931,-0.11108101159334183
1772526390081781500,7.598781494140625,-0.037127528339624405,-0.38556525111198425,-0.06687040627002716
1772526390091763500,7.608763427734375,0.011318889446556568,-0.30172425508499146,0.010309072211384773
1772526390101746400,7.618746337890625,0.05395476892590523,-0.14308668673038483,0.09768046438694
1772526390111728400,7.628728271484375,0.09606990218162537,0.06851184368133545,0.16515788435935974
1772526390121710600,7.638710693359375,0.12913943827152252,0.2742258608341217,0.19932252168655396
1772526390131692300,7.6486923828125,0.1419866979122162,0.3846290409564972,0.1856294572353363
1772526390141674500,7.658674560546875,0.14747600257396698,0.3820420503616333,0.13677430152893066
1772526390151657200,7.6686572265625,0.14715535938739777,0.2837517559528351,0.07714797556400299
1772526390161640000,7.678639892578125,0.1578087955713272,0.16708320379257202,0.028006793931126595
1772526390171622100,7.6886220703125,0.17554491758346558,0.09936008602380753,-0.010123280808329582
1772526390181604000,7.69860400390625,0.20631954073905945,0.11202236264944077,-0.041714467108249664
1772526390191586000,7.7085859375,0.24206021428108215,0.14062443375587463,-0.07262781262397766
1772526390201569000,7.718569091796875,0.27337923645973206,0.17440903186798096,-0.09604951739311218
1772526390211551000,7.728551025390625,0.29847076535224915,0.18238866329193115,-0.11584372818470001
1772526390221533200,7.738533203125,0.32717376947402954,0.14288412034511566,-0.12951001524925232
1772526390231515000,7.748514892578125,0.359203040599823,0.05821146443486214,-0.11777448654174805
1772526390241497000,7.7584970703125,0.3843158483505249,-0.03804636001586914,-0.08725306391716003
1772526390251480000,7.76847998046875,0.3875087797641754,-0.11754418909549713,-0.032788898795843124
1772526390261462000,7.7784619140625,0.3808088004589081,-0.1785724014043808,0.022808317095041275
1772526390271444000,7.78844384765625,0.3582935035228729,-0.22040875256061554,0.09344912320375443
1772526390281426000,7.798426025390625,0.3147929012775421,-0.2726850211620331,0.16237811744213104
1772526390291408100,7.808408203125,0.26141902804374695,-0.30128809809684753,0.23389610648155212
1772526390301391000,7.81839111328125,0.19768981635570526,-0.2999227046966553,0.2976127862930298
1772526390311373000,7.828373046875,0.14608371257781982,-0.2869632840156555,0.34864842891693115
1772526390321355000,7.83835498046875,0.0995447114109993,-0.2570386826992035,0.38467884063720703
1772526390331337000,7.8483369140625,0.06597858667373657,-0.17353716492652893,0.37575212121009827
1772526390341319200,7.858319091796875,0.07576863467693329,0.022918639704585075,0.29361197352409363
1772526390351302100,7.86830224609375,0.15156617760658264,0.29277464747428894,0.13250598311424255
1772526390361284000,7.8782841796875,0.30180439352989197,0.5672589540481567,-0.08566177636384964
1772526390371266000,7.88826611328125,0.37252217531204224,0.7558521032333374,-0.10533551871776581
1772526390381248000,7.898248046875,0.26124492287635803,0.6503866910934448,-0.05154924839735031
1772526390391230200,7.908230224609375,0.06994249671697617,0.3210535943508148,-0.0660008043050766
1772526390401213000,7.918212890625,-0.03696317970752716,-0.08637356758117676,-0.20141616463661194
1772526390411195100,7.928195068359375,-0.07540564984083176,-0.3110586702823639,-0.4052899181842804
1772526390421177000,7.938177001953125,-0.14133858680725098,-0.3683200776576996,-0.5327962040901184
