time,seconds_elapsed,z,y,x
1772527257307547100,0.080547119140625,-0.6476385633349419,-1.0281892015278338,-1.102304239052534
1772527257317529000,0.090529052734375,-0.12445289362072944,-0.9798919113487005,-0.9172748577855527
1772527257327512000,0.100511962890625,0.4393061940222978,-0.7542927654147148,-0.5885317098498344
1772527257337494000,0.110493896484375,0.8421633565694093,-0.4599503381222486,-0.1245370647728443
1772527257347476000,0.12047607421875,0.9278221168935299,-0.2357160508006811,0.023802315869927405
1772527257357459000,0.130458984375,0.8805898255974054,-0.24810148512125013,0.16633008762449025
1772527257367441000,0.14044091796875,0.8118173181444406,0.5525473732769489,0.8880863188326358
1772527257377423000,0.150423095703125,0.7828267859816551,1.3479261823177338,1.104646710525453
1772527257387404800,0.16040478515625,0.39261575451791286,1.3520523223370313,1.278172847133875
1772527257397388000,0.170387939453125,-0.060230304557085036,1.219301555970311,1.4188086676619946
1772527257407370000,0.180369873046875,-0.15839724879860878,1.0374755007892846,1.2667470516256987
1772527257417352000,0.19035205078125,0.11516659435927867,0.9051981971532106,1.034713050338626
1772527257427335000,0.2003349609375,1.0373755475461481,1.0613011975347995,0.9022969227537512
1772527257437317000,0.210317138671875,2.0206471644610167,1.3422884686917065,1.0158097585566341
1772527257447299000,0.220299072265625,2.374676875475049,1.4348042553037403,0.9829039526462554
1772527257457281000,0.230281005859375,1.9703730212509631,1.063437625041604,0.2630443488396704
1772527257467264000,0.240263916015625,1.6216168667256832,0.6930564986854791,-0.44312399874478575
1772527257477246000,0.250245849609375,0.9125853847950697,0.505722493737936,-0.6380152872040867
1772527257487228000,0.260227783203125,0.31914427559375763,0.4858090020000934,-0.6674456720888614
1772527257497211000,0.2702109375,-0.03017301994562149,0.5656476778686046,-0.2952493130043149
1772527257507193000,0.280193115234375,-0.28176059361696243,0.7120978837639093,0.3709836222939193
1772527257517175000,0.290175048828125,-0.4864455463379621,0.6329980435639619,0.9604086277216672
1772527257527157000,0.300156982421875,-0.800432585299015,0.4493061945110559,1.2473922166839242
1772527257537140200,0.31014013671875,-0.8241197503566742,0.5328296963721514,1.4544552967131137
1772527257547122000,0.320121826171875,-0.539274050205946,0.8485714700460434,1.742741784967482
1772527257557104000,0.330104248046875,-0.1387637430459261,1.007701709294319,1.8668556558921932
1772527257567086800,0.3400869140625,0.260608499994874,0.8168325159579515,1.7235285504534839
1772527257577069000,0.350069091796875,0.3520569496363401,0.24714754539728162,1.2218978560738265
1772527257587051000,0.360051025390625,0.26456629770994183,-0.2553869659543037,0.39790173209682106
1772527257597033000,0.370032958984375,0.35222003124356266,-0.19432254866063595,-0.045997214809525754
1772527257607016200,0.38001611328125,0.34290041423439976,-0.0973106196731329,-0.18660114236203953
1772527257616998000,0.389997802734375,0.27579730129837987,-0.12260171279609203,-0.20729829529086127
1772527257626980000,0.39997998046875,0.18024901512265204,0.01384323191344738,-0.00791345827197656
1772527257636963000,0.409963134765625,0.1619470502346754,0.04281622841954231,0.23888660712819546
1772527257646945000,0.419945068359375,0.19556465767621992,-0.08452595690190792,0.3212833334490657
1772527257656927200,0.42992724609375,0.32753976349532604,-0.19128888005316255,0.16711404107641428
1772527257666910000,0.439909912109375,0.4857715925991535,-0.2320598663806915,-0.08171462580822408
1772527257676892200,0.44989208984375,0.5673252556920051,-0.25340485222637654,-0.2929447258563712
1772527257686873900,0.459873779296875,0.5856552776306867,-0.2745779886364937,-0.4282060137392953
1772527257696856000,0.46985595703125,0.5790367362737655,-0.2033352916777134,-0.4275977456478402
1772527257706839000,0.479839111328125,0.6609446196317672,-0.06824176157712936,-0.358779353226535
1772527257716821000,0.489821044921875,0.9052624945610761,0.05464227529168129,-0.20035751797594128
1772527257726803000,0.499802978515625,1.2715537212550638,0.08133388286232948,-0.086921144942753
1772527257736786200,0.5097861328125,1.6035948878228663,0.09359481402039527,-0.16619319990444928
1772527257746768000,0.519767822265625,1.7710931424438952,0.17093290524482727,-0.378146791921556
1772527257756750000,0.52975,1.9256775549560785,0.4339432056844234,-0.4778575680715963
1772527257766732000,0.53973193359375,2.17756265026927,0.836214677298069,-0.4566279157012701
1772527257776715000,0.549715087890625,2.6740052744865417,1.3891799837261438,-0.3715298945324495
1772527257786697000,0.559697021484375,3.3550480947732924,2.0043623846143483,-0.29037640973832457
1772527257796679000,0.569678955078125,3.3232571182370183,1.8473551288694143,-0.25087434736806896
1772527257806662100,0.579662109375,2.6090853508085012,1.7219658311814068,-0.446290353821218
1772527257816643800,0.589643798828125,2.0190578494429587,2.576981070539355,-0.5934761805146932
1772527257826626000,0.5996259765625,1.2882441592931746,3.388670962911844,-0.4603126686286181
1772527257836608000,0.60960791015625,0.5746797101080418,4.0471570834755894,-0.30267705185227095
1772527257846591000,0.619591064453125,0.7144178511440753,4.636420030209422,-0.15325694503439588
1772527257856573200,0.6295732421875,1.501317001131177,4.685505255895853,-0.16286635703667998
1772527257866555000,0.639554931640625,2.4349767381370064,3.7060342003077267,-0.6764636758029461
1772527257876538000,0.6495380859375,2.8559482340455054,2.1994161701589823,-1.9332059046342969
1772527257886520000,0.65952001953125,2.494405078661442,1.2274077055364847,-3.073430709019303
1772527257896502000,0.669501953125,1.2639432462513447,0.3743915310412645,-2.983164747160673
1772527257906484200,0.679484130859375,-0.580811344730854,-1.4115028746932745,-2.737152051012218
1772527257916467000,0.689467041015625,-2.386468435555696,-4.2068788588762285,-3.9462005085155365
1772527257926449200,0.69944921875,-3.149695033532381,-7.762997807526588,-5.90108399195075
1772527257936430800,0.709430908203125,-1.6308388685792683,-10.441631326335669,-7.815075200766325
1772527257946414000,0.7194140625,0.7571276965796947,-11.059537599229811,-9.16831234897375
1772527257956396000,0.72939599609375,0.21773206582069396,-10.842210022556781,-9.368532723501325
1772527257966378000,0.7393779296875,-4.431044172614812,-10.849984163689612,-8.935694848710298
1772527257976360200,0.749360107421875,-11.479115594953297,-11.093194369637965,-9.21010624860823
1772527257986343200,0.75934326171875,-18.881456382280586,-11.419705959129333,-10.254255820333958
1772527257996325000,0.7693251953125,-23.74510286736488,-11.347884585499763,-11.263259844398497
1772527258006307000,0.77930712890625,-24.192870015740393,-10.225668023753165,-10.681489883768558
1772527258016290000,0.7892900390625,-21.368511682701108,-9.051330814146995,-8.261839309579134
1772527258026272000,0.79927197265625,-17.629110050320623,-7.731394462516904,-5.707769743549823
1772527258036254000,0.80925390625,-13.14551385269165,-6.386826942977309,-3.551950723055005
1772527258046237000,0.81923681640625,-8.06210350369811,-5.09396506075561,-1.576140479186177
1772527258056219000,0.829218994140625,-3.42889688257724,-3.7404794907450674,0.5518102911740541
1772527258066201000,0.839201171875,0.5128210736967623,-2.1401696159422396,2.976920007552206
1772527258076182800,0.849182861328125,3.803134976622462,-0.5835936689257621,4.881936467273533
1772527258086166000,0.859166015625,6.129781103900075,1.3817472033768892,5.545345138931274
1772527258096148000,0.86914794921875,7.778495236387848,3.6879210359901187,5.179889194017648
1772527258106130000,0.8791298828125,9.145941527211665,5.715740284037589,4.321583096420765
1772527258116113000,0.88911279296875,10.171450111353396,6.813177209314704,3.5692128235012293
1772527258126094800,0.8990947265625,10.945866796386241,7.466083483919501,2.6058956148564816
1772527258136076800,0.909076904296875,10.748583644354342,7.964253954842686,1.979901312574744
1772527258146058800,0.919058837890625,9.462791554388403,7.986974320694804,2.000308140787482
1772527258156042000,0.9290419921875,7.897305740207433,8.069128872290253,2.6967265171214936
1772527258166024000,0.93902392578125,6.519051639643311,8.110026699867845,4.3320273335456845
1772527258176006000,0.949005859375,5.447730567875504,8.095083982279895,6.0297156325608485
1772527258185988900,0.95898876953125,4.580390099951624,8.32918967527449,6.840095026856661
1772527258195971000,0.96897119140625,3.3044407740861175,8.472481124877929,6.900711115860939
1772527258205952800,0.978952880859375,1.5888403862833975,8.16488407921493,6.501029076218605
1772527258215935000,0.98893505859375,-0.32502047415077684,7.526691389617324,5.223467054459452
1772527258225917700,0.998917724609375,-1.9067524897336958,6.614276685214042,3.660197455023229
1772527258235900000,1.00889990234375,-2.641979904672503,5.784381274065375,2.4707214207351207
1772527258245881900,1.0188818359375,-2.395811433440447,5.133507382071018,1.8928347312793135
1772527258255864800,1.02886474609375,-1.2760486945867537,4.536114904895425,1.6377235135264694
1772527258265847000,1.038846923828125,0.12924071241915225,4.011042398521304,1.3075152614742516
1772527258275828700,1.048828857421875,1.4451210666567087,3.606687106370926,0.8271420207872986
1772527258285811000,1.05881103515625,2.7308418449521064,3.2752433211743828,0.3787301447674632
1772527258295794000,1.0687939453125,3.8746740261793136,3.0497751081436872,-0.04136518936101347
1772527258305775900,1.07877587890625,4.69435024113059,3.0529847178399563,-0.21159111538026482
1772527258315758000,1.088758056640625,5.180201328706741,3.195890967518091,-0.019671901534311472
1772527258325740800,1.09874072265625,5.511926853454113,3.2466707221627233,0.07125277996137738
1772527258335723000,1.108722900390625,5.598288793611526,3.3427351411670445,-0.04237896951343864
1772527258345704700,1.11870458984375,5.206039534318447,3.4855718327403067,-0.13812887920849024
1772527258355687000,1.12868701171875,4.495315276995301,3.5403099696218967,-0.20977197366170583
1772527258365670000,1.138669921875,3.8816321747541425,3.5242075606048107,-0.23502909144982695
1772527258375651800,1.14865185546875,3.522733396399021,3.5120372303396463,-0.14649389890655876
1772527258385634000,1.158634033203125,3.2311557576447725,3.3160411955088374,-0.016863967974111438
1772527258395617000,1.168616943359375,2.711377266025543,2.841871777898073,-0.41125630371049043
1772527258405599000,1.178598876953125,1.4768079982966185,1.8074135791033505,-1.201801701245457
1772527258415581000,1.188580810546875,-0.09955810633897781,0.327530411145091,-1.470407045213133
1772527258425563000,1.19856298828125,-1.0882377197772264,-1.2079618313103913,-0.6654053253676742
1772527258435545900,1.2085458984375,-1.2560527852624654,-2.8300463155478237,0.36716884977873415
1772527258445527800,1.21852783203125,-2.2280226714402436,-4.533292833212018,-0.7294716278910637
1772527258455510000,1.228510009765625,-5.587523653969169,-6.66135290916562,-4.0553871516823765
1772527258465493000,1.238492919921875,-10.707870525693894,-8.230166406464576,-7.210388474929332
1772527258475475000,1.248474853515625,-16.44991078763604,-8.00766405750215,-7.940566789785027
1772527258485457000,1.258456787109375,-21.355051312625406,-5.184464246848226,-3.9066906281650065
1772527258495438800,1.26843896484375,-22.97752041226625,-1.920917208686471,3.442899396705627
1772527258505421800,1.278421875,-21.204623435270786,-0.31767595660686493,9.543464342993497
1772527258515404000,1.288404052734375,-17.810590068542957,-0.1899760438889265,13.157408873146771
1772527258525386000,1.298385986328125,-13.710670532172918,-0.4233920010536909,14.90302153737545
1772527258535368000,1.308367919921875,-9.980870256352423,-0.692875881421566,14.224672193956374
1772527258545351000,1.318350830078125,-6.51946431209743,-0.5059107097864151,12.532993364489078
1772527258555332900,1.328332763671875,-2.784274744454026,-0.4056634521394968,11.39839546007514
1772527258565315000,1.338315185546875,1.1985542437568306,-0.5028238496869802,10.19076622171998
1772527258575297800,1.3482978515625,4.968696174576878,-0.6022504386007785,8.326073589080572
1772527258585280000,1.358280029296875,8.632556536021829,-0.9059440470844506,6.294857684332132
1772527258595261700,1.36826171875,12.139236038720608,-1.2158482006460427,3.72161930745244
1772527258605244000,1.378243896484375,14.331698151957989,-1.294653441813588,0.33148601690307256
1772527258615227000,1.388226806640625,14.607930337542294,-1.1928507714182137,-3.4225697253823277
1772527258625208800,1.398208740234375,13.949883777439593,-0.8955693680644035,-5.833538980466127
1772527258635191000,1.40819091796875,13.281204764163494,-0.15218845728635788,-7.240494859379529
1772527258645173800,1.418173828125,11.638773072946071,1.4420552493453025,-8.141426046738028
1772527258655156000,1.428156005859375,8.492765203493834,2.8486615841686724,-7.758141015145182
1772527258665138000,1.438137939453125,5.4124751300990575,4.156567890787124,-6.6149284271210425
1772527258675119900,1.448119873046875,2.9774454927310345,5.592437729495764,-5.186112014055252
1772527258685102800,1.458102783203125,0.9900456410944461,6.587290478610992,-3.9822476811915632
1772527258695084800,1.468084716796875,-0.6852443636298179,6.77606942166984,-4.330346833112835
1772527258705067000,1.47806689453125,-1.8690707015931605,6.243660581058263,-5.474412238574027
1772527258715050000,1.488050048828125,-2.3420459409832954,5.607132609802484,-5.709719708573818
1772527258725032000,1.498031982421875,-1.8645014939814806,5.148960387268662,-5.224712670606374
1772527258735014000,1.508013916015625,-0.733961925047636,4.882086397138238,-4.671264256836474
1772527258744995800,1.517995849609375,0.7115431724905967,4.769338554358482,-3.8684935839787125
1772527258754978800,1.527978759765625,2.2916607386142016,4.659592231482267,-3.022333851249516
1772527258764961000,1.5379609375,4.178504997307062,4.486909267699718,-2.603147777453065
1772527258774943000,1.54794287109375,5.711584333401918,4.701192069849371,-2.5029654017359015
1772527258784926000,1.557926025390625,6.3423541795223946,5.089463657683134,-2.574595344446599
1772527258794908000,1.567907958984375,6.066087507146596,5.873997247582674,-3.1226576812639832
1772527258804889900,1.577889892578125,5.050107798850536,5.837890161412954,-3.317925694081187
1772527258814871800,1.587871826171875,3.480564818233251,4.67081329819858,-2.818369321757555
1772527258824854800,1.597854736328125,2.312672546982765,3.9802006855338807,-2.4751184866502878
1772527258834837000,1.6078369140625,2.1203104847401377,4.835797524172067,-3.163027685575187
1772527258844819000,1.61781884765625,1.95383631246984,5.963434357401728,-4.025037898387015
1772527258854801000,1.62780078125,1.795510375341773,6.054485332158207,-3.8876413520410655
1772527258864784100,1.6377841796875,2.213002796962857,5.580538032865524,-2.801591205435991
1772527258874765800,1.647765869140625,2.709285262182355,5.041741537043452,-1.552830038486421
1772527258884748000,1.657748046875,3.207190360167622,4.266931468778848,0.13479922332912683
1772527258894730800,1.667730712890625,2.0310189208716154,2.6984441346943377,1.5960507560536263
1772527258904713000,1.677712890625,-0.959366425192356,1.783357580733299,1.4143066800676285
1772527258914695000,1.68769482421875,-3.1510628147542477,1.0031202267229558,0.8310333291374147
1772527258924676900,1.6976767578125,-3.9011405928224323,-0.9143716836899518,0.6366894454278051
1772527258934659800,1.707659912109375,-4.067774924090505,-3.1067589781254528,0.8784615813970565
1772527258944641800,1.717641845703125,-4.414351396489143,-4.548087082239985,1.3573423915691674
1772527258954624000,1.7276240234375,-5.522125006863474,-4.958371764439344,0.8967650806549936
1772527258964607000,1.73760693359375,-8.112120457276701,-4.835445641994476,0.15569683073349297
1772527258974589000,1.7475888671875,-11.57333000217676,-4.604423886489868,0.296726107558608
1772527258984571000,1.75757080078125,-14.011300661432742,-4.059112309685349,0.9794441675812006
1772527258994552800,1.767552734375,-14.288289218342303,-4.2335201975643635,1.9594149893850088
1772527259004535800,1.777535888671875,-12.839547038578987,-4.424456610918045,2.809607338631153
1772527259014518000,1.78751806640625,-10.153469048982858,-3.995094303283095,3.37284444822669
1772527259024500000,1.7975,-7.335417707133293,-3.630338031071424,2.988845423145592
1772527259034482000,1.80748193359375,-5.259646036821604,-3.3852848276048895,0.8147514719001948
1772527259044465000,1.81746484375,-3.695800391063094,-3.124427321285009,-2.248102898047119
1772527259054446600,1.827446533203125,-1.3907710523098706,-2.116127646097541,-2.8006112544879316
1772527259064428800,1.8374287109375,2.063143074885011,-0.007346271109580993,-0.2757077233187854
1772527259074411500,1.84741162109375,5.646832167506218,2.0832553040653465,3.1846959120258687
1772527259084393700,1.857393798828125,8.744931453835964,3.4569770218968388,6.328458340638876
1772527259094375700,1.867375732421875,10.221522594511509,4.513749928352237,6.989096670800447
1772527259104357600,1.877357666015625,8.442205229079724,4.5187890915632245,4.544044821111858
1772527259114340900,1.8873408203125,3.9775592311143875,3.538952709794044,1.8937695279113946
1772527259124322600,1.897322509765625,-0.6009294191300869,3.5950042673617597,0.6428738331511616
1772527259134304800,1.9073046875,-3.9882659185677762,3.633359424719214,0.6315129195727408
1772527259144287500,1.91728759765625,-6.021118484607339,3.030577363459766,1.3521142816573382
1772527259154269700,1.927269775390625,-6.989962932240963,2.3793013204053044,1.7166189171954989
1772527259164252000,1.937251953125,-6.75244129332304,1.6088003475114703,1.5759788588836787
1772527259174233600,1.947233642578125,-5.009452547857165,0.8656225580900907,1.231971067929268
1772527259184216800,1.957216796875,-2.214211588230729,0.2113385653913021,1.3552426428109408
1772527259194198500,1.967198486328125,0.4586562066584825,-0.5149567705512047,1.7907808626018464
1772527259204180700,1.9771806640625,2.5619799007624384,-1.451060393577814,1.1871980794187635
1772527259214163700,1.987163818359375,3.960994465282559,-2.2769722880482672,-0.5801210974443703
1772527259224145700,1.997145751953125,4.818901918950677,-2.7460306462556123,-2.787960447229445
1772527259234128000,2.0071279296875,5.190304205048084,-2.741760713851452,-4.361429661379754
1772527259244109600,2.017109619140625,5.437807139754295,-2.285247072179615,-4.651183007316291
1772527259254092800,2.0270927734375,5.8452791026204824,-1.5210177269011735,-4.078800760495662
1772527259264074800,2.03707470703125,6.418869848448038,-0.6953796809360384,-3.3057574096426365
1772527259274056700,2.047056640625,7.189529811295866,-0.08802928884774446,-3.1556349449753758
1772527259284038700,2.05703857421875,7.848335665333271,0.2934454784527421,-3.4135423693180083
1772527259294021600,2.067021728515625,8.176020974779128,0.6797758690908551,-3.586446866896748
1772527259304003800,2.07700390625,7.96033064391911,1.1667454393029213,-3.5018186186641453
1772527259313985500,2.086985595703125,7.314858318707347,1.5801049989029765,-3.2668285440504548
1772527259323968800,2.09696875,6.820111977013945,1.9564530708394943,-2.8952365805998443
1772527259333950700,2.10695068359375,6.753823103070259,2.275753998299688,-2.2958859550938007
1772527259343932700,2.1169326171875,6.635320057764649,2.606345988972485,-1.6744982698246835
1772527259353914600,2.12691455078125,5.681018514746428,2.820771706724167,-1.205098404703289
1772527259363897900,2.13689794921875,3.7021851236641403,2.8742005145728586,-1.0530204220540822
1772527259373879600,2.146879638671875,1.2686661831200121,2.6703338924974203,-1.008986780668795
1772527259383861800,2.15686181640625,-0.9674725747585297,2.318588785289228,-0.7318995856903493
1772527259393843700,2.16684375,-2.873215010666847,1.3664469045229255,0.3208493259459734
1772527259403826700,2.17682666015625,-4.154064968055486,-0.16287439421266317,1.2434231669224798
1772527259413808600,2.18680859375,-5.068173032373189,-1.8086784844726322,-0.04486073985919356
1772527259423790600,2.19679052734375,-8.135655062121153,-3.0531086364805695,-1.741886775573343
1772527259433773800,2.20677392578125,-15.266259806239605,-3.2952930065125225,-0.8586231276568025
1772527259443755500,2.216755615234375,-23.310414980793,-3.3817812033981083,2.531320850865543
1772527259453737700,2.22673779296875,-26.647160526156423,0.014624883810430764,5.06061984051466
1772527259463719700,2.2367197265625,-26.083199778461456,4.427227829197049,6.433758790022134
1772527259473702700,2.24670263671875,-24.273751478660106,3.5212346822738647,8.111435397621989
1772527259483684900,2.256684814453125,-20.662986747586725,1.6092239797510206,7.797908961910009
1772527259493666600,2.26666650390625,-16.165911475181577,-0.06597951573356986,7.099837849932909
1772527259503649800,2.27664990234375,-11.383266864526272,-2.443871261601895,6.702495066893101
1772527259513631500,2.286631591796875,-6.516624120235443,-4.743633035215735,5.7728556714445345
1772527259523613700,2.29661376953125,-1.8254612769693135,-6.384459044802188,4.177908200457692
1772527259533596000,2.306595947265625,2.4578239452391863,-7.564693495753407,2.5774855129301546
1772527259543578600,2.31657861328125,5.75503476807177,-8.209882912370562,1.0256310414776206
1772527259553560800,2.326560791015625,7.479357391512393,-7.998211169502139,-1.3575037196107207
1772527259563542500,2.33654248046875,7.754038256001472,-7.085093869787454,-4.28597110029161
1772527259573524700,2.346524658203125,6.975300785160064,-5.652537101149559,-5.933036881050467
1772527259583507700,2.3565078125,5.680170958006381,-3.680499946078658,-5.212312038716673
1772527259593489700,2.36648974609375,4.413248403683305,-1.7405469052717089,-3.3208325214385983
1772527259603472000,2.376471923828125,3.1387861015051604,-0.17280352142229674,-1.6230881083220243
1772527259613454600,2.38645458984375,1.7790303651839494,1.0022687244601547,-0.4716075312335044
1772527259623436800,2.396436767578125,0.7891039665549993,1.7666554522573947,0.43276532101146875
1772527259633418800,2.406418701171875,1.1875082413464784,2.3256990556858477,0.9924318786438554
1772527259643400700,2.416400634765625,2.7679268362432716,2.485541680987179,1.1662844707276672
1772527259653383700,2.4263837890625,4.8622547384649515,2.5791496467500923,1.1601920721367
1772527259663365600,2.43636572265625,6.72670245643258,2.541245740291476,0.6210759159062057
1772527259673347600,2.44634765625,7.890113782876729,2.1807149768203495,-0.12291432240922004
1772527259683329500,2.45632958984375,8.338703353551029,2.084335792778432,-0.7602607339084148
1772527259693312800,2.466312744140625,8.167985552361607,2.174083429851383,-1.1719374549880623
1772527259703294700,2.476294677734375,7.660148842948675,2.5532459746867415,-1.0672420588258653
1772527259713276700,2.486276611328125,6.938881564301252,2.8288272951468825,-0.82782729963772
1772527259723259600,2.496259765625,6.406218456667661,2.7632997609645127,-1.043271327586472
1772527259733241900,2.506241943359375,6.221821674215794,4.376137401168048,0.11975616890555248
1772527259743223600,2.5162236328125,5.680978182736038,3.5745009930372236,0.3962394979730248
1772527259753205800,2.526205810546875,5.440635056656599,2.292318033479154,-0.8665154152765869
1772527259763188500,2.5361884765625,5.695126535075903,3.3203236951336264,-1.2868863149434326
1772527259773170700,2.546170654296875,5.030919698777795,3.738537416766584,-1.2011286242894827
1772527259783152600,2.556152587890625,3.835162684524059,3.732947341674566,-0.49184422704372555
1772527259793135600,2.566135498046875,3.355875193247199,3.9478085282340643,-0.14399402664853259
1772527259803117800,2.576117919921875,3.6755724265486,3.939134807913005,0.2705850830754265
1772527259813099500,2.586099609375,4.602397933620214,3.8980125239297747,1.0733546964872627
1772527259823081700,2.596081787109375,5.697641732767224,3.527326861669123,1.5158409087851643
1772527259833064700,2.606064697265625,5.910410038700699,2.809642409944534,1.2722476948685943
1772527259843046700,2.616046630859375,4.550469008940458,2.0733891590893267,0.3405050435304642
1772527259853028900,2.62602880859375,1.4853963784217834,1.0295683809265495,-0.5553090200100094
1772527259863010600,2.636010498046875,-1.2969161260485649,0.17773147934377193,-0.27296931133083996
1772527259872993800,2.645993896484375,-2.3058552681833504,-0.56836044395864,0.888393777346611
1772527259882975500,2.6559755859375,-1.694496224975586,-1.3941133484750985,1.5740528592571614
1772527259892957700,2.665957763671875,-1.1278946073830127,-2.5849472271129486,0.8159554408624767
1772527259902940700,2.675940673828125,-2.2368811006784437,-3.6178678410768508,-1.2069131259750574
1772527259912922600,2.685922607421875,-6.525552692100406,-3.7613296788111326,-2.7909038072049617
1772527259922904800,2.69590478515625,-12.961108886933326,-2.8937381587356326,-3.0632004069060086
1772527259932886500,2.705886474609375,-19.325240598499775,-1.3858666213944553,-1.7041833601228893
1772527259942869800,2.715869873046875,-23.0160801522851,0.7278399350360035,0.7357893596705049
1772527259952851700,2.725851806640625,-22.792617433857917,1.6243582743883132,3.16478505063653
1772527259962833700,2.735833740234375,-19.743639029049874,1.2484046085968612,3.8580379486769436
1772527259972816000,2.74581591796875,-15.20304259482622,0.17417904755920172,2.967610035154223
1772527259982798800,2.755798828125,-10.274387923258542,-1.6160115940645337,1.4892901709899304
1772527259992780800,2.76578076171875,-5.602578015238047,-3.463002565796673,-0.1330520874008536
1772527260002762800,2.7757626953125,-1.878404347127676,-4.555127940662205,-1.0257250033713876
1772527260012745700,2.785745849609375,0.6848714386641979,-4.7094157083153725,-0.9133527889709919
1772527260022727700,2.795727783203125,2.442779520842433,-3.9889091849073766,-0.23977307110652327
1772527260032709600,2.805709716796875,3.760437406146526,-2.7675594642356036,0.5897537989906967
1772527260042691600,2.815691650390625,5.009706814879179,-1.6233283468186854,1.0570645828783511
1772527260052674600,2.825674560546875,6.155294315341115,-1.0205448242545128,0.8119650560520589
1772527260062656800,2.83565673828125,6.81068539249897,-1.023839774146676,-0.7344204824700951
1772527260072638500,2.845638427734375,6.948673474997282,-1.2347975235268474,-2.6773136683821677
1772527260082620700,2.85562060546875,6.792246649488806,-1.2861109466567635,-3.814221018782258
1772527260092603600,2.865603759765625,6.351420698553324,-1.0614823993206024,-3.8822102669030425
1772527260102585600,2.875585693359375,5.616899970579147,-0.4806900515511632,-3.08245426569134
1772527260112567600,2.885567626953125,4.7995589205771685,0.3348670376434922,-1.7929340951129793
1772527260122550500,2.895550537109375,4.34415908536613,1.1069373056806624,-0.2790269308693707
1772527260132532500,2.905532470703125,4.5192882732570165,1.8277087636351583,1.298537443640083
1772527260142514400,2.915514404296875,5.0650528545260425,2.053084037685394,2.5205101185157894
1772527260152496600,2.92549658203125,5.7620174665659665,1.9531746336907148,3.1424761881947516
1772527260162479600,2.935479736328125,6.324796310999989,1.9240121059618889,3.190856772743165
1772527260172461600,2.945461669921875,6.616925738418102,1.9792380263604223,2.776911522209644
1772527260182443500,2.955443603515625,6.58252019546926,2.0715414853960272,2.1110031426906586
1772527260192425500,2.965425537109375,6.296313143837452,2.2434964271649718,1.0945733525395394
1772527260202408400,2.975408447265625,5.963459491842984,2.321639112770557,-0.21432430320382118
1772527260212390700,2.985390625,5.679138692349195,2.2964225461885333,-1.660008264440298
1772527260222372600,2.99537255859375,5.614872264143824,2.384482814696431,-2.5597908662855624
1772527260232355600,3.00535546875,5.799024131923914,2.7126538618326186,-2.6891452682122585
1772527260242337500,3.015337646484375,6.111788351091742,3.1413401699021457,-2.14033255141899
1772527260252319500,3.025319580078125,6.381975411292911,3.6869524832189082,-1.3712693562433123
1772527260262301700,3.0353017578125,6.501571512532234,4.085072095850109,-0.6978859646685421
1772527260272284400,3.045284423828125,6.5598845852911465,4.26450453389287,-0.19306133308578283
1772527260282266600,3.0552666015625,6.558336771327257,4.368266229401528,0.02637916235430166
1772527260292248600,3.06524853515625,6.542052576002479,4.32158280415982,0.004778576046042144
1772527260302230500,3.07523046875,6.535276213735342,4.097801813563704,-0.197057015125826
1772527260312213800,3.0852138671875,6.346052449518441,3.6609924047932028,-0.5426542672287672
1772527260322195500,3.095195556640625,5.664247997209429,3.1366438287794587,-0.7118930819068103
1772527260332177700,3.105177734375,4.708813650768995,2.650971604901552,-0.2667228912219405
1772527260342160400,3.115160400390625,3.776049401298165,2.033451408715546,0.5230420965250581
1772527260352142600,3.125142578125,2.7140093680948016,1.1472896282047034,1.2897582171179354
1772527260362124800,3.135124755859375,1.1850614327162503,-0.21166823573708532,1.4015826614424585
1772527260372106500,3.1451064453125,-1.086278402402997,-2.22654704592973,0.5328177136734128
1772527260382089700,3.15508984375,-3.830893921163678,-4.513271204924584,-0.6398004170551895
1772527260392071400,3.165071533203125,-6.810878284722566,-6.538519141179322,-0.996998163646087
1772527260402053600,3.1750537109375,-10.711223343253135,-7.881285748776793,-0.20766290908586232
1772527260412035600,3.18503564453125,-16.135125876295564,-6.921856779742241,0.484593780991435
1772527260422018600,3.1950185546875,-22.563543305289745,-2.1428198381900785,0.5153677625048906
1772527260432000500,3.20500048828125,-28.648830018424984,0.6489578292399645,2.6026225845351814
1772527260441982500,3.214982421875,-31.41266929309368,1.1219070574060082,4.324823101255298
1772527260451964700,3.224964599609375,-30.142094061481952,1.08119525391981,3.8230081363499164
1772527260461947600,3.23494775390625,-26.583265269351003,-0.18135946058258412,3.2349063423499462
1772527260471929600,3.2449296875,-20.990148325419426,-0.9841969150662422,1.9415879485324024
1772527260481911600,3.25491162109375,-13.965560654520988,-1.9501389192566274,0.27229521146155894
1772527260491894500,3.26489453125,-7.539975818604231,-3.4368682998478413,0.3601022723933682
1772527260501876500,3.27487646484375,-3.138708360093832,-4.222683161729574,1.9872744716912507
1772527260511858400,3.2848583984375,-0.4771539863795042,-4.270260905462504,3.292156462052464
1772527260521840600,3.294840576171875,1.3290543085873125,-3.5539617706164717,3.679566756881773
1772527260531823600,3.30482373046875,2.625337397429347,-2.4686904994294046,3.303480989143252
1772527260541805600,3.3148056640625,3.495998534208536,-1.3266250356137752,2.2309885355085135
1772527260551787500,3.32478759765625,4.146713436248898,-0.6016629941016435,0.20096839814959092
1772527260561769500,3.33476953125,4.967528884363174,-0.6236284499332309,-2.306303888733685
1772527260571752400,3.34475244140625,6.034601651036739,-0.6987734150275587,-3.8633942150130864
1772527260581734700,3.354734619140625,7.139516949370503,-0.3133034406110644,-4.066271241529286
1772527260591716600,3.364716552734375,7.926172353729605,0.2478156539171934,-3.7149943363547324
1772527260601699600,3.374699462890625,8.374401858919859,0.896810600297153,-3.37090442007482
1772527260611681500,3.384681640625,8.628026491376756,1.6550094332396983,-3.0144910287946463
1772527260621663500,3.39466357421875,8.798895683735608,2.3920056114166974,-2.464134735821187
1772527260631645700,3.404645751953125,9.043442106723784,2.9243790884539482,-1.2747739984758197
1772527260641628400,3.41462841796875,9.669335286718606,3.2194191426217555,0.7517809287242591
1772527260651610600,3.424610595703125,10.788369711297749,2.833892761842906,2.030575561018288
1772527260661592600,3.434592529296875,11.826389401966333,2.4406986229151486,1.9235010876998304
1772527260671574500,3.444574462890625,12.215532511937617,2.7424729537740347,0.7371466925635933
1772527260681557800,3.454557861328125,12.415725413936375,3.271679491212964,-1.1374340046226978
1772527260691539500,3.46453955078125,11.801228072702884,2.97589680198431,-2.1984926255732775
1772527260701521700,3.474521728515625,10.289996995800733,2.3393974723011253,-2.707077230744064
1772527260711503600,3.484503662109375,8.564995742446184,2.2669898232162,-2.9823657057374713
1772527260721486600,3.494486572265625,7.088070839771628,2.8806910456359387,-3.2332150282621384
1772527260731468800,3.50446875,5.984530336922407,3.5372684099689122,-3.4940023919552563
1772527260741450500,3.514450439453125,4.607579135650396,3.8394115741401906,-3.597575579154491
1772527260751433700,3.524433837890625,2.933749266606569,4.098205133667588,-3.3549569093585014
1772527260761415400,3.53441552734375,1.6066647967875003,4.546386708062887,-2.811547951304912
1772527260771397600,3.544397705078125,0.9004489567995071,4.927862059885263,-2.1395301489949223
1772527260781379600,3.554379638671875,0.8401204525649547,4.904456634378433,-1.680677396851033
1772527260791362600,3.564362548828125,1.2566904986441134,4.640670088869333,-1.3363184543713926
1772527260801344500,3.574344482421875,1.6507190425693987,4.228031829281151,-0.8495882458731532
1772527260811326500,3.584326416015625,1.5144921245247125,3.850586755888164,-0.6547080633297562
1772527260821308700,3.59430859375,0.3570394142240286,3.7096725568100806,-0.5048882348708809
1772527260831291600,3.604291748046875,-1.4286889872938393,3.3001685035943984,0.01745806140974164
1772527260841273600,3.614273681640625,-3.0233325068980452,2.608119428385794,0.37264892515763637
1772527260851255600,3.624255615234375,-4.092953789010644,1.6078993070185184,0.2957433801315725
1772527260861238500,3.634238525390625,-4.222162937247753,0.17266338229924438,-0.3037204964905977
1772527260871220500,3.644220458984375,-3.4606431431889533,-1.6246978816062212,-0.865921394906193
1772527260881202400,3.654202392578125,-2.5880694507867097,-2.976417026466131,-0.5849024134367704
1772527260891184600,3.6641845703125,-2.7073066555857657,-3.177549255141616,0.0896740603800863
1772527260901167600,3.674167724609375,-4.350363200703263,-2.8938708452045914,0.4329812287844717
1772527260911149600,3.684149658203125,-6.857675691732764,-1.9589096702113746,0.380130586149916
1772527260921131500,3.694131591796875,-9.42046164818108,-0.41831630522459745,0.6326869317881763
1772527260931113500,3.704113525390625,-10.34031848528385,0.8281617192238568,0.7121070899836719
1772527260941096400,3.714096435546875,-8.808892761614919,1.0857643154010177,-0.9115162942588328
1772527260951078700,3.72407861328125,-5.9917497667819255,0.2919856350332498,-2.339982432582229
1772527260961060600,3.734060546875,-3.594546586722135,-1.3981526869937777,-2.543926649938524
1772527260971042600,3.74404248046875,-1.9788743076145647,-3.485781968359649,-2.7638161860540507
1772527260981025500,3.754025634765625,-1.6200082624852656,-4.977722361597419,-3.2465207922980186
1772527260991007500,3.764007568359375,-2.9815374382197857,-5.006197345453501,-3.327521789944172
1772527261000989700,3.77398974609375,-5.271530535882711,-3.713666887143254,-2.754910118281841
1772527261010972400,3.783972412109375,-7.007036816638708,-2.3231287668064233,-2.1432035768106577
1772527261020954600,3.79395458984375,-7.765228343057632,-1.4903078235998748,-1.7770555579796432
1772527261030936600,3.8039365234375,-7.585127796494961,-1.2944804233342408,-1.9167277941726146
1772527261040918500,3.81391845703125,-6.578082505282759,-1.721036002985388,-2.2170149552136658
1772527261050901800,3.82390185546875,-4.865309449860454,-2.3436275110863147,-1.6481377939045427
1772527261060883500,3.833883544921875,-3.051991030627489,-2.480221655008197,-0.25953539087064564
1772527261070865700,3.84386572265625,-2.039893132200837,-1.9292064597345888,1.2790893774569034
1772527261080847600,3.85384765625,-2.4281641355127093,-0.7803884529188275,3.0652503251731393
1772527261090830600,3.86383056640625,-3.71630424990952,0.2129858942069113,4.920186118429899
1772527261100812800,3.873812744140625,-4.515789325225353,0.9971242011785506,6.166291510173678
1772527261110794500,3.88379443359375,-4.549004781606794,1.46524206366539,6.731448774176836
1772527261120776700,3.893776611328125,-3.8758518377870317,1.6206171881638467,6.7603954671978945
1772527261130759400,3.903759521484375,-2.6403923432201144,1.7441911069929599,6.216196235549449
1772527261140741600,3.91374169921875,-1.2974410267055034,1.7617622733883558,5.415754297900199
1772527261150723600,3.9237236328125,0.21289047100841998,1.8764166804417968,4.488423179394006
1772527261160706600,3.93370654296875,1.9647405683219432,2.0889571689687667,3.3775413738712667
1772527261170688500,3.9436884765625,3.697216103079915,2.1129072227463124,2.0447063777014614
1772527261180670500,3.95367041015625,5.332185787853598,1.8467650540217757,0.5127332492828369
1772527261190652700,3.963652587890625,6.791352915519475,1.420199537498504,-0.7299781161084771
1772527261200635600,3.9736357421875,8.010402542555331,1.1016272165738046,-1.4615021464847027
1772527261210617600,3.98361767578125,8.829182100927829,1.0216614071942864,-1.6900616035290061
1772527261220599600,3.993599609375,9.225203279975057,1.1040792859010398,-1.4748866748452185
1772527261230581500,4.00358154296875,9.28073636662662,1.370792386381328,-1.0361330001391469
1772527261240564500,4.013564453125,9.04046630578339,1.7678642435252665,-0.6965332348853349
1772527261250546400,4.02354638671875,8.513107734298705,2.039167448274791,-0.8662968040898442
1772527261260528600,4.033528564453125,7.627699694764614,2.2481439607098697,-1.4854701743103562
1772527261270510600,4.043510498046875,6.372058997434377,2.5143346447512505,-2.0909886747963724
1772527261280493600,4.05349365234375,4.850809799864888,2.89391059269309,-2.2836013507992026
1772527261290475500,4.0634755859375,3.3237451940149065,3.1158368953332305,-1.8664374304801226
1772527261300457500,4.07345751953125,2.1467864037334916,3.0646836312010883,-1.1777595852702856
1772527261310439700,4.083439697265625,1.4905939470648766,2.9024349676713346,-0.7729701394863426
1772527261320422700,4.093422607421875,1.3907342274308203,2.263286000262201,-0.9597048633664846
1772527261330404600,4.103404541015625,1.5176812759548424,0.9733817988023161,-1.3551555490493774
1772527261340386600,4.113386474609375,1.4372428806275128,-0.46151481095999475,-1.6543597371593117
1772527261350369500,4.12336962890625,0.716207072648406,-2.129588892956078,-1.4812385280899703
1772527261360351500,4.1333515625,-0.4337392075449228,-3.561614623457193,-1.2051440704759209
1772527261370333700,4.143333740234375,-1.3262731534361838,-3.932599853186309,-1.8374033514365553
1772527261380315600,4.153315673828125,-2.294158985170722,-3.904384689310193,-3.292254077208042
1772527261390298600,4.163298583984375,-5.177191040974855,-3.884920694905519,-4.4532408068537706
1772527261400280600,4.173280517578125,-10.877288350200653,-3.492990292303264,-4.534976256254315
1772527261410262500,4.183262451171875,-16.947057176208496,-2.0339540975406765,-2.8810318218976256
1772527261420244500,4.193244384765625,-20.741448289883134,-0.15136530433520673,-0.039710951314005066
1772527261430227500,4.2032275390625,-21.032914284956455,1.2911379810385406,1.9693458701603113
1772527261440209700,4.213209716796875,-17.561051828616858,1.1310716299839316,2.2154985593013463
1772527261450191600,4.223191650390625,-12.295026319891214,-0.9979274803854524,0.9802990308448671
1772527261460173600,4.233173583984375,-7.7331790078461164,-3.0190374400526285,-0.8474662122178822
1772527261470156500,4.243156494140625,-4.9826557263463735,-3.729482295912504,-1.4318272853195666
1772527261480138500,4.253138427734375,-3.295694573050737,-4.336343735440075,-1.2430205774709582
1772527261490120700,4.26312060546875,-1.4654688581585884,-4.317856184852123,-0.42596382430307567
1772527261500102400,4.273102294921875,0.6355658482253551,-3.2270714109405874,0.7270308836754411
1772527261510085600,4.283085693359375,2.4136726688235997,-1.6661220711454747,1.8477701394110917
1772527261520067300,4.2930673828125,3.5008664325058456,-0.30808482917994257,2.4123260765202343
1772527261530049500,4.303049560546875,4.123914159941673,0.6186643977850675,2.2683687103539705
1772527261540032500,4.313032470703125,4.085077356547117,0.869846313264966,1.5570660686209796
1772527261550014500,4.323014404296875,4.179191810527444,0.5572904761508107,0.372541007803753
1772527261559996700,4.33299658203125,4.639177219963074,0.39661154615581035,-0.7348919724393635
1772527261569978400,4.342978271484375,5.194101843765377,0.17055033566802738,-1.7571159088872372
1772527261579961600,4.352961669921875,5.260359738048911,-0.003260024709254503,-2.6773160064697263
1772527261589943600,4.362943603515625,4.321005588793755,0.11117080272138118,-2.892273639141023
1772527261599925500,4.372925537109375,2.7527234218925236,0.949117272248119,-1.968558665305376
1772527261609907700,4.38290771484375,1.101895658251643,2.228650740210712,-0.22655978939337654
1772527261619890700,4.392890625,0.09437982691824436,3.1470886504262685,1.2751634361848234
1772527261629872600,4.40287255859375,0.05508768097162246,3.49643867919147,2.1159660257950423
1772527261639854600,4.4128544921875,0.8666244286090135,3.5097409360960126,2.243646210899204
1772527261649836500,4.42283642578125,2.2057909658879042,3.376714567658305,2.0051544117748734
1772527261659819500,4.432819580078125,3.863954479244351,3.035532063257694,1.6518775649547577
1772527261669801500,4.442801513671875,5.625152835139632,2.719684198860824,1.2229757144384086
1772527261679783700,4.45278369140625,7.282066056174039,2.5710794452801347,0.7372971338849514
1772527261689765400,4.462765380859375,8.512327982097863,2.425621173031628,0.31658856322895734
1772527261699748600,4.47274853515625,9.266235547587275,2.1959879492759704,0.02386358107049018
1772527261709730600,4.48273046875,9.617235681647061,2.09608029884696,-0.04416844674609601
1772527261719712500,4.49271240234375,9.702242115542292,2.2352549607813357,-0.04170311607848853
1772527261729695500,4.502695556640625,9.595582652765511,2.4050603233009578,-0.1844201998600736
1772527261739677700,4.512677734375,9.20680603801906,2.388684942561388,-0.5263033998759463
1772527261749659600,4.52265966796875,8.386380466005205,2.3211638964742423,-0.8931587267260997
1772527261759641600,4.5326416015625,7.358686354517936,2.2475381037712094,-1.0217447015635668
1772527261769624600,4.54262451171875,6.480714017942548,2.2302751265421508,-0.8167126159053295
1772527261779606500,4.5526064453125,6.072037355461716,2.357109654602408,-0.5064907016314566
1772527261789588700,4.562588623046875,5.905210131970048,2.233331591503322,-0.37265298027824606
1772527261799570700,4.57257080078125,5.563545397010445,1.809639146198332,-0.3510732723612338
1772527261809553700,4.5825537109375,4.687974860879779,0.8678218217000365,-0.09176913296319544
1772527261819535600,4.59253564453125,3.185530901545286,-0.33038755414187904,0.44590427711308
1772527261829517600,4.602517578125,1.3821855947941541,-1.59807729344517,1.9284239310547708
1772527261839499500,4.61249951171875,-0.16404139216542243,-2.4453666147261854,4.1812034426108005
1772527261849482500,4.622482421875,-1.3694512009054423,-2.5723832213550804,5.464470690274238
1772527261859464700,4.632464599609375,-3.12215060852468,-2.5825305213600394,4.480864434577525
1772527261869446400,4.6424462890625,-5.999890403139591,-3.216837017174065,1.670217231504619
1772527261879428600,4.6524287109375,-8.925887740445136,-4.08142438699752,-1.2508432339206337
1772527261889411600,4.66241162109375,-11.013867734944819,-4.39790879573226,-2.3183460625745353
1772527261899393500,4.6723935546875,-12.010734746491908,-3.99793858679831,-1.8039504330374299
1772527261909375700,4.682375732421875,-11.112128202688693,-3.029753772117197,-1.4131456734642385
1772527261919358500,4.6923583984375,-9.748582426434755,-2.7072189773023125,-2.2018682394862172
1772527261929340700,4.702340576171875,-9.051978464400769,-2.980731090272963,-3.5053502999216315
1772527261939322400,4.712322265625,-9.072183048039674,-2.773192501686513,-3.773210670740902
1772527261949304600,4.7223046875,-9.701008774355053,-1.8599734951630233,-2.584318281559646
1772527261959287600,4.73228759765625,-9.923647901439667,-0.8009048789858818,-0.51900312333256
1772527261969269500,4.74226953125,-9.0134993884027,0.18249591726660727,1.0674553362503647
1772527261979251700,4.752251708984375,-7.139529808852076,0.9962903807029128,1.75713417519629
1772527261989233400,4.7622333984375,-4.494456029817462,0.7395356335267425,1.4864350738197565
1772527261999216600,4.772216552734375,-1.688873124396801,-0.6627399786159396,-0.6604043752752244
1772527262009198600,4.782198486328125,0.21304127765595912,-2.2491890858486294,-3.4429081645339727
1772527262019180500,4.7921806640625,0.9148825558215379,-2.6417899350583554,-4.5554108492568135
1772527262029162800,4.802162841796875,0.6483721383064985,-1.5823296892151235,-3.364683061341941
1772527262039145500,4.8121455078125,-0.10804711774289608,-0.07435615280419587,-1.3616804207734763
1772527262049127700,4.822127685546875,-1.0658926169782876,1.198687807008624,0.5491679234391078
1772527262059110100,4.832110107421875,-1.5500100126296281,2.112172332600504,1.6166890549346804
1772527262069092400,4.84209228515625,-1.4918717119157314,2.44685553810969,1.7985338148161767
1772527262079075000,4.852074951171875,-0.9404933824181556,2.1376468194663523,1.2839432472288608
1772527262089057300,4.862057373046875,-0.01376607502400875,1.7019982711687682,0.40790516665168103
1772527262099039000,4.8720390625,1.048267528438568,1.4085101226180792,-0.42907479593046005
1772527262109021200,4.882021240234375,2.208816451188922,1.2595280601575969,-0.8358351033959537
1772527262119004200,4.892004150390625,3.464774543905258,1.4159765129759907,-0.8232367569770663
1772527262128986000,4.901986083984375,4.845130585184693,1.7247507857248185,-0.7984783094260841
1772527262138968300,4.91196826171875,6.26819179572463,2.075982682713866,-0.574950124547258
1772527262148951000,4.921950927734375,7.473235109239816,2.5000544827252624,-0.28582762386016547
1772527262158933200,4.931933349609375,8.164765421271325,2.8492966672018167,0.17310184678174553
1772527262168915200,4.941915283203125,8.476355335962772,3.0526316666185855,0.48545273590832944
1772527262178897200,4.951897216796875,8.431042030030488,3.277057384859025,0.5671721109569072
1772527262188880100,4.961880126953125,8.185654480043054,3.324093276800215,0.5979168298432603
1772527262198862000,4.971862060546875,7.831373424616456,3.2789056430742143,0.32907289134673773
1772527262208844300,4.98184423828125,7.429374340203404,3.1904820942118763,0.0988748002499342
1772527262218826000,4.991825927734375,7.0476751164972775,3.1541604885086416,-0.04368786015491932
1772527262228809200,5.001809326171875,6.65109513452351,3.207827196766436,-0.12585158143751324
1772527262238791200,5.011791259765625,6.230985808402299,3.20944281526953,0.15565437983125446
1772527262248773000,5.021773193359375,5.948312191593646,3.2685622359752653,0.8596073894537984
1772527262258755300,5.03175537109375,5.551705321612954,3.4045880784898994,1.64832951708436
1772527262268738300,5.04173828125,5.036712895226478,3.1945348767340183,2.501815939439833
1772527262278720300,5.05172021484375,4.475056332820654,2.6073668564528227,3.0936525360539555
1772527262288702200,5.0617021484375,3.6678105603754516,1.7048931158274412,3.2700024979114533
1772527262298684200,5.07168408203125,2.6095208196163178,0.6343477046072483,3.562417172011733
1772527262308667100,5.081667236328125,1.6083505579173565,0.18631313746720551,3.801702605731785
1772527262318649000,5.091649169921875,0.5790805754154921,0.1355842362269759,3.4038135869860646
1772527262328631000,5.101631103515625,-0.7366951494038104,-0.5458446607679128,2.308038165180385
1772527262338613200,5.11161328125,-2.0231997715532777,-1.9619220037698744,0.3509227214420214
1772527262348596200,5.12159619140625,-3.4455344213843344,-3.5378239980250594,-2.5593364005163313
1772527262358578200,5.131578125,-5.348813682049513,-4.883633626580238,-4.754356381542981
1772527262368560000,5.14156005859375,-8.367495148271322,-5.791686044120788,-4.9264481014341115
1772527262378542000,5.1515419921875,-11.725039151513576,-6.10459405567348,-3.8812905217096207
1772527262388525300,5.161525390625,-14.062521145582199,-5.332288079184293,-3.382736896687746
1772527262398507000,5.171507080078125,-14.565140997129678,-4.240051937420666,-3.028803631785512
1772527262408489200,5.1814892578125,-12.90735157778263,-3.7731314680248498,-1.9631329869948326
1772527262418472000,5.191471923828125,-9.942509253776073,-3.464364209538698,-1.2212205413341521
1772527262428454100,5.2014541015625,-7.045011450245976,-2.7784356630370017,-0.9798584474705159
1772527262438436400,5.211436279296875,-5.233668130478263,-2.1771996621757745,-0.5757515771232545
1772527262448418000,5.22141796875,-4.421845551636815,-1.719718344515562,-0.05913607957959175
1772527262458401300,5.2314013671875,-4.051213080868124,-1.120447213986516,0.2977176028139889
1772527262468383000,5.241383056640625,-3.7749744655430315,-0.40293256587088105,0.10616349595338105
1772527262478365200,5.251365234375,-3.420950599747896,0.16712386835068463,-0.27681436938643456
1772527262488347100,5.26134716796875,-2.842802336746454,0.641838060362637,-0.4523467312507331
1772527262498330000,5.271330078125,-1.8426853834927082,1.1332786385089157,-0.352602746950835
1772527262508312300,5.281312255859375,-0.29176702384650705,1.592316245700419,-0.09878288418278097
1772527262518294000,5.2912939453125,1.797030132254958,1.848756227838993,0.1222700696889311
1772527262528276200,5.301276123046875,4.017029656237364,1.8703852913230656,0.3427197969704866
1772527262538259200,5.31125927734375,5.725750805920362,2.1015406100794674,0.3740731127418577
1772527262548241200,5.3212412109375,6.510290825560689,2.3776655358970165,0.39811544791273773
1772527262558223400,5.331223388671875,6.516170531249046,2.380088963651657,0.4148355869693681
1772527262568205000,5.341205078125,6.202147836452722,2.283498474946618,0.4503229703381657
1772527262578188300,5.351188232421875,5.681404299193621,2.364961829407513,0.40857342130206525
1772527262588170000,5.361169921875,4.993392808938026,2.4567691754892467,0.2036309501560405
1772527262598152200,5.371152099609375,4.37498735435009,2.3861700371310115,-0.195606962447986
1772527262608134100,5.381134033203125,3.872169934403896,2.285520628423989,-0.6493322885755449
1772527262618117000,5.3911171875,3.5019600729614493,2.186143139348924,-1.0467384191751479
1772527262628099300,5.401099365234375,3.335572409930825,2.0377812546133995,-1.4268912902221083
1772527262638081000,5.4110810546875,3.43416663967371,1.9130042436048387,-1.7730039445012806
1772527262648063200,5.421063232421875,3.876381999140978,1.837950463925302,-2.083788095767796
1772527262658046200,5.431046142578125,4.547390916669369,1.7472580933481454,-2.2734452829658984
1772527262668028200,5.441028076171875,5.244934789901971,1.6787363457858562,-2.2837489425763486
1772527262678010000,5.451010009765625,5.865789975729585,1.7759210009917616,-2.240658865651488
1772527262687992000,5.460991943359375,6.353398136106133,2.02773712272197,-2.0676023923814295
1772527262697975000,5.47097509765625,6.639248044863343,2.404139993585646,-1.7506722857058048
1772527262707957200,5.480957275390625,6.7520239446938035,2.7982150070011613,-1.383035051230341
1772527262717939200,5.490939208984375,6.7102785603761665,3.142384125997126,-1.0192789690371602
1772527262727921200,5.500921142578125,6.460456827333569,3.377645126506686,-0.7982222888384014
1772527262737904000,5.510904052734375,6.103311614647508,3.35419469281435,-0.7314815794739872
1772527262747886000,5.520885986328125,5.6484927941948175,3.1608368975326417,-0.9296428295146674
1772527262757868000,5.530867919921875,5.052178175383806,2.822412167407572,-1.2199806973408907
1772527262767851000,5.54085107421875,4.427378051322698,2.3698782430216667,-1.3765335603818296
1772527262777833200,5.550833251953125,4.013976113885641,1.8832184694111347,-1.3847753190264105
1772527262787815200,5.560815185546875,3.814263688880205,1.2442819757089019,-1.253897653055191
1772527262797797000,5.570797119140625,3.5473020204663275,0.5213797893360257,-1.1085510244876147
1772527262807780400,5.5807802734375,2.9898318038344383,-0.7199260931715369,-0.7008734560467302
1772527262817762000,5.590761962890625,2.001694626709819,-2.776499434277415,0.28400121215060353
1772527262827744300,5.600744140625,0.6637848114937543,-5.0624447178542615,1.370782303378731
1772527262837726200,5.610726318359375,-1.2343962492495775,-6.957142028135061,1.6721699730075894
1772527262847709200,5.620709228515625,-4.376742089062929,-8.134532780092954,0.9238241332985461
1772527262857691100,5.630691162109375,-9.130617701351643,-9.367423300954698,0.17517843386009335
1772527262867673000,5.640673095703125,-14.88101311918497,-9.729628719639777,0.020398425710573792
1772527262877655300,5.6506552734375,-20.8244691029191,-7.339122406870127,-0.2071436709847301
1772527262887638000,5.660637939453125,-25.33676064915657,-4.588378468357027,1.0186360680237412
1772527262897620200,5.6706201171875,-26.696047598922252,-2.889199930784106,2.5254852765798566
1772527262907602200,5.680602294921875,-24.755469996476172,-1.8498390546396373,2.3275533052504063
1772527262917584100,5.690584228515625,-19.82592568259239,-1.9584692329674958,1.791343903312087
1772527262927567400,5.7005673828125,-13.850662355709074,-1.9787533115833997,1.2260777721069753
1772527262937549000,5.710549072265625,-8.116158334490656,-1.7070684140399097,1.3188359891727566
1772527262947531300,5.72053125,-3.285800955545902,-1.908063280071318,2.7294518518984314
1772527262957513200,5.73051318359375,-0.4230646687954664,-2.1805136090293527,3.892637260632217
1772527262967496200,5.74049609375,0.6615560295283794,-2.278177864445746,4.057309644177556
1772527262977478100,5.75047802734375,0.8445908759772777,-2.297437860710919,2.9983135087147352
1772527262987460000,5.760460205078125,1.0344213739156722,-1.7911267534300683,1.8997449490591882
1772527262997442300,5.7704423828125,1.6464596315592526,-1.0322861154526473,1.1849399252284318
1772527263007425000,5.780425048828125,2.5019886656582355,-0.4394380037084222,0.49819450938589865
1772527263017407200,5.7904072265625,3.410679965624213,0.18909341583549974,0.30056384082427245
1772527263027389000,5.800388916015625,4.280595252472162,0.6208084240764379,0.5717234541183337
1772527263037371100,5.81037109375,4.8546805038183924,0.8359364448785781,0.668188234084472
1772527263047354000,5.82035400390625,5.2513446569442745,1.0823571373060346,0.39605657915417103
1772527263057336000,5.830336181640625,5.285628034818172,1.3932088008508086,0.10077873417511582
1772527263067318300,5.840318359375,4.6464486722707745,1.6291928549379109,0.12223302561417221
1772527263077300000,5.850300048828125,3.689984982782602,1.839559652687609,0.2229663862776011
1772527263087283200,5.860283203125,3.1652649431079625,2.0869328235343096,0.17204349683523176
1772527263097265200,5.87026513671875,3.2265169919282197,2.184972342003882,-0.0334999724112451
1772527263107247000,5.8802470703125,3.7861627990335225,2.1014505937084555,-0.33842874871306117
1772527263117229300,5.890229248046875,4.648853979846835,1.9609563736081121,-0.6719576696205883
1772527263127212000,5.9002119140625,5.611227185639739,1.9030840303540228,-1.0360318778522313
1772527263137194200,5.9101943359375,6.32878508837521,1.766977523818612,-1.4136143138892947
1772527263147176200,5.92017626953125,6.664920246258378,1.7596248229682445,-1.7430360917389391
1772527263157158100,5.930158203125,6.74182871389389,1.9719439238294958,-1.8923127532318234
1772527263167141000,5.94014111328125,6.7097717798978085,2.1764348152831197,-1.8768502495534718
1772527263177123000,5.950123046875,6.617546500664949,2.3452853612959386,-1.748969281180203
1772527263187105300,5.960105224609375,6.418675202658772,2.5322952488556503,-1.5389138874672352
1772527263197087000,5.9700869140625,6.225306009200215,2.826541230036318,-1.2025148179508744
1772527263207070200,5.9800703125,5.953410391515493,3.215408737936616,-0.6939069780349731
1772527263217052200,5.99005224609375,5.455730918979644,3.54988005426079,-0.2098710866546258
1772527263227034000,6.0000341796875,4.813034488222002,3.6785695625379677,-0.01984700237289071
1772527263237016300,6.010016357421875,4.16774745644927,3.573948327590525,0.10772468085549772
1772527263246999300,6.019999267578125,3.7665146802335974,3.1554657258883116,0.14558993580415844
1772527263256981200,6.029981201171875,3.6643612967044112,2.4607561992987987,-0.02437792380079627
1772527263266963200,6.039963134765625,3.6750884424239394,1.5922136621087788,0.18409568061344325
1772527263276945200,6.049945068359375,3.207230692178011,0.55095075173527,0.8116460532307624
1772527263286928100,6.05992822265625,1.6707184590250252,-0.48256870490461584,1.3342556766226887
1772527263296910000,6.06991015625,-0.8199877651184797,-1.4032815743148326,1.3546122359529136
1772527263306892000,6.07989208984375,-3.466758411198854,-2.225089832858741,0.8917256251830608
1772527263316874200,6.089874267578125,-5.543098821309209,-2.543170570874214,-0.2121081615243107
1772527263326857200,6.099857177734375,-6.8734975302428,-2.36729933244437,-1.422225344237685
1772527263336839200,6.109839111328125,-7.783913169783354,-2.131750454904139,-1.707485762669146
1772527263346821000,6.119821044921875,-9.252412773939966,-1.7522779673367739,-1.105741885351017
1772527263356803000,6.129802978515625,-11.507508161222933,-1.5661659053996204,0.08173930359175428
1772527263366786300,6.139786376953125,-13.371810333240031,-1.2447703437477349,0.8654719706382602
1772527263376768000,6.14976806640625,-13.624395101255178,-0.3298889569699764,0.6270443958565592
1772527263386750200,6.159750244140625,-11.904999412822722,0.29727175874263045,0.24143632814362645
1772527263396732200,6.169732177734375,-8.57770266380608,-0.20738836646080017,-0.024350401039631105
1772527263406715100,6.179715087890625,-4.654900858795642,-0.9976666374921798,-0.5744544134521856
1772527263416697300,6.189697265625,-1.3863947369217873,-1.3855430885285138,-1.2610358343720436
1772527263426679000,6.199678955078125,0.5378548310577869,-1.6882409639731049,-1.2506712383545935
1772527263436661200,6.2096611328125,0.9539975916355847,-1.896373426799476,-0.6201265792921186
1772527263446644000,6.21964404296875,0.3642839785248041,-1.7662980171218514,-0.2701604644551873
1772527263456626200,6.229626220703125,-0.30270342840254305,-1.2989166522160172,-0.3994746074367314
1772527263466608000,6.239608154296875,-0.650206367996335,-0.9646852821275591,-0.6660554598394781
1772527263476590000,6.249590087890625,-0.5672632963716984,-0.8523951199874281,-0.8525169928014278
1772527263486573300,6.2595732421875,0.1742851382821798,-0.3758525435045361,-0.6698030488699674
1772527263496555000,6.269554931640625,1.2565057897269725,0.2892702385947108,-0.16266732733324168
1772527263506537200,6.279537109375,2.2713667231261727,0.8071385126784444,0.4719470653861761
1772527263516519200,6.289519287109375,2.872456301254034,1.0188239918112754,1.1096144159354269
1772527263526502100,6.299502197265625,3.092704149287939,1.3768737521216272,1.5287820772923528
1772527263536484400,6.309484375,2.9401696550428866,1.7834183710098266,1.980009449124336
1772527263546466000,6.319466064453125,2.4956331591516734,1.9837389910414813,2.604420866128802
1772527263556448300,6.3294482421875,2.0721400358110666,2.0283111232176423,3.122871908536553
1772527263566431000,6.339430908203125,1.9062661675214767,1.9953449654221533,3.353913537785411
1772527263576413200,6.3494130859375,2.0488830788642165,1.9385890589773653,3.423845152145624
1772527263586395100,6.35939501953125,2.3716660032212733,1.7774296519890427,3.2980086952120065
1772527263596377000,6.369377197265625,2.683987739318609,1.515472367733717,2.8659441428810357
1772527263606360300,6.3793603515625,2.96051043228209,1.2886910262778402,2.164380220352113
1772527263616342000,6.389342041015625,3.223254775261879,1.0173562573462724,1.4081786987066267
1772527263626324200,6.39932421875,3.4506834747105835,0.6459253296762705,0.7046702179811895
1772527263636306000,6.409305908203125,3.6252398311495777,0.27787498435527086,0.021659239426627754
1772527263646289200,6.4192890625,3.676009064400196,0.034037001897394656,-0.6188328862197697
1772527263656271000,6.42927099609375,3.7459862714678045,0.0022165070056915284,-1.1265034452855587
1772527263666253000,6.439253173828125,3.90181571560502,0.200184134170413,-1.5107598061285912
1772527263676235300,6.4492353515625,4.253228522118926,0.580475536905229,-1.694584633911401
1772527263686218200,6.45921826171875,4.864563015407324,0.9324266880795359,-1.6861308399513364
1772527263696200200,6.4692001953125,5.548526107054949,1.2595111090227962,-1.5136043819047509
1772527263706182100,6.47918212890625,5.896482051113248,1.7047706584915518,-1.2958888288274406
1772527263716164000,6.4891640625,5.503415630218386,2.1280027928084135,-0.9112624656282364
1772527263726147000,6.49914697265625,4.280390085288882,2.255293832464516,-0.24972291231062263
1772527263736129000,6.50912890625,2.842390248814225,2.1946423798859116,0.23465722593013197
1772527263746111200,6.519111328125,1.905771077480912,1.480721080087125,0.9149458303160964
1772527263756093200,6.52909326171875,1.5233271728873252,0.2902402526706457,1.9241651045665145
1772527263766076200,6.539076171875,1.2642740856409072,-0.7326797762826085,2.7628204530149696
1772527263776058000,6.54905810546875,0.6503437306404113,-1.3314262984156608,3.40311391428411
1772527263786040000,6.5590400390625,-0.9500058916509151,-1.5520868189036845,3.460460772359371
1772527263796022300,6.569022216796875,-3.6806536753356456,-2.013868756367266,2.4359838693529365
1772527263806005200,6.579005126953125,-6.591030834183097,-2.8215725017130375,0.6908011940393597
1772527263815987200,6.5889873046875,-8.927660595336556,-3.7167373806297777,-0.6483430583424866
1772527263825969200,6.59896923828125,-10.675326684963702,-4.262091335271299,-0.8851995844151824
1772527263835951000,6.608951171875,-12.053137133413552,-4.281271544298529,-0.3573483340427279
1772527263845934000,6.61893408203125,-12.922948959887027,-4.079875696250796,0.21382442739028482
1772527263855916300,6.628916259765625,-12.714283997619152,-3.6635491035386916,0.26196806137766687
1772527263865898200,6.638898193359375,-11.06765310114622,-2.9770541553258894,-0.2524279700182378
1772527263875880200,6.648880126953125,-8.359260403889417,-2.4166177823647854,-1.1503451433178036
1772527263885863200,6.65886328125,-5.272573907455802,-1.9095494269758462,-1.9572347227364777
1772527263895845000,6.66884521484375,-2.6167367423444983,-1.4946929068163037,-2.1518913256570698
1772527263905827000,6.6788271484375,-1.1286883881092071,-1.6009613244488834,-1.52442329756096
1772527263915809300,6.688809326171875,-0.9811877963781356,-1.8951225499555469,-0.6823701964329928
1772527263925792300,6.698792236328125,-1.5749445473998784,-1.7400854252398013,-0.21511611116863785
1772527263935774200,6.708774169921875,-1.9286428345024584,-1.1340534222736953,0.03434438734613359
1772527263945756200,6.718756103515625,-1.6121739155977963,-0.7086746313169598,0.22946795019134877
1772527263955738000,6.728738037109375,-0.43182899000942704,-0.7241349430382251,0.037514030358195304
1772527263965721000,6.73872119140625,1.474611949557066,-0.414068584652245,-0.34634909338355063
1772527263975703300,6.748703369140625,3.0780496009916067,0.13733458702564239,-0.43249782918170093
1772527263985685000,6.75868505859375,3.786803435024619,0.4580199545815587,-0.07944156630970538
1772527263995667200,6.768667236328125,3.677905837932229,0.6491334780678153,0.458618249268271
1772527264005650000,6.77864990234375,3.1205344054996966,0.7345338797166943,0.8117715793065726
1772527264015632100,6.788632080078125,2.475208210760355,0.8160106781810521,0.9854670811325311
1772527264025614300,6.7986142578125,2.00109549177289,0.8609861304610967,1.0803729046862571
1772527264035596000,6.808595947265625,1.6126438711971043,0.8268830775901674,1.0976024911023676
1772527264045579300,6.818579345703125,1.3644710744053126,0.8699743235588073,1.0176388736799358
1772527264055560700,6.828560791015625,1.3201298283755778,0.9988228217899798,0.7929721862904727
1772527264065542700,6.838542724609375,1.5378016884416341,1.095384961183369,0.3829414788521826
1772527264075524900,6.84852490234375,2.0609522868424652,1.1015995979145168,-0.15795443693455308
1772527264085507600,6.858507568359375,2.8377012142151594,1.0316586312040685,-0.734789534978196
1772527264095489800,6.86848974609375,3.7620068474203348,0.8740086936414241,-1.2987867422260344
1772527264105471500,6.878471435546875,4.686507710936665,0.7776677957832813,-1.8718856128834187
1772527264115453700,6.88845361328125,5.385135287752747,0.7297633043140173,-2.3227874060228464
1772527264125436700,6.898436767578125,5.840040617445111,0.8000552764192224,-2.5534742304846643
1772527264135418600,6.908418701171875,6.056896484953165,1.0022130487501621,-2.5215754096597434
1772527264145400800,6.91840087890625,6.101130178955197,1.241163259166479,-2.3790067213729023
1772527264155382500,6.928382568359375,6.1459156616210935,1.5607947337552903,-2.2311709063380953
1772527264165365800,6.93836572265625,6.236017372828722,1.9337454183384775,-2.142167657891661
1772527264175347700,6.94834765625,6.3005374835342165,2.3383918023899195,-2.109151669605076
1772527264185329700,6.95832958984375,6.22634236651063,2.78005274284482,-2.079820215050131
1772527264195311900,6.968311767578125,5.967965571090579,3.1400013225138186,-2.016456142511964
1772527264205294600,6.978294677734375,5.6655351144105195,3.460768230873346,-1.992837074254453
1772527264215276800,6.98827685546875,5.433659372425079,3.872761178295314,-2.033732125353068
1772527264225258500,6.998258544921875,5.170801632198691,4.164275104163587,-1.905314565885067
1772527264235240700,7.00824072265625,4.910141109755635,4.289573508697748,-1.5928405618354677
1772527264245223700,7.0182236328125,4.7209389728486535,4.4477834182307125,-1.4668341551624238
1772527264255205600,7.02820556640625,4.86746107493639,4.479329187834263,-1.2983277464121579
1772527264265187800,7.038187744140625,5.31297313786149,4.156032760997117,-0.8397532266877591
1772527264275169500,7.04816943359375,5.554827837547659,3.5633377939879893,-0.5352513705611228
1772527264285152800,7.05815283203125,4.780412321558594,2.766295727910101,-0.5819518930681049
1772527264295134700,7.068134765625,3.038047845470905,1.5879326237887144,-0.7603970736391842
1772527264305116700,7.07811669921875,0.8898439761549234,-0.07246522449105977,-0.9407207614332437
1772527264315099000,7.088098876953125,-0.8502946405768393,-2.0907728400886056,-1.3022666932962834
1772527264325081600,7.09808154296875,-1.6934844175845383,-4.355425744789838,-1.88018713889122
1772527264335063800,7.108063720703125,-2.1230694280594586,-6.074975162479281,-2.259417634396255
1772527264345045800,7.118045654296875,-4.057650420439243,-6.975972985333204,-1.254233168619871
1772527264355027700,7.12802783203125,-8.586322023591398,-7.18784521920979,1.1664661839701234
1772527264365010700,7.1380107421875,-14.050435570991038,-6.255691210591793,3.0409546728283163
1772527264374992600,7.14799267578125,-18.19415333255529,-5.42435144585371,4.124259904639422
1772527264384974600,7.157974609375,-19.35310709506869,-5.289406968834996,4.132640779493749
1772527264394956500,7.16795654296875,-17.702454687994717,-5.6582408657491206,2.9167993008494375
1772527264404938800,7.177938720703125,-14.99757613633871,-6.672392774096131,1.4754150826334953
1772527264414921700,7.187921630859375,-12.794454681921005,-7.570185078907013,0.92090948796086
1772527264424903700,7.197903564453125,-11.32575224866867,-7.433724352106451,1.3119687337517738
1772527264434885600,7.2078857421875,-10.330320822882651,-6.312043796932697,2.2653740585826334
1772527264444867600,7.21786767578125,-9.242655934557318,-4.822950317558646,3.077341744983196
1772527264454850600,7.2278505859375,-7.531862070253491,-3.5624203868821263,3.452967493994534
1772527264464832800,7.237832763671875,-5.1539136257618665,-2.585340902605653,3.242486129954457
1772527264474814700,7.247814697265625,-2.5283190387010572,-2.016189016008377,2.4609923461422323
1772527264484796700,7.257796630859375,0.08366612520217895,-1.6664032261744142,1.3248572952888906
1772527264494779600,7.267779541015625,2.3967162733256817,-1.4005220464736223,-0.006828421247936785
1772527264504761600,7.27776171875,4.2658080177068705,-1.333132517811656,-1.1603880331002174
1772527264514743800,7.287743896484375,5.721556276839971,-1.1135609616041182,-1.9076760343194006
1772527264524725800,7.297725830078125,6.8303726742655035,-0.6845493671029805,-2.3265276154644785
1772527264534708700,7.307708740234375,7.471105695995688,-0.09873568404018879,-2.4920298739627
1772527264544690700,7.317690673828125,7.720554504072665,0.6057993632540106,-2.346158929260075
1772527264554672600,7.327672607421875,7.70363142632246,1.328309335438907,-2.002723385235667
1772527264564654600,7.337654541015625,7.4406082664012905,2.06619340236634,-1.4722504811227322
1772527264574637600,7.347637451171875,7.003444345104694,2.714294322516024,-0.8453803458545357
1772527264584619800,7.357619873046875,6.580228869661688,3.127887106350064,-0.14243826684020458
1772527264594601700,7.367601806640625,6.343767553451657,3.370466613179445,0.4274561086874455
1772527264604583700,7.377583740234375,6.342800754246115,3.4313173877224323,0.7284605511523783
1772527264614567000,7.38756689453125,6.595250497704744,3.348096083678305,0.6541949992410838
1772527264624548600,7.397548583984375,6.982869759109616,3.1522695601955055,0.2129020883809775
1772527264634530800,7.40753076171875,7.336404380083084,2.7837276319652795,-0.2906997599411756
1772527264644512800,7.4175126953125,7.680704724243283,2.4209967281013727,-0.7442409616734832
1772527264654495700,7.427495849609375,7.8735040088593955,2.141068318347633,-1.104169448402524
1772527264664477700,7.437477783203125,7.86195210275352,1.9434078574359417,-1.343996149392426
1772527264674459600,7.447459716796875,7.604635045519471,1.8871745135605333,-1.544449894284457
1772527264684441900,7.45744189453125,7.1093585424721235,1.858711220142245,-1.6942372817784548
1772527264694424600,7.467424560546875,6.352457640385627,1.8816089883878826,-1.7328263940222561
1772527264704406800,7.47740673828125,5.363939354988933,1.658439699949324,-1.3500076647669077
1772527264714388700,7.487388671875,4.347556911110877,1.6980828512907027,-0.8285548832599073
1772527264724370700,7.49737060546875,3.0245220089435576,2.641919114395976,-0.16614903196915984
1772527264734353700,7.507353759765625,1.3493342955499887,2.9599200651735065,0.12878303177952766
1772527264744335600,7.517335693359375,-0.2419505612760782,2.4944722986787555,0.3985426603488624
1772527264754317800,7.52731787109375,-2.0141829368829725,2.0828858862310646,1.0432912013307214
1772527264764299500,7.537299560546875,-3.790544375118613,1.8879072117492555,1.986043614722043
1772527264774282800,7.54728271484375,-5.515977005627751,1.3333008601158856,2.794634518165886
1772527264784264700,7.5572646484375,-7.384987501466274,0.2002805802822113,2.893676199415326
1772527264794246700,7.56724658203125,-9.046032123216985,-1.2848013253629207,2.1340153310962022
1772527264804228900,7.577228759765625,-10.08498178821206,-2.517706167010963,0.9451730646669864
1772527264814210600,7.58721044921875,-10.723563769388198,-3.0758658272117376,0.01802358633801341
1772527264824193800,7.59719384765625,-11.116484059810638,-2.7475299449026584,-0.3382978158097714
1772527264834175500,7.607175537109375,-11.385922931993006,-1.7256041876837611,0.13143230417929588
1772527264844157700,7.61715771484375,-11.68415067628622,-0.8042340234085917,1.4441884619817136
1772527264854140000,7.627139892578125,-11.772371396052836,-0.4515852453589439,2.7805133460938927
1772527264864122600,7.63712255859375,-11.244225473582745,-0.38566783507615326,3.297429434019327
1772527264874104800,7.647104736328125,-9.923166255402565,-0.10960574536174535,2.861545323400199
1772527264884086500,7.65708642578125,-8.282469425153732,0.058198214207589624,2.1010829294398428
1772527264894068700,7.66706884765625,-6.659841920080781,-0.09209113145917654,1.387187933126092
1772527264904051700,7.6770517578125,-5.043565829861164,-0.20396219140440225,0.7716392562087625
1772527264914033700,7.68703369140625,-3.422794766309857,-0.37359336640089746,0.4712315375279635
1772527264924015900,7.697015869140625,-2.0759131246089932,-0.8768591146364808,0.34647761513404546
1772527264933997600,7.70699755859375,-1.027987541475892,-1.2940648282706737,-0.005368175969645381
1772527264943980800,7.716980712890625,0.01876841335594654,-1.2481246226117013,-0.455738236852549
1772527264953962800,7.726962646484375,1.1275105765014886,-0.9600196284040808,-0.8076324336752295
1772527264963944700,7.73694482421875,2.174852222266793,-0.6308025793462991,-0.9416117189235985
1772527264973926700,7.7469267578125,3.1750001551806926,-0.2917585482791066,-0.9537470509406178
1772527264983909600,7.75690966796875,4.106375580641627,0.05947247192710638,-0.9149261027023196
1772527264993891800,7.766891845703125,4.780304185009002,0.4376186793267727,-0.6360489555671811
1772527265003873500,7.77687353515625,5.161138900840282,0.7314382517889142,-0.2328090773127973
1772527265013855700,7.786855712890625,5.363226238283515,0.9275368702113628,0.11650332285575568
1772527265023838700,7.796838623046875,5.43363832963705,1.0840483052633703,0.3386282168079167
1772527265033820700,7.806820556640625,5.216521180844307,1.2298078985460101,0.41015922918878495
1772527265043802600,7.816802734375,4.636630458089709,1.3256589670605956,0.3459162549242377
1772527265053784600,7.82678466796875,3.9010388860136267,1.5795463421069085,0.30841267289482055
1772527265063766500,7.8367666015625,3.3183144011378287,1.8645571696914731,0.2970594311662018
1772527265073749500,7.84674951171875,3.086225308662653,2.0143159156128765,0.2889543775785714
1772527265083731500,7.8567314453125,3.2095331239014864,2.0269401271253824,0.2499604108609259
1772527265093713400,7.86671337890625,3.5920962709605693,2.0767941452272236,0.11191329165175556
1772527265103695600,7.876695556640625,4.049142119812966,2.0678568055339155,-0.10665924358107148
1772527265113678300,7.88667822265625,4.463157805234194,1.9711105417452752,-0.3058208663033321
1772527265123660500,7.89666064453125,4.69785737246871,1.8492255989164113,-0.5356105592623353
1772527265133642500,7.906642578125,4.930023621833324,1.711558711196482,-0.8255379465915262
1772527265143624400,7.91662451171875,5.2134717301458116,1.6048501485809683,-1.1013099673181772
1772527265153607700,7.926607666015625,5.260555552881955,1.4757874230772257,-1.2992813938751815
1772527265163589400,7.93658935546875,4.873327921143174,1.4249536001577972,-1.4489137369379401
1772527265173571600,7.946571533203125,4.359279497608542,1.68183460406214,-1.530781142155081
1772527265183553500,7.956553466796875,3.838728268051147,2.0807225707173345,-1.5010152417056262
1772527265193536500,7.96653662109375,3.3531413843691347,2.1566502106219527,-1.481307063281536
1772527265203518700,7.976518798828125,2.938061869108677,1.887921532535553,-1.5583992169208825
1772527265213500400,7.98650048828125,2.4940789154469964,1.4446481884479523,-1.6472878990769386
1772527265223482600,7.996482666015625,1.858909373062849,0.9450748649895191,-1.4375705051466823
1772527265233465300,8.00646533203125,0.9115724083602428,0.24252865342497823,-0.7034790354352444
1772527265243447600,8.016447509765625,-0.13470599208772183,-0.4489364844158292,0.4499607128970325
1772527265253429500,8.026429443359374,-1.1046703836619853,-0.9511761044740676,1.6116379090249537
1772527265263411500,8.036411376953126,-1.768514231866598,-1.3709104598030448,2.3855273553133007
1772527265273394700,8.046394775390626,-2.2360908270835873,-1.9637121020570396,2.616858615158498
1772527265283376400,8.05637646484375,-2.925959343382716,-2.923144870483875,2.5184546472907066
1772527265293358600,8.066358642578125,-3.8186359126150604,-3.718476333251595,2.4342437476873395
1772527265303340500,8.076340576171875,-4.5493449733465905,-3.9623829970315096,2.3467957658588885
1772527265313323500,8.086323486328125,-4.99633236952126,-3.518723868496716,2.033949713626504
1772527265323305700,8.0963056640625,-4.817399697694182,-2.662543969273567,1.4846923218056558
1772527265333287400,8.106287353515626,-4.444408096578717,-2.412023440311849,1.0508739115446806
1772527265343269600,8.11626953125,-3.982881887441873,-3.043807724171877,0.5543365217160433
1772527265353251600,8.12625146484375,-3.4862972244054076,-3.6052348617359993,-0.0811209890303202
1772527265363234600,8.136234619140625,-3.449572883120179,-3.5632293651774525,-0.6417291200954467
1772527265373216500,8.146216552734375,-3.6723131324917078,-2.9693998411804436,-0.81226140865013
1772527265383198500,8.156198486328124,-3.931999256944656,-2.176952117155492,-0.520836110913381
1772527265393180700,8.1661806640625,-4.161697654891014,-1.6367197433114051,-0.2785637155381031
1772527265403163400,8.176163330078126,-4.118335483026504,-1.4317413606017828,-0.4687351541349664
1772527265413145600,8.1861455078125,-3.9314334397554394,-1.353589322645962,-1.2883689547166228
1772527265423127300,8.196127197265625,-3.753979023787379,-0.9899082784503698,-2.2932241885386406
1772527265433109500,8.206109619140625,-3.5077854181140657,-0.21467530859857797,-2.96766234986335
1772527265443092500,8.216092529296875,-3.2856904809087513,0.5488467651933431,-2.9295784106627103
1772527265453074400,8.226074462890624,-3.062834496203065,1.0008335770905017,-2.3005348038129507
1772527265463056600,8.236056640625,-2.761372592294216,1.2654609573379159,-1.736390223983675
1772527265473038300,8.246038330078125,-2.2438865955263374,1.6990078571811318,-1.39462334382385
1772527265483021600,8.256021484375,-1.5902145972460506,2.3264333613097667,-1.0071311428647487
1772527265493003500,8.26600341796875,-1.0024380896776914,2.792739498199522,-0.3770989633690566
1772527265502985500,8.2759853515625,-0.6888105316787958,3.1206749830141662,0.519477207117714
1772527265512967700,8.2859677734375,-0.5580401254743337,3.440426576851308,1.5251650558389722
1772527265522950400,8.295950439453126,-0.39964404571950435,3.7872985250651836,2.2137667670726775
1772527265532932600,8.3059326171875,-0.04600947150290012,4.13063323906362,2.3696347896546124
1772527265542914600,8.31591455078125,0.7150444586098194,4.352872553175687,2.0059930545561016
1772527265552896500,8.325896484375,1.6958341955810785,4.200356763631105,1.2786600461289286
1772527265562878700,8.335878662109375,2.725252646642923,3.879663505029678,0.4078663690112531
1772527265572861400,8.345861328125,3.729388772410154,3.7061727319955824,-0.363853149359487
1772527265582843600,8.35584375,4.615295993638038,3.5279914630576967,-0.8532026369780301
1772527265592825300,8.365825439453126,5.179695132750273,3.3188194280505177,-1.0768689151532946
1772527265602807600,8.3758076171875,5.361460982176661,3.1565386158168316,-1.1076392434049398
1772527265612790500,8.38579052734375,5.166131886821985,3.0602739980652927,-1.060365670250356
1772527265622772500,8.3957724609375,4.619370695731043,3.205801243896782,-1.0064511247113346
1772527265632754700,8.405754638671874,4.00840211314559,3.5687329310297966,-0.977173592300713
1772527265642736400,8.415736328125,3.5985137367874382,3.8427658530041575,-1.0127871958650647
1772527265652719600,8.4257197265625,3.430688149908185,3.853395383568108,-0.9960006039761006
1772527265662701600,8.43570166015625,3.3246868587791916,3.6812040026947854,-0.8084774331320077
1772527265672683500,8.44568359375,3.119886170724034,3.387007705874741,-0.3489418132904917
1772527265682665500,8.45566552734375,2.8558541260212658,2.7898890772044656,-0.046521878004446626
1772527265692648400,8.4656484375,2.7260417511940003,1.81427761965394,0.0011531155578792095
1772527265702630400,8.47563037109375,2.736910935732722,0.7191840426325797,-0.09736147307753562
1772527265712612600,8.485612548828126,2.8190917908132076,-0.1423059456974268,-0.3596300883043557
1772527265722594600,8.495594482421875,2.748171749937534,-0.6220031868189573,-0.4004393608156591
1772527265732576500,8.505576416015625,2.4683926855266094,-0.9811462953239679,0.11788484034202992
1772527265742559500,8.5155595703125,1.9968781663388013,-1.665340273118019,0.8183076300118118
1772527265752541400,8.52554150390625,1.5521411794394253,-2.5604157201856372,1.0548815397508442
1772527265762523400,8.5355234375,1.2913713514029979,-3.3957793336123228,0.548347656564787
1772527265772505600,8.545505615234376,1.222220658287406,-3.760381876567006,-0.10287103027924895
1772527265782488600,8.555488525390626,1.102403023251891,-3.7008851469814776,-0.5199259372659027
1772527265792470500,8.565470458984375,0.898725786268711,-3.51046311289072,-0.5842077822361141
1772527265802452500,8.575452392578125,0.3936602951347828,-3.50024333217144,-0.3811700122002512
1772527265812434400,8.585434326171875,-0.25842414169311523,-3.4680542962282894,0.08333440902978181
1772527265822417400,8.59541748046875,-0.6359340970158577,-3.2029736192554235,0.5867590010888875
1772527265832399600,8.605399658203124,-0.9625345338344573,-2.8697411970764395,0.8655047769293188
1772527265842381600,8.615381591796876,-1.6863175946950912,-2.551740246298909,1.0797367256745696
1772527265852363500,8.625363525390625,-2.6570184838503597,-2.034376414605975,1.5905742243386805
1772527265862346500,8.635346435546875,-3.5751813765168188,-1.5051272070690989,2.1370850939303634
1772527265872328400,8.645328369140625,-4.332216134116053,-1.5649685123085975,2.1334072822004555
1772527265882310700,8.655310546875,-4.980254510423541,-2.0568062730789185,1.639229241914302
1772527265892292600,8.665292724609374,-5.746598363637924,-2.5758728170365095,0.6707429600685835
1772527265902274600,8.675274658203126,-6.352015741837024,-3.016807781304419,-0.4848899874590337
1772527265912257500,8.685257568359376,-6.900721052733063,-2.6995427435860035,-1.3811387160897255
1772527265922239500,8.695239501953125,-7.224704000529647,-2.227587202632427,-1.6490183761313557
1772527265932221400,8.705221435546875,-6.905851985880732,-1.882210753673315,-1.4055857596039771
1772527265942203600,8.71520361328125,-6.035355099752545,-1.4228513671815395,-0.8651723301045596
1772527265952186600,8.7251865234375,-4.886871877849102,-0.9476210423409939,-0.4727352931544184
1772527265962168600,8.73516845703125,-3.505843636396527,-0.42180940803736444,-0.5446862845130265
1772527265972150500,8.745150634765626,-2.1568898645967245,-0.10770108078420161,-0.7096722640521824
1772527265982132500,8.755132568359375,-1.1145295143753289,0.02919657612890005,-0.7152917113691568
1772527265992115500,8.765115478515625,-0.2529968559473753,0.20017185921072958,-0.7511921690508723
1772527266002097700,8.77509765625,0.39218379284143445,0.5957128535255789,-0.7159678570650517
1772527266012079400,8.785079345703124,0.9397668217092752,0.8706915319174527,-0.2932395806171
