time,seconds_elapsed,z,y,x
1772527257307547100,0.080547119140625,-0.8732249140739441,1.3951715230941772,-0.08930482715368271
1772527257317529000,0.090529052734375,-0.9745760560035706,1.1022051572799683,-0.025221452116966248
1772527257327512000,0.100511962890625,-1.0358654260635376,0.5564331412315369,0.013783739879727364
1772527257337494000,0.110493896484375,-1.043592095375061,-0.1570681929588318,0.014490809291601181
1772527257347476000,0.12047607421875,-0.9658520817756653,-0.945059061050415,-0.00906750001013279
1772527257357459000,0.130458984375,-0.9170570969581604,-1.5426745414733887,-0.04759624972939491
1772527257367441000,0.14044091796875,-0.8446012139320374,-1.7234901189804077,-0.1398937702178955
1772527257377423000,0.150423095703125,-0.6619994044303894,-1.5313808917999268,-0.26563385128974915
1772527257387404800,0.16040478515625,-0.3858242928981781,-0.9688901901245117,-0.37081965804100037
1772527257397388000,0.170387939453125,-0.0861467719078064,-0.30786484479904175,-0.42815059423446655
1772527257407370000,0.180369873046875,0.14519953727722168,0.2859618067741394,-0.4584018886089325
1772527257417352000,0.19035205078125,0.28363147377967834,0.5388103127479553,-0.49954238533973694
1772527257427335000,0.2003349609375,0.3317839205265045,0.3047243654727936,-0.6009343266487122
1772527257437317000,0.210317138671875,0.3501562774181366,-0.23681212961673737,-0.8016024827957153
1772527257447299000,0.220299072265625,0.4057098925113678,-0.8186938762664795,-1.0549125671386719
1772527257457281000,0.230281005859375,0.45701462030410767,-1.1981589794158936,-1.2258555889129639
1772527257467264000,0.240263916015625,0.42692577838897705,-1.6001248359680176,-1.3307390213012695
1772527257477246000,0.250245849609375,0.46521058678627014,-1.9261857271194458,-1.3341166973114014
1772527257487228000,0.260227783203125,0.547863245010376,-2.095247507095337,-1.274670124053955
1772527257497211000,0.2702109375,0.6329491138458252,-2.020836591720581,-1.194169521331787
1772527257507193000,0.280193115234375,0.7134560942649841,-1.836507797241211,-1.1164460182189941
1772527257517175000,0.290175048828125,0.7254288792610168,-1.7039735317230225,-1.0421334505081177
1772527257527157000,0.300156982421875,0.7139085531234741,-1.6248629093170166,-0.9262462854385376
1772527257537140200,0.31014013671875,0.6829450130462646,-1.495855450630188,-0.7609678506851196
1772527257547122000,0.320121826171875,0.6569153666496277,-1.2761726379394531,-0.5824388861656189
1772527257557104000,0.330104248046875,0.6170334219932556,-0.9805145859718323,-0.44514816999435425
1772527257567086800,0.3400869140625,0.5507367849349976,-0.6689149737358093,-0.3818102478981018
1772527257577069000,0.350069091796875,0.507220983505249,-0.34360215067863464,-0.40199458599090576
1772527257587051000,0.360051025390625,0.49299195408821106,0.02828790992498398,-0.5006514191627502
1772527257597033000,0.370032958984375,0.45709946751594543,0.1604643166065216,-0.5356448292732239
1772527257607016200,0.38001611328125,0.3686861991882324,0.27766701579093933,-0.5572930574417114
1772527257616998000,0.389997802734375,0.26512277126312256,0.32682734727859497,-0.5402304530143738
1772527257626980000,0.39997998046875,0.2084478735923767,0.35404589772224426,-0.488294392824173
1772527257636963000,0.409963134765625,0.19470356404781342,0.3431099057197571,-0.41896671056747437
1772527257646945000,0.419945068359375,0.1932649165391922,0.2978067696094513,-0.3573842942714691
1772527257656927200,0.42992724609375,0.18136191368103027,0.2707141637802124,-0.33039262890815735
1772527257666910000,0.439909912109375,0.1616225391626358,0.28381043672561646,-0.32623007893562317
1772527257676892200,0.44989208984375,0.13533341884613037,0.31255045533180237,-0.3352124094963074
1772527257686873900,0.459873779296875,0.09519245475530624,0.3160748779773712,-0.343639999628067
1772527257696856000,0.46985595703125,0.046285104006528854,0.28966057300567627,-0.3250913619995117
1772527257706839000,0.479839111328125,0.02951847016811371,0.25261759757995605,-0.2663773000240326
1772527257716821000,0.489821044921875,0.03724829480051994,0.20796997845172882,-0.19183672964572906
1772527257726803000,0.499802978515625,0.0437462143599987,0.09842381626367569,-0.13826492428779602
1772527257736786200,0.5097861328125,0.02923518233001232,-0.019486578181385994,-0.1198936402797699
1772527257746768000,0.519767822265625,-0.002884819870814681,-0.07924991101026535,-0.12520891427993774
1772527257756750000,0.52975,-0.02831055223941803,-0.04995913431048393,-0.1557851880788803
1772527257766732000,0.53973193359375,-0.023511458188295364,0.000668712193146348,-0.21686086058616638
1772527257776715000,0.549715087890625,0.018238384276628494,-0.14512842893600464,-0.28526604175567627
1772527257786697000,0.559697021484375,0.08028054237365723,-0.5518479943275452,-0.3665047883987427
1772527257796679000,0.569678955078125,0.08012901246547699,-0.8482125997543335,-0.4392167925834656
1772527257806662100,0.579662109375,0.13785091042518616,-0.9919908046722412,-0.42667651176452637
1772527257816643800,0.589643798828125,0.25108078122138977,-1.0282950401306152,-0.32883861660957336
1772527257826626000,0.5996259765625,0.3785373866558075,-0.8288004994392395,-0.15697164833545685
1772527257836608000,0.60960791015625,0.5325480103492737,-0.4739963412284851,0.09543716162443161
1772527257846591000,0.619591064453125,0.7148407101631165,-0.302588552236557,0.388077974319458
1772527257856573200,0.6295732421875,0.9291799068450928,-0.4552137851715088,0.6648379564285278
1772527257866555000,0.639554931640625,1.0559332370758057,-0.8661742210388184,0.9033520817756653
1772527257876538000,0.6495380859375,0.9362266659736633,-1.4350160360336304,1.1695512533187866
1772527257886520000,0.65952001953125,0.5886833667755127,-2.2593181133270264,1.5286396741867065
1772527257896502000,0.669501953125,0.215346559882164,-3.4016852378845215,2.0721323490142822
1772527257906484200,0.679484130859375,-0.023477358743548393,-4.856940746307373,2.9257659912109375
1772527257916467000,0.689467041015625,-0.23293736577033997,-6.313766956329346,3.9626052379608154
1772527257926449200,0.69944921875,-0.5958605408668518,-6.963233470916748,4.699965953826904
1772527257936430800,0.709430908203125,-1.051088809967041,-6.748887062072754,4.599554061889648
1772527257946414000,0.7194140625,-1.3798844814300537,-6.237727165222168,3.610337972640991
1772527257956396000,0.72939599609375,-1.4391874074935913,-5.616222858428955,2.2984659671783447
1772527257966378000,0.7393779296875,-1.318076491355896,-4.985999584197998,1.2515239715576172
1772527257976360200,0.749360107421875,-1.141047477722168,-4.372622013092041,0.8300115466117859
1772527257986343200,0.75934326171875,-1.04038667678833,-3.6737420558929443,1.1473097801208496
1772527257996325000,0.7693251953125,-1.0937812328338623,-2.8807315826416016,1.9519649744033813
1772527258006307000,0.77930712890625,-1.1359423398971558,-2.207812786102295,2.8102569580078125
1772527258016290000,0.7892900390625,-1.0835810899734497,-1.8487882614135742,3.5034046173095703
1772527258026272000,0.79927197265625,-1.0213847160339355,-1.7728954553604126,4.049015522003174
1772527258036254000,0.80925390625,-0.9583857655525208,-1.8927762508392334,4.368710041046143
1772527258046237000,0.81923681640625,-0.8775107860565186,-1.9848202466964722,4.4024457931518555
1772527258056219000,0.829218994140625,-0.7270427346229553,-1.9999969005584717,4.193981647491455
1772527258066201000,0.839201171875,-0.5056600570678711,-1.9632800817489624,3.775714874267578
1772527258076182800,0.849182861328125,-0.265776127576828,-1.8040845394134521,3.121638298034668
1772527258086166000,0.859166015625,-0.05120068043470383,-1.1479675769805908,2.190417528152466
1772527258096148000,0.86914794921875,0.09481910616159439,0.05982678756117821,1.0059938430786133
1772527258106130000,0.8791298828125,0.13394427299499512,1.6287643909454346,-0.34344393014907837
1772527258116113000,0.88911279296875,0.026781080290675163,3.2484543323516846,-1.7383508682250977
1772527258126094800,0.8990947265625,-0.24715934693813324,4.409022331237793,-2.99493670463562
1772527258136076800,0.909076904296875,-0.6604135036468506,4.991276264190674,-3.9476680755615234
1772527258146058800,0.919058837890625,-1.1730962991714478,5.181189060211182,-4.521389007568359
1772527258156042000,0.9290419921875,-1.6961504220962524,5.120445728302002,-4.8124823570251465
1772527258166024000,0.93902392578125,-2.0687968730926514,4.997337341308594,-4.939587116241455
1772527258176006000,0.949005859375,-2.2445485591888428,4.779132843017578,-4.961092472076416
1772527258185988900,0.95898876953125,-2.223106622695923,4.37876558303833,-4.874422550201416
1772527258195971000,0.96897119140625,-2.042102098464966,3.7941126823425293,-4.616491317749023
1772527258205952800,0.978952880859375,-1.76906418800354,3.0793724060058594,-4.163117408752441
1772527258215935000,0.98893505859375,-1.5222141742706299,2.3640315532684326,-3.51161527633667
1772527258225917700,0.998917724609375,-1.3253974914550781,1.7462941408157349,-2.7226028442382812
1772527258235900000,1.00889990234375,-1.1616328954696655,1.2441301345825195,-1.9121021032333374
1772527258245881900,1.0188818359375,-0.9960888028144836,0.8672241568565369,-1.1853870153427124
1772527258255864800,1.02886474609375,-0.8351558446884155,0.5601015090942383,-0.6194754242897034
1772527258265847000,1.038846923828125,-0.6799904108047485,0.3706390857696533,-0.22114062309265137
1772527258275828700,1.048828857421875,-0.547027051448822,0.3706987500190735,0.009697379544377327
1772527258285811000,1.05881103515625,-0.4668769836425781,0.508143424987793,0.07118726521730423
1772527258295794000,1.0687939453125,-0.4236792027950287,0.7048929929733276,0.0137263722717762
1772527258305775900,1.07877587890625,-0.36361584067344666,0.9011279940605164,-0.09417906403541565
1772527258315758000,1.088758056640625,-0.2568987309932709,1.0428673028945923,-0.2110004872083664
1772527258325740800,1.09874072265625,-0.16316042840480804,1.0570541620254517,-0.3045302629470825
1772527258335723000,1.108722900390625,-0.08036195486783981,0.9216715693473816,-0.34152689576148987
1772527258345704700,1.11870458984375,0.01246231235563755,0.715233325958252,-0.29408004879951477
1772527258355687000,1.12868701171875,0.11044053733348846,0.5417914986610413,-0.14846453070640564
1772527258365670000,1.138669921875,0.22754110395908356,0.3889448344707489,0.05001039430499077
1772527258375651800,1.14865185546875,0.34728696942329407,0.21325582265853882,0.254015177488327
1772527258385634000,1.158634033203125,0.45012354850769043,-0.01154378056526184,0.4339538514614105
1772527258395617000,1.168616943359375,0.4840508997440338,-0.32326677441596985,0.6064500212669373
1772527258405599000,1.178598876953125,0.39570876955986023,-0.5795632004737854,0.8522989153862
1772527258415581000,1.188580810546875,0.24097272753715515,-0.6627699732780457,1.1788161993026733
1772527258425563000,1.19856298828125,0.11813592910766602,-0.7147670388221741,1.4344899654388428
1772527258435545900,1.2085458984375,-0.03187939524650574,-1.1093165874481201,1.4546759128570557
1772527258445527800,1.21852783203125,-0.46633079648017883,-1.8244549036026,1.3293476104736328
1772527258455510000,1.228510009765625,-1.3705943822860718,-2.478715181350708,1.2747032642364502
1772527258465493000,1.238492919921875,-2.7298367023468018,-2.8709511756896973,1.3082454204559326
1772527258475475000,1.248474853515625,-4.181519508361816,-2.7343053817749023,1.4431766271591187
1772527258485457000,1.258456787109375,-4.853578567504883,-1.7326263189315796,1.7984678745269775
1772527258495438800,1.26843896484375,-4.556593894958496,-0.3157287538051605,2.083625555038452
1772527258505421800,1.278421875,-3.681853771209717,1.183870792388916,2.2485132217407227
1772527258515404000,1.288404052734375,-2.6355645656585693,2.2152512073516846,2.3388607501983643
1772527258525386000,1.298385986328125,-1.620253562927246,2.4173014163970947,2.3938820362091064
1772527258535368000,1.308367919921875,-0.7940238118171692,2.370483160018921,2.419013261795044
1772527258545351000,1.318350830078125,-0.11440612375736237,2.3682165145874023,2.423553705215454
1772527258555332900,1.328332763671875,0.5967889428138733,2.411590337753296,2.333082914352417
1772527258565315000,1.338315185546875,1.3225724697113037,2.6987624168395996,2.090388536453247
1772527258575297800,1.3482978515625,2.0325098037719727,3.129254102706909,1.710448145866394
1772527258585280000,1.358280029296875,2.6552047729492188,3.288856267929077,1.214052438735962
1772527258595261700,1.36826171875,3.100328207015991,2.831449031829834,0.6492574214935303
1772527258605244000,1.378243896484375,3.292116403579712,2.06615948677063,0.06750740855932236
1772527258615227000,1.388226806640625,3.239046812057495,1.4861971139907837,-0.498550683259964
1772527258625208800,1.398208740234375,3.076746940612793,1.1806840896606445,-1.0904171466827393
1772527258635191000,1.40819091796875,2.8600914478302,1.210675597190857,-1.8595412969589233
1772527258645173800,1.418173828125,2.6016857624053955,1.6638680696487427,-2.6681888103485107
1772527258655156000,1.428156005859375,2.4066824913024902,2.4054877758026123,-3.243938684463501
1772527258665138000,1.438137939453125,2.2660956382751465,3.0369150638580322,-3.5312862396240234
1772527258675119900,1.448119873046875,2.177032232284546,3.3621938228607178,-3.526442050933838
1772527258685102800,1.458102783203125,2.1346981525421143,3.246580123901367,-3.2397408485412598
1772527258695084800,1.468084716796875,2.0060012340545654,2.7990500926971436,-2.656411647796631
1772527258705067000,1.47806689453125,1.743038296699524,2.243605613708496,-1.888316035270691
1772527258715050000,1.488050048828125,1.4994338750839233,1.7445074319839478,-1.1222023963928223
1772527258725032000,1.498031982421875,1.320711374282837,1.4188377857208252,-0.5212476253509521
1772527258735014000,1.508013916015625,1.167894721031189,1.3201292753219604,-0.11920938640832901
1772527258744995800,1.517995849609375,1.0514971017837524,1.3340730667114258,0.06742212176322937
1772527258754978800,1.527978759765625,0.9775086045265198,1.4124864339828491,0.054215237498283386
1772527258764961000,1.5379609375,0.8780688047409058,1.4590258598327637,-0.15753453969955444
1772527258774943000,1.54794287109375,0.781058132648468,1.4287134408950806,-0.4685547351837158
1772527258784926000,1.557926025390625,0.6506426930427551,1.2054322957992554,-0.7605276107788086
1772527258794908000,1.567907958984375,0.44169163703918457,0.7743436694145203,-0.998254656791687
1772527258804889900,1.577889892578125,0.20800279080867767,0.3450242280960083,-1.1906697750091553
1772527258814871800,1.587871826171875,0.09268845617771149,0.08497880399227142,-1.2486166954040527
1772527258824854800,1.597854736328125,0.08735190331935883,0.14852340519428253,-1.2152388095855713
1772527258834837000,1.6078369140625,-0.08022964000701904,0.3911738395690918,-1.2611653804779053
1772527258844819000,1.61781884765625,-0.3575059771537781,0.8339682221412659,-1.3138686418533325
1772527258854801000,1.62780078125,-0.5756031274795532,1.2657891511917114,-1.3937511444091797
1772527258864784100,1.6377841796875,-0.6969327330589294,1.422334909439087,-1.5267263650894165
1772527258874765800,1.647765869140625,-0.7316557765007019,1.3067371845245361,-1.6780083179473877
1772527258884748000,1.657748046875,-0.656812846660614,0.8328194618225098,-1.9755438566207886
1772527258894730800,1.667730712890625,-0.4669918119907379,0.18573948740959167,-2.219087839126587
1772527258904713000,1.677712890625,-0.2617965638637543,-0.04583150893449783,-2.106660842895508
1772527258914695000,1.68769482421875,-0.11130080372095108,-0.022533908486366272,-1.853047251701355
1772527258924676900,1.6976767578125,-0.008769288659095764,-0.09770812094211578,-1.6670234203338623
1772527258934659800,1.707659912109375,0.03890688717365265,-0.3996458947658539,-1.5873445272445679
1772527258944641800,1.717641845703125,0.05270429700613022,-0.8907660245895386,-1.6191049814224243
1772527258954624000,1.7276240234375,0.0011209994554519653,-1.616615891456604,-1.7971932888031006
1772527258964607000,1.73760693359375,-0.017426524311304092,-2.0138704776763916,-1.9272099733352661
1772527258974589000,1.7475888671875,0.11786951869726181,-1.7411062717437744,-1.8327702283859253
1772527258984571000,1.75757080078125,0.32205986976623535,-1.0670634508132935,-1.6012316942214966
1772527258994552800,1.767552734375,0.44882631301879883,-0.5196565985679626,-1.2803761959075928
1772527259004535800,1.777535888671875,0.5511378049850464,-0.4670025706291199,-0.8714321255683899
1772527259014518000,1.78751806640625,0.6101310849189758,-1.023113489151001,-0.43476104736328125
1772527259024500000,1.7975,0.5381183624267578,-1.8755115270614624,-0.014647355303168297
1772527259034482000,1.80748193359375,0.21709375083446503,-2.668890953063965,0.3651849329471588
1772527259044465000,1.81746484375,-0.40264663100242615,-2.994344472885132,0.652224063873291
1772527259054446600,1.827446533203125,-0.9879767298698425,-2.6702730655670166,0.6464396715164185
1772527259064428800,1.8374287109375,-1.178544282913208,-2.0106639862060547,0.19318459928035736
1772527259074411500,1.84741162109375,-0.8968607187271118,-1.208781123161316,-0.7055880427360535
1772527259084393700,1.857393798828125,-0.25968343019485474,-0.5039321184158325,-2.0577738285064697
1772527259094375700,1.867375732421875,0.37116721272468567,-0.04612324759364128,-3.6694507598876953
1772527259104357600,1.877357666015625,0.6265161633491516,0.3844650983810425,-4.963286399841309
1772527259114340900,1.8873408203125,0.5689404606819153,1.0070199966430664,-5.569964408874512
1772527259124322600,1.897322509765625,0.3743954002857208,1.5321837663650513,-5.523975849151611
1772527259134304800,1.9073046875,0.14433398842811584,1.6257387399673462,-4.980224609375
1772527259144287500,1.91728759765625,-0.0312311090528965,1.318964958190918,-4.052387714385986
1772527259154269700,1.927269775390625,-0.030489951372146606,0.886568546295166,-2.8780393600463867
1772527259164252000,1.937251953125,0.017659399658441544,0.6203723549842834,-1.669633388519287
1772527259174233600,1.947233642578125,0.040945544838905334,0.38025611639022827,-0.7104156613349915
1772527259184216800,1.957216796875,0.17612965404987335,0.13134606182575226,-0.13635580241680145
1772527259194198500,1.967198486328125,0.45116230845451355,-0.004825364798307419,0.11711987107992172
1772527259204180700,1.9771806640625,0.7093657851219177,0.025896882638335228,0.1443939357995987
1772527259214163700,1.987163818359375,0.7932665348052979,0.23272836208343506,0.054281625896692276
1772527259224145700,1.997145751953125,0.6756937503814697,0.5185824632644653,-0.05175473913550377
1772527259234128000,2.0071279296875,0.45753026008605957,0.8507401347160339,-0.11242634057998657
1772527259244109600,2.017109619140625,0.2645978033542633,1.125531792640686,-0.11459305137395859
1772527259254092800,2.0270927734375,0.193769171833992,1.2842344045639038,-0.08785784244537354
1772527259264074800,2.03707470703125,0.20655883848667145,1.3666555881500244,-0.07689105719327927
1772527259274056700,2.047056640625,0.15973594784736633,1.2655086517333984,-0.10442068427801132
1772527259284038700,2.05703857421875,0.04686379060149193,1.0438556671142578,-0.14633463323116302
1772527259294021600,2.067021728515625,-0.08636882901191711,0.8574591875076294,-0.24210484325885773
1772527259304003800,2.07700390625,-0.20313118398189545,0.7773900032043457,-0.3341953158378601
1772527259313985500,2.086985595703125,-0.2821173667907715,0.841627836227417,-0.373426616191864
1772527259323968800,2.09696875,-0.3275354504585266,0.9553337693214417,-0.3998051881790161
1772527259333950700,2.10695068359375,-0.3476060926914215,1.024144172668457,-0.4712927043437958
1772527259343932700,2.1169326171875,-0.290204256772995,0.9208363890647888,-0.5599491000175476
1772527259353914600,2.12691455078125,-0.16934415698051453,0.7368782758712769,-0.5771791934967041
1772527259363897900,2.13689794921875,-0.04964107275009155,0.6081007719039917,-0.4400840699672699
1772527259373879600,2.146879638671875,0.03636544570326805,0.5027455687522888,-0.14837446808815002
1772527259383861800,2.15686181640625,0.07178077846765518,0.3301076292991638,0.19308078289031982
1772527259393843700,2.16684375,0.12988482415676117,0.15252193808555603,0.4748362898826599
1772527259403826700,2.17682666015625,0.18470752239227295,-0.2923808693885803,0.5749784708023071
1772527259413808600,2.18680859375,-0.1897670179605484,-1.329856514930725,0.2280617654323578
1772527259423790600,2.19679052734375,-0.907366931438446,-2.4622862339019775,-0.4243677258491516
1772527259433773800,2.20677392578125,-1.4743528366088867,-2.552299976348877,-0.8606835603713989
1772527259443755500,2.216755615234375,-1.5704383850097656,-1.2630959749221802,-0.8325576186180115
1772527259453737700,2.22673779296875,-1.2192134857177734,0.20869570970535278,-0.6288591027259827
1772527259463719700,2.2367197265625,-0.6277982592582703,1.5380237102508545,-0.3283827006816864
1772527259473702700,2.24670263671875,-0.052399955689907074,2.234530210494995,0.06720935553312302
1772527259483684900,2.256684814453125,0.27317801117897034,2.118607521057129,0.5071650147438049
1772527259493666600,2.26666650390625,0.43764206767082214,1.486348271369934,0.9931815266609192
1772527259503649800,2.27664990234375,0.5795813798904419,0.6473713517189026,1.3915406465530396
1772527259513631500,2.286631591796875,0.7109428644180298,-0.07177269458770752,1.5815895795822144
1772527259523613700,2.29661376953125,0.7986740469932556,-0.5773131847381592,1.4816867113113403
1772527259533596000,2.306595947265625,0.8505409955978394,-0.9260397553443909,1.037085771560669
1772527259543578600,2.31657861328125,0.8928762078285217,-1.060051441192627,0.30481716990470886
1772527259553560800,2.326560791015625,0.8160941004753113,-0.8683830499649048,-0.5216178894042969
1772527259563542500,2.33654248046875,0.47886985540390015,-0.46581095457077026,-1.2818090915679932
1772527259573524700,2.346524658203125,0.0156319048255682,-0.09296120703220367,-1.8127286434173584
1772527259583507700,2.3565078125,-0.317712664604187,0.16989479959011078,-2.035788059234619
1772527259593489700,2.36648974609375,-0.4648919999599457,0.20476409792900085,-1.994354009628296
1772527259603472000,2.376471923828125,-0.47977662086486816,0.02560827136039734,-1.7318392992019653
1772527259613454600,2.38645458984375,-0.398196280002594,-0.20842286944389343,-1.2211896181106567
1772527259623436800,2.396436767578125,-0.22341877222061157,-0.3873382806777954,-0.4844810366630554
1772527259633418800,2.406418701171875,-0.04262102022767067,-0.6976080536842346,0.26338279247283936
1772527259643400700,2.416400634765625,0.09900970757007599,-1.1369590759277344,0.8743813633918762
1772527259653383700,2.4263837890625,0.1956941783428192,-1.5279526710510254,1.2418925762176514
1772527259663365600,2.43636572265625,0.22635142505168915,-1.796997308731079,1.3551535606384277
1772527259673347600,2.44634765625,0.1927623152732849,-1.9009990692138672,1.2792915105819702
1772527259683329500,2.45632958984375,0.11571714282035828,-1.8307462930679321,1.0859233140945435
1772527259693312800,2.466312744140625,0.007333945482969284,-1.6051433086395264,0.8619714975357056
1772527259703294700,2.476294677734375,0.012509265914559364,-1.4059175252914429,0.7145628333091736
1772527259713276700,2.486276611328125,0.010035455226898193,-1.1069414615631104,0.6229479908943176
1772527259723259600,2.496259765625,-0.04364771395921707,-0.8284843564033508,0.5293771624565125
1772527259733241900,2.506241943359375,0.2552410066127777,-0.9088913202285767,0.6111689805984497
1772527259743223600,2.5162236328125,0.2924244701862335,-0.884726345539093,0.674392819404602
1772527259753205800,2.526205810546875,0.054342932999134064,-0.726479709148407,0.5790119767189026
1772527259763188500,2.5361884765625,-0.09247688949108124,-0.42756637930870056,0.3581986725330353
1772527259773170700,2.546170654296875,-0.11976310610771179,0.035661730915308,0.14622223377227783
1772527259783152600,2.556152587890625,-0.08335433155298233,0.7867462038993835,0.03660422936081886
1772527259793135600,2.566135498046875,0.01559382677078247,1.5845221281051636,-0.011901522055268288
1772527259803117800,2.576117919921875,0.14386028051376343,2.248047351837158,-0.08900441229343414
1772527259813099500,2.586099609375,0.3013724386692047,2.4205803871154785,-0.137489914894104
1772527259823081700,2.596081787109375,0.45329928398132324,2.14851975440979,-0.21381312608718872
1772527259833064700,2.606064697265625,0.5362751483917236,1.5994917154312134,-0.3218250870704651
1772527259843046700,2.616046630859375,0.5075549483299255,1.027730107307434,-0.30201369524002075
1772527259853028900,2.62602880859375,0.42889687418937683,0.80483078956604,-0.009531233459711075
1772527259863010600,2.636010498046875,0.4001765549182892,0.9247365593910217,0.4204915463924408
1772527259872993800,2.645993896484375,0.4508221745491028,1.1072062253952026,0.6081439852714539
1772527259882975500,2.6559755859375,0.5724822878837585,0.9195290803909302,0.5009136199951172
1772527259892957700,2.665957763671875,0.493158221244812,0.3140016198158264,0.09231492131948471
1772527259902940700,2.675940673828125,0.14212054014205933,-0.442118376493454,-0.5794996619224548
1772527259912922600,2.685922607421875,-0.26578760147094727,-0.7291232347488403,-1.1195961236953735
1772527259922904800,2.69590478515625,-0.6016368269920349,-0.36462801694869995,-1.2757126092910767
1772527259932886500,2.705886474609375,-0.6475617289543152,0.5179017186164856,-0.9014650583267212
1772527259942869800,2.715869873046875,-0.32698217034339905,1.392853856086731,-0.15619157254695892
1772527259952851700,2.725851806640625,0.18327867984771729,1.824720859527588,0.6253748536109924
1772527259962833700,2.735833740234375,0.6074554324150085,1.7419482469558716,1.2176138162612915
1772527259972816000,2.74581591796875,0.8059957027435303,1.149406909942627,1.5777556896209717
1772527259982798800,2.755798828125,0.765098512172699,0.1790781468153,1.7362380027770996
1772527259992780800,2.76578076171875,0.51015704870224,-0.9417531490325928,1.7027252912521362
1772527260002762800,2.7757626953125,0.21556776762008667,-1.8838849067687988,1.512865424156189
1772527260012745700,2.785745849609375,0.0068006934598088264,-2.2719004154205322,1.1560958623886108
1772527260022727700,2.795727783203125,-0.0556589737534523,-2.0579617023468018,0.666610598564148
1772527260032709600,2.805709716796875,0.016108158975839615,-1.3928555250167847,0.1181778535246849
1772527260042691600,2.815691650390625,0.21087746322155,-0.6167596578598022,-0.43340229988098145
1772527260052674600,2.825674560546875,0.3872953951358795,-0.02684631012380123,-0.9080995917320251
1772527260062656800,2.83565673828125,0.34781768918037415,0.32829561829566956,-1.2482248544692993
1772527260072638500,2.845638427734375,0.0738505870103836,0.5009984374046326,-1.4395514726638794
1772527260082620700,2.85562060546875,-0.33639827370643616,0.6048182845115662,-1.524721622467041
1772527260092603600,2.865603759765625,-0.7657003402709961,0.6322315335273743,-1.5165084600448608
1772527260102585600,2.875585693359375,-1.094265103340149,0.6282073855400085,-1.3785490989685059
1772527260112567600,2.885567626953125,-1.248666763305664,0.5895851254463196,-1.0926893949508667
1772527260122550500,2.895550537109375,-1.2189784049987793,0.4894912540912628,-0.6953750848770142
1772527260132532500,2.905532470703125,-1.0217958688735962,0.2573235332965851,-0.28573933243751526
1772527260142514400,2.915514404296875,-0.7209939956665039,-0.08131355792284012,0.05079759284853935
1772527260152496600,2.92549658203125,-0.3861238658428192,-0.40483251214027405,0.2561701834201813
1772527260162479600,2.935479736328125,-0.07564845681190491,-0.6600233912467957,0.3275183141231537
1772527260172461600,2.945461669921875,0.1878899782896042,-0.8400443196296692,0.30950602889060974
1772527260182443500,2.955443603515625,0.3888372778892517,-0.960597813129425,0.28790587186813354
1772527260192425500,2.965425537109375,0.5033191442489624,-1.0068359375,0.31061384081840515
1772527260202408400,2.975408447265625,0.4923490881919861,-1.0132938623428345,0.38022586703300476
1772527260212390700,2.985390625,0.32419684529304504,-1.0153849124908447,0.4790456295013428
1772527260222372600,2.99537255859375,0.07367007434368134,-1.0111908912658691,0.5710358023643494
1772527260232355600,3.00535546875,-0.15395082533359528,-0.9670644998550415,0.5943597555160522
1772527260242337500,3.015337646484375,-0.2910648584365845,-0.8011295199394226,0.5162680149078369
1772527260252319500,3.025319580078125,-0.31988078355789185,-0.47596096992492676,0.3532377779483795
1772527260262301700,3.0353017578125,-0.28931260108947754,-0.024952126666903496,0.1478106528520584
1772527260272284400,3.045284423828125,-0.20690587162971497,0.4188242554664612,-0.04648292437195778
1772527260282266600,3.0552666015625,-0.11189158260822296,0.8154364824295044,-0.19550342857837677
1772527260292248600,3.06524853515625,-0.04448271915316582,1.0854825973510742,-0.29695576429367065
1772527260302230500,3.07523046875,-0.0016190898604691029,1.1783570051193237,-0.3570486605167389
1772527260312213800,3.0852138671875,-0.018223099410533905,1.1184263229370117,-0.38414713740348816
1772527260322195500,3.095195556640625,-0.05936206504702568,1.0404826402664185,-0.3643243908882141
1772527260332177700,3.105177734375,-0.021375002339482307,0.9882546067237854,-0.30729708075523376
1772527260342160400,3.115160400390625,0.11334674060344696,0.943124532699585,-0.2855391800403595
1772527260352142600,3.125142578125,0.2950289249420166,0.7785760760307312,-0.343744695186615
1772527260362124800,3.135124755859375,0.43443813920021057,0.34048327803611755,-0.4432767927646637
1772527260372106500,3.1451064453125,0.39813071489334106,-0.3258494734764099,-0.5794146656990051
1772527260382089700,3.15508984375,0.10888414829969406,-1.0559684038162231,-0.8218694925308228
1772527260392071400,3.165071533203125,-0.30003198981285095,-1.742650032043457,-1.2991952896118164
1772527260402053600,3.1750537109375,-0.6911659836769104,-2.127772808074951,-1.903643250465393
1772527260412035600,3.18503564453125,-0.9428523182868958,-2.071467399597168,-2.347010612487793
1772527260422018600,3.1950185546875,-0.8584460020065308,-1.4268721342086792,-2.2740871906280518
1772527260432000500,3.20500048828125,-0.3170352280139923,-0.26881036162376404,-1.581728219985962
1772527260441982500,3.214982421875,0.3639061450958252,0.6817861199378967,-0.6098889112472534
1772527260451964700,3.224964599609375,0.823952853679657,1.0131888389587402,0.40851959586143494
1772527260461947600,3.23494775390625,1.1432417631149292,0.8700993657112122,1.4118092060089111
1772527260471929600,3.2449296875,1.2412303686141968,0.3671056926250458,2.2173116207122803
1772527260481911600,3.25491162109375,1.0150930881500244,-0.4966863691806793,2.5949907302856445
1772527260491894500,3.26489453125,0.7553355097770691,-1.408247470855713,2.5566930770874023
1772527260501876500,3.27487646484375,0.7227139472961426,-1.838919997215271,2.296704053878784
1772527260511858400,3.2848583984375,0.8999366760253906,-1.6019679307937622,1.9613800048828125
1772527260521840600,3.294840576171875,1.1642714738845825,-0.8924262523651123,1.606462001800537
1772527260531823600,3.30482373046875,1.4098284244537354,-0.02003144472837448,1.2950325012207031
1772527260541805600,3.3148056640625,1.5789848566055298,0.8467528820037842,1.0969618558883667
1772527260551787500,3.32478759765625,1.5207929611206055,1.5498971939086914,1.0167179107666016
1772527260561769500,3.33476953125,1.149445652961731,1.929472804069519,1.0372765064239502
1772527260571752400,3.34475244140625,0.6372572779655457,2.034700632095337,1.097563624382019
1772527260581734700,3.354734619140625,0.15703466534614563,2.0087172985076904,1.1248847246170044
1772527260591716600,3.364716552734375,-0.2524218261241913,1.995121717453003,1.0605411529541016
1772527260601699600,3.374699462890625,-0.5982667803764343,2.1477999687194824,0.906923234462738
1772527260611681500,3.384681640625,-0.8341770172119141,2.5014586448669434,0.6823047399520874
1772527260621663500,3.39466357421875,-0.921413242816925,2.958796977996826,0.44168880581855774
1772527260631645700,3.404645751953125,-0.7902349829673767,3.395266056060791,0.2459118515253067
1772527260641628400,3.41462841796875,-0.42202028632164,3.6744449138641357,0.101337730884552
1772527260651610600,3.424610595703125,-0.06819403171539307,3.701270341873169,-0.12353479862213135
1772527260661592600,3.434592529296875,0.24804902076721191,3.214289903640747,-0.35507872700691223
1772527260671574500,3.444574462890625,0.44344115257263184,2.294205665588379,-0.5516074895858765
1772527260681557800,3.454557861328125,0.4406525492668152,1.0919526815414429,-0.7795940637588501
1772527260691539500,3.46453955078125,0.32731908559799194,-0.1613900363445282,-0.9791303277015686
1772527260701521700,3.474521728515625,0.1750437617301941,-1.0839784145355225,-1.084255337715149
1772527260711503600,3.484503662109375,0.036658983677625656,-1.4590522050857544,-1.1095706224441528
1772527260721486600,3.494486572265625,-0.06050245463848114,-1.4524110555648804,-1.1781762838363647
1772527260731468800,3.50446875,-0.17182284593582153,-1.2939153909683228,-1.3430914878845215
1772527260741450500,3.514450439453125,-0.3163685202598572,-0.9406898021697998,-1.4919697046279907
1772527260751433700,3.524433837890625,-0.4298931956291199,-0.37656813859939575,-1.4871852397918701
1772527260761415400,3.53441552734375,-0.444633811712265,0.24702772498130798,-1.3321764469146729
1772527260771397600,3.544397705078125,-0.379672110080719,0.7186551690101624,-1.0838465690612793
1772527260781379600,3.554379638671875,-0.30666112899780273,0.8732213973999023,-0.8144272565841675
1772527260791362600,3.564362548828125,-0.25121012330055237,0.623685359954834,-0.5512004494667053
1772527260801344500,3.574344482421875,-0.208463653922081,0.018792401999235153,-0.3067907392978668
1772527260811326500,3.584326416015625,-0.19317737221717834,-0.7260023951530457,-0.11764105409383774
1772527260821308700,3.59430859375,-0.12992502748966217,-1.3048313856124878,0.0815805196762085
1772527260831291600,3.604291748046875,0.04166856035590172,-1.5787303447723389,0.3335195481777191
1772527260841273600,3.614273681640625,0.25307324528694153,-1.606667160987854,0.632158100605011
1772527260851255600,3.624255615234375,0.4599659740924835,-1.5461169481277466,0.9283927083015442
1772527260861238500,3.634238525390625,0.5165048837661743,-1.5387533903121948,1.1528143882751465
1772527260871220500,3.644220458984375,0.3967566192150116,-1.697363257408142,1.1778427362442017
1772527260881202400,3.654202392578125,0.26033490896224976,-1.9584050178527832,0.9665910005569458
1772527260891184600,3.6641845703125,0.2119753658771515,-2.1193559169769287,0.6364562511444092
1772527260901167600,3.674167724609375,0.19828274846076965,-2.0612950325012207,0.3733829855918884
1772527260911149600,3.684149658203125,0.2957339584827423,-1.7724441289901733,0.39900872111320496
1772527260921131500,3.694131591796875,0.6081526875495911,-1.1964269876480103,0.7828561067581177
1772527260931113500,3.704113525390625,1.0558737516403198,-0.527569591999054,1.3386743068695068
1772527260941096400,3.714096435546875,1.245652198791504,-0.2033224254846573,1.6433329582214355
1772527260951078700,3.72407861328125,1.2049822807312012,-0.1855839043855667,1.4982503652572632
1772527260961060600,3.734060546875,1.080580234527588,-0.3212204575538635,0.922993540763855
1772527260971042600,3.74404248046875,0.7607100605964661,-0.6266751885414124,-0.02176419273018837
1772527260981025500,3.754025634765625,0.25187912583351135,-0.9619734883308411,-1.0762301683425903
1772527260991007500,3.764007568359375,-0.2398352026939392,-0.943510890007019,-1.944093108177185
1772527261000989700,3.77398974609375,-0.5292994379997253,-0.43878576159477234,-2.430598258972168
1772527261010972400,3.783972412109375,-0.6544418931007385,0.2990291714668274,-2.5757198333740234
1772527261020954600,3.79395458984375,-0.7335345149040222,1.0287772417068481,-2.465358018875122
1772527261030936600,3.8039365234375,-0.8922668695449829,1.652999997138977,-2.2864596843719482
1772527261040918500,3.81391845703125,-1.2179962396621704,2.2831614017486572,-2.2232346534729004
1772527261050901800,3.82390185546875,-1.6604974269866943,2.7878258228302,-2.306623697280884
1772527261060883500,3.833883544921875,-2.0905330181121826,2.958766460418701,-2.4852824211120605
1772527261070865700,3.84386572265625,-2.4259331226348877,2.802114963531494,-2.672971725463867
1772527261080847600,3.85384765625,-2.4854507446289062,2.635347843170166,-2.636218309402466
1772527261090830600,3.86383056640625,-2.2341911792755127,2.5835728645324707,-2.2870664596557617
1772527261100812800,3.873812744140625,-1.7830727100372314,2.469081401824951,-1.7157286405563354
1772527261110794500,3.88379443359375,-1.237379550933838,2.190880537033081,-1.0117530822753906
1772527261120776700,3.893776611328125,-0.6853764653205872,1.7167929410934448,-0.27014538645744324
1772527261130759400,3.903759521484375,-0.16352178156375885,1.0889513492584229,0.4474351108074188
1772527261140741600,3.91374169921875,0.31052902340888977,0.4232098460197449,1.1306638717651367
1772527261150723600,3.9237236328125,0.7262924313545227,-0.21488195657730103,1.7222741842269897
1772527261160706600,3.93370654296875,1.0686601400375366,-0.7875064611434937,2.1745123863220215
1772527261170688500,3.9436884765625,1.2978565692901611,-1.2615948915481567,2.467916250228882
1772527261180670500,3.95367041015625,1.375920057296753,-1.624612808227539,2.6055479049682617
1772527261190652700,3.963652587890625,1.294318437576294,-1.831445574760437,2.5526278018951416
1772527261200635600,3.9736357421875,1.1299163103103638,-1.8908765316009521,2.305128812789917
1772527261210617600,3.98361767578125,0.9781872630119324,-1.7884612083435059,1.8982653617858887
1772527261220599600,3.993599609375,0.8910224437713623,-1.521541714668274,1.4070854187011719
1772527261230581500,4.00358154296875,0.8881714940071106,-1.1786623001098633,0.8877812623977661
1772527261240564500,4.013564453125,0.9581859111785889,-0.8752133846282959,0.4036109447479248
1772527261250546400,4.02354638671875,1.0127557516098022,-0.636564314365387,-0.019327787682414055
1772527261260528600,4.033528564453125,0.9913319945335388,-0.4068446457386017,-0.366678923368454
1772527261270510600,4.043510498046875,0.9083567261695862,-0.1667633354663849,-0.5847193598747253
1772527261280493600,4.05349365234375,0.8383449912071228,0.06224785000085831,-0.6145003437995911
1772527261290475500,4.0634755859375,0.8522294163703918,0.19185298681259155,-0.4507249891757965
1772527261300457500,4.07345751953125,0.9608445167541504,0.15395763516426086,-0.13199672102928162
1772527261310439700,4.083439697265625,1.1218682527542114,-0.054717279970645905,0.27644455432891846
1772527261320422700,4.093422607421875,1.2190313339233398,-0.3565601408481598,0.6982767581939697
1772527261330404600,4.103404541015625,1.156555414199829,-0.7088977098464966,0.9761129021644592
1772527261340386600,4.113386474609375,0.9484227895736694,-1.0463354587554932,1.0099868774414062
1772527261350369500,4.12336962890625,0.6970521211624146,-1.2806228399276733,0.8886889815330505
1772527261360351500,4.1333515625,0.48502281308174133,-1.4683165550231934,0.6161254048347473
1772527261370333700,4.143333740234375,0.28356507420539856,-1.7334054708480835,0.11409080773591995
1772527261380315600,4.153315673828125,-0.03426765650510788,-1.9996930360794067,-0.6613483428955078
1772527261390298600,4.163298583984375,-0.45049601793289185,-1.983229160308838,-1.4914162158966064
1772527261400280600,4.173280517578125,-0.7893684506416321,-1.4792200326919556,-1.963791847229004
1772527261410262500,4.183262451171875,-0.7865327000617981,-0.62404465675354,-1.8815628290176392
1772527261420244500,4.193244384765625,-0.36387401819229126,0.4602220952510834,-1.2076958417892456
1772527261430227500,4.2032275390625,0.2461981475353241,1.1032153367996216,-0.19021515548229218
1772527261440209700,4.213209716796875,0.6810105443000793,0.856040358543396,0.7179652452468872
1772527261450191600,4.223191650390625,0.7046117186546326,-0.2733255624771118,1.2732750177383423
1772527261460173600,4.233173583984375,0.3947790265083313,-1.7134931087493896,1.5824426412582397
1772527261470156500,4.243156494140625,-0.02966492995619774,-2.816608428955078,1.8462492227554321
1772527261480138500,4.253138427734375,-0.37418892979621887,-3.4100801944732666,2.071948766708374
1772527261490120700,4.26312060546875,-0.5262436866760254,-3.559955358505249,2.0726051330566406
1772527261500102400,4.273102294921875,-0.36376774311065674,-3.1282947063446045,1.6813290119171143
1772527261510085600,4.283085693359375,0.05372323840856552,-2.0356998443603516,0.8934205770492554
1772527261520067300,4.2930673828125,0.5628682374954224,-0.29038676619529724,-0.2292315512895584
1772527261530049500,4.303049560546875,1.0181792974472046,1.5945621728897095,-1.2495673894882202
1772527261540032500,4.313032470703125,1.3288196325302124,2.7890326976776123,-1.8472696542739868
1772527261550014500,4.323014404296875,1.4222675561904907,3.361668109893799,-2.1322975158691406
1772527261559996700,4.33299658203125,1.2878423929214478,3.4382364749908447,-2.257573127746582
1772527261569978400,4.342978271484375,0.9042039513587952,2.9397120475769043,-2.2574515342712402
1772527261579961600,4.352961669921875,0.29070696234703064,2.075580596923828,-2.1088576316833496
1772527261589943600,4.362943603515625,-0.3800106942653656,1.0988529920578003,-1.8122138977050781
1772527261599925500,4.372925537109375,-0.8109567761421204,0.2529922425746918,-1.3616366386413574
1772527261609907700,4.38290771484375,-0.8718672394752502,-0.2584516704082489,-0.7347910404205322
1772527261619890700,4.392890625,-0.6777341365814209,-0.5670734643936157,-0.003681051079183817
1772527261629872600,4.40287255859375,-0.41716909408569336,-0.7715845108032227,0.7193546891212463
1772527261639854600,4.4128544921875,-0.17300742864608765,-0.9309433102607727,1.350027322769165
1772527261649836500,4.42283642578125,-0.0070315091870725155,-1.012289047241211,1.8229005336761475
1772527261659819500,4.432819580078125,0.10897331684827805,-0.9818454384803772,2.091531991958618
1772527261669801500,4.442801513671875,0.1724252551794052,-0.8570500016212463,2.1431150436401367
1772527261679783700,4.45278369140625,0.18846537172794342,-0.64373379945755,1.9857218265533447
1772527261689765400,4.462765380859375,0.16466523706912994,-0.3498467803001404,1.6836059093475342
1772527261699748600,4.47274853515625,0.11153249442577362,0.032491181045770645,1.2978439331054688
1772527261709730600,4.48273046875,0.08878989517688751,0.44464385509490967,0.8819625377655029
1772527261719712500,4.49271240234375,0.11965637654066086,0.794570803642273,0.4817667305469513
1772527261729695500,4.502695556640625,0.15871697664260864,1.046772837638855,0.12166314572095871
1772527261739677700,4.512677734375,0.162515327334404,1.216202735900879,-0.1894565224647522
1772527261749659600,4.52265966796875,0.13605442643165588,1.3809216022491455,-0.4036194384098053
1772527261759641600,4.5326416015625,0.11624771356582642,1.5500949621200562,-0.4684716761112213
1772527261769624600,4.54262451171875,0.1616135835647583,1.627724051475525,-0.3912043273448944
1772527261779606500,4.5526064453125,0.25048086047172546,1.5103414058685303,-0.2599964737892151
1772527261789588700,4.562588623046875,0.3347398042678833,1.172176480293274,-0.14217129349708557
1772527261799570700,4.57257080078125,0.39830467104911804,0.6577927470207214,-0.09081831574440002
1772527261809553700,4.5825537109375,0.4602242410182953,0.1258460432291031,-0.08351939171552658
1772527261819535600,4.59253564453125,0.5241479873657227,-0.24963916838169098,-0.10531274974346161
1772527261829517600,4.602517578125,0.7482138276100159,-0.46876242756843567,-0.08690471202135086
1772527261839499500,4.61249951171875,1.3007304668426514,-0.7026642560958862,-0.029388289898633957
1772527261849482500,4.622482421875,2.099255084991455,-0.9787847995758057,0.001372018363326788
1772527261859464700,4.632464599609375,2.856487989425659,-0.730329692363739,-0.19577817618846893
1772527261869446400,4.6424462890625,3.1578283309936523,0.037347517907619476,-0.526858925819397
1772527261879428600,4.6524287109375,3.0538320541381836,0.7892953753471375,-0.8026596903800964
1772527261889411600,4.66241162109375,2.8084309101104736,1.1927951574325562,-0.730078399181366
1772527261899393500,4.6723935546875,2.595386266708374,1.182816743850708,-0.34799379110336304
1772527261909375700,4.682375732421875,2.3964431285858154,0.557935893535614,0.10372970998287201
1772527261919358500,4.6923583984375,1.9497007131576538,-0.4905581474304199,0.43356168270111084
1772527261929340700,4.702340576171875,1.2291576862335205,-1.5416679382324219,0.5091504454612732
1772527261939322400,4.712322265625,0.562911868095398,-2.1708619594573975,0.44267210364341736
1772527261949304600,4.7223046875,0.2162148654460907,-2.1355838775634766,0.37840601801872253
1772527261959287600,4.73228759765625,0.23519137501716614,-1.4731770753860474,0.30191299319267273
1772527261969269500,4.74226953125,0.4844408929347992,-0.45286551117897034,0.13484197854995728
1772527261979251700,4.752251708984375,0.8368887305259705,0.5241586565971375,-0.07672276347875595
1772527261989233400,4.7622333984375,1.0956064462661743,1.1526364088058472,-0.31922197341918945
1772527261999216600,4.772216552734375,0.9495289921760559,1.3846557140350342,-0.6116522550582886
1772527262009198600,4.782198486328125,0.3360216021537781,1.2845839262008667,-0.900475263595581
1772527262019180500,4.7921806640625,-0.4702901840209961,0.8928765058517456,-1.125929594039917
1772527262029162800,4.802162841796875,-1.0626810789108276,0.3724266290664673,-1.1839332580566406
1772527262039145500,4.8121455078125,-1.3046799898147583,-0.00569615513086319,-1.0197737216949463
1772527262049127700,4.822127685546875,-1.2547763586044312,-0.2135143280029297,-0.6799716353416443
1772527262059110100,4.832110107421875,-1.0754599571228027,-0.31480735540390015,-0.24332955479621887
1772527262069092400,4.84209228515625,-0.9035465121269226,-0.383451908826828,0.24649181962013245
1772527262079075000,4.852074951171875,-0.8396294116973877,-0.46209412813186646,0.7555967569351196
1772527262089057300,4.862057373046875,-0.8855308294296265,-0.5971571207046509,1.2385010719299316
1772527262099039000,4.8720390625,-0.9884412884712219,-0.7577828764915466,1.682019591331482
1772527262109021200,4.882021240234375,-1.128972053527832,-0.8428413271903992,2.037374258041382
1772527262119004200,4.892004150390625,-1.2528029680252075,-0.8419355750083923,2.2548956871032715
1772527262128986000,4.901986083984375,-1.3402299880981445,-0.7831500172615051,2.3161168098449707
1772527262138968300,4.91196826171875,-1.3715893030166626,-0.5827856659889221,2.1737864017486572
1772527262148951000,4.921950927734375,-1.3279811143875122,-0.341193825006485,1.911335825920105
1772527262158933200,4.931933349609375,-1.2000871896743774,-0.10940510034561157,1.6056063175201416
1772527262168915200,4.941915283203125,-1.0349717140197754,0.06226172298192978,1.2963263988494873
1772527262178897200,4.951897216796875,-0.8762292861938477,0.2204636186361313,1.005140781402588
1772527262188880100,4.961880126953125,-0.7518697381019592,0.3948402404785156,0.7718702554702759
1772527262198862000,4.971862060546875,-0.6839889287948608,0.5521166920661926,0.5930684804916382
1772527262208844300,4.98184423828125,-0.6578547954559326,0.6243948936462402,0.46054962277412415
1772527262218826000,4.991825927734375,-0.6515488624572754,0.5958143472671509,0.3675694763660431
1772527262228809200,5.001809326171875,-0.6507722735404968,0.5102472305297852,0.30400168895721436
1772527262238791200,5.011791259765625,-0.622171938419342,0.5171315670013428,0.23036597669124603
1772527262248773000,5.021773193359375,-0.5144845843315125,0.6066033840179443,0.14717549085617065
1772527262258755300,5.03175537109375,-0.3353148102760315,0.7291762828826904,0.07583732157945633
1772527262268738300,5.04173828125,-0.05846642330288887,0.853313148021698,-0.04310397803783417
1772527262278720300,5.05172021484375,0.2653213143348694,0.9629601240158081,-0.20514407753944397
1772527262288702200,5.0617021484375,0.5807967185974121,0.9607840776443481,-0.33894822001457214
1772527262298684200,5.07168408203125,0.8866512179374695,0.7582284212112427,-0.37347057461738586
1772527262308667100,5.081667236328125,1.1991649866104126,0.27727216482162476,-0.3134578466415405
1772527262318649000,5.091649169921875,1.5286420583724976,-0.49664461612701416,-0.22298336029052734
1772527262328631000,5.101631103515625,1.8323447704315186,-1.302179217338562,-0.1472688913345337
1772527262338613200,5.11161328125,1.9854710102081299,-1.8644170761108398,-0.16534113883972168
1772527262348596200,5.12159619140625,1.855677843093872,-2.2608683109283447,-0.3594973087310791
1772527262358578200,5.131578125,1.4598430395126343,-2.6809585094451904,-0.6567418575286865
1772527262368560000,5.14156005859375,1.0184285640716553,-2.8960683345794678,-0.8189597725868225
1772527262378542000,5.1515419921875,0.7320275902748108,-2.4850478172302246,-0.6831584572792053
1772527262388525300,5.161525390625,0.5846096277236938,-1.4926005601882935,-0.2927757799625397
1772527262398507000,5.171507080078125,0.5137559771537781,-0.337583988904953,0.14047633111476898
1772527262408489200,5.1814892578125,0.47048547863960266,0.5277164578437805,0.386763334274292
1772527262418472000,5.191471923828125,0.3856622874736786,0.9731972217559814,0.3472789525985718
1772527262428454100,5.2014541015625,0.23052890598773956,0.9625714421272278,0.08075777441263199
1772527262438436400,5.211436279296875,0.06314316391944885,0.6887018084526062,-0.21094468235969543
1772527262448418000,5.22141796875,-0.06737835705280304,0.41020384430885315,-0.3852024972438812
1772527262458401300,5.2314013671875,-0.13986077904701233,0.20201610028743744,-0.4275468587875366
1772527262468383000,5.241383056640625,-0.20464909076690674,0.058540962636470795,-0.3706159293651581
1772527262478365200,5.251365234375,-0.3009541630744934,0.03097326122224331,-0.22949758172035217
1772527262488347100,5.26134716796875,-0.4160221517086029,0.16954338550567627,-0.022835740819573402
1772527262498330000,5.271330078125,-0.5087153911590576,0.4703350067138672,0.20602309703826904
1772527262508312300,5.281312255859375,-0.5929543972015381,0.8419967293739319,0.36714085936546326
1772527262518294000,5.2912939453125,-0.6951367855072021,1.2845534086227417,0.3495752513408661
1772527262528276200,5.301276123046875,-0.8285079002380371,1.6988145112991333,0.084501251578331
1772527262538259200,5.31125927734375,-0.9414190053939819,1.9418079853057861,-0.35847029089927673
1772527262548241200,5.3212412109375,-1.0024107694625854,2.010936975479126,-0.8275696039199829
1772527262558223400,5.331223388671875,-1.018572211265564,2.045104503631592,-1.199805736541748
1772527262568205000,5.341205078125,-1.0127640962600708,1.973541498184204,-1.4387242794036865
1772527262578188300,5.351188232421875,-0.9912068247795105,1.6833454370498657,-1.525365948677063
1772527262588170000,5.361169921875,-0.9615226984024048,1.2480090856552124,-1.4471994638442993
1772527262598152200,5.371152099609375,-0.9459477663040161,0.7483875751495361,-1.2233022451400757
1772527262608134100,5.381134033203125,-0.9412744641304016,0.2651554048061371,-0.8908196687698364
1772527262618117000,5.3911171875,-0.9348439574241638,-0.1363033950328827,-0.5043654441833496
1772527262628099300,5.401099365234375,-0.9186079502105713,-0.3473708927631378,-0.1284639984369278
1772527262638081000,5.4110810546875,-0.8840780854225159,-0.349450021982193,0.19205158948898315
1772527262648063200,5.421063232421875,-0.8297783732414246,-0.21463923156261444,0.40926966071128845
1772527262658046200,5.431046142578125,-0.7589275240898132,-0.030379658564925194,0.512259304523468
1772527262668028200,5.441028076171875,-0.6652407050132751,0.18462319672107697,0.5171542167663574
1772527262678010000,5.451010009765625,-0.5817500948905945,0.38775143027305603,0.43966737389564514
1772527262687992000,5.460991943359375,-0.47351786494255066,0.5542604923248291,0.319831520318985
1772527262697975000,5.47097509765625,-0.3241191804409027,0.6706843376159668,0.17095808684825897
1772527262707957200,5.480957275390625,-0.1304791271686554,0.7552900314331055,0.01244940422475338
1772527262717939200,5.490939208984375,0.08555173873901367,0.8379337191581726,-0.13113585114479065
1772527262727921200,5.500921142578125,0.30446943640708923,0.911586344242096,-0.2115478664636612
1772527262737904000,5.510904052734375,0.4777725040912628,0.9332743883132935,-0.2331719547510147
1772527262747886000,5.520885986328125,0.5740079879760742,0.8813859224319458,-0.19938230514526367
1772527262757868000,5.530867919921875,0.6134477853775024,0.8413049578666687,-0.09421608597040176
1772527262767851000,5.54085107421875,0.6163671016693115,0.8120458722114563,0.06193942949175835
1772527262777833200,5.550833251953125,0.583414614200592,0.8339911699295044,0.23749540746212006
1772527262787815200,5.560815185546875,0.5687246322631836,0.8044612407684326,0.37749192118644714
1772527262797797000,5.570797119140625,0.5631157755851746,0.6831280589103699,0.41564059257507324
1772527262807780400,5.5807802734375,0.5662026405334473,0.4905593991279602,0.340420663356781
1772527262817762000,5.590761962890625,0.5986822247505188,0.268485426902771,0.1791362166404724
1772527262827744300,5.600744140625,0.6186959147453308,-0.12765337526798248,-0.09718459099531174
1772527262837726200,5.610726318359375,0.5253572463989258,-0.8086399435997009,-0.531071662902832
1772527262847709200,5.620709228515625,0.23026514053344727,-1.7259851694107056,-1.0898494720458984
1772527262857691100,5.630691162109375,-0.24000275135040283,-2.403968334197998,-1.585928201675415
1772527262867673000,5.640673095703125,-0.8457597494125366,-2.699927568435669,-1.8063322305679321
1772527262877655300,5.6506552734375,-1.344147801399231,-2.45699405670166,-1.517184853553772
1772527262887638000,5.660637939453125,-1.4259660243988037,-1.796161413192749,-0.728489875793457
1772527262897620200,5.6706201171875,-1.212097406387329,-0.9894680976867676,0.29569077491760254
1772527262907602200,5.680602294921875,-0.9837310910224915,-0.1481134444475174,1.1798416376113892
1772527262917584100,5.690584228515625,-0.8392832279205322,0.48060017824172974,1.5925712585449219
1772527262927567400,5.7005673828125,-0.8026586174964905,0.7738677263259888,1.5713746547698975
1772527262937549000,5.710549072265625,-0.7795501947402954,0.5741428732872009,1.2735440731048584
1772527262947531300,5.72053125,-0.6798784732818604,-0.18927033245563507,0.8343435525894165
1772527262957513200,5.73051318359375,-0.4832157492637634,-1.2266483306884766,0.5156936645507812
1772527262967496200,5.74049609375,-0.3155668377876282,-2.11926531791687,0.40243902802467346
1772527262977478100,5.75047802734375,-0.28294339776039124,-2.309299945831299,0.32589370012283325
1772527262987460000,5.760460205078125,-0.28490880131721497,-1.8484035730361938,0.1944054663181305
1772527262997442300,5.7704423828125,-0.2898377776145935,-0.9913196563720703,-0.09714491665363312
1772527263007425000,5.780425048828125,-0.28511756658554077,0.16440701484680176,-0.5087937116622925
1772527263017407200,5.7904072265625,-0.19139112532138824,1.1897964477539062,-0.9460530281066895
1772527263027389000,5.800388916015625,-0.02601681463420391,1.95102858543396,-1.3275779485702515
1772527263037371100,5.81037109375,0.12180870026350021,2.4713706970214844,-1.5927027463912964
1772527263047354000,5.82035400390625,0.19713649153709412,2.582698106765747,-1.7311517000198364
1772527263057336000,5.830336181640625,0.19556672871112823,2.1565725803375244,-1.7092771530151367
1772527263067318300,5.840318359375,0.1713431477546692,1.3881571292877197,-1.4100779294967651
1772527263077300000,5.850300048828125,0.16624808311462402,0.535694420337677,-0.8293653726577759
1772527263087283200,5.860283203125,0.18001556396484375,-0.26476502418518066,-0.11296895891427994
1772527263097265200,5.87026513671875,0.21271449327468872,-0.9348401427268982,0.5730318427085876
1772527263107247000,5.8802470703125,0.23319366574287415,-1.3994609117507935,1.1222665309906006
1772527263117229300,5.890229248046875,0.21869805455207825,-1.6349966526031494,1.4802260398864746
1772527263127212000,5.9002119140625,0.1498529464006424,-1.6930564641952515,1.6201077699661255
1772527263137194200,5.9101943359375,0.027604181319475174,-1.5542033910751343,1.5392454862594604
1772527263147176200,5.92017626953125,-0.11245092749595642,-1.2077631950378418,1.3265228271484375
1772527263157158100,5.930158203125,-0.25203171372413635,-0.7312663197517395,1.0442914962768555
1772527263167141000,5.94014111328125,-0.3654528260231018,-0.2191295027732849,0.7338405847549438
1772527263177123000,5.950123046875,-0.45324835181236267,0.23498652875423431,0.42239367961883545
1772527263187105300,5.960105224609375,-0.517288863658905,0.6510069370269775,0.1474747508764267
1772527263197087000,5.9700869140625,-0.5387616157531738,0.9676427841186523,-0.0615311935544014
1772527263207070200,5.9800703125,-0.49165189266204834,1.0761250257492065,-0.1919477880001068
1772527263217052200,5.99005224609375,-0.3897498548030853,0.9764781594276428,-0.21881231665611267
1772527263227034000,6.0000341796875,-0.2791634202003479,0.7659470438957214,-0.14789633452892303
1772527263237016300,6.010016357421875,-0.17358511686325073,0.5819833278656006,-0.0053791143000125885
1772527263246999300,6.019999267578125,-0.08208370208740234,0.5033742785453796,0.10406801849603653
1772527263256981200,6.029981201171875,-0.012768004089593887,0.4983181059360504,0.10176754742860794
1772527263266963200,6.039963134765625,0.06342530250549316,0.37866121530532837,-0.034487757831811905
1772527263276945200,6.049945068359375,0.1451156884431839,0.016954202204942703,-0.25646355748176575
1772527263286928100,6.05992822265625,0.20485492050647736,-0.4570319950580597,-0.42808589339256287
1772527263296910000,6.06991015625,0.20567910373210907,-0.8050863146781921,-0.4861323833465576
1772527263306892000,6.07989208984375,0.13371063768863678,-0.9142003059387207,-0.43679332733154297
1772527263316874200,6.089874267578125,-0.037874266505241394,-0.9172637462615967,-0.34908124804496765
1772527263326857200,6.099857177734375,-0.2790221571922302,-0.9930306673049927,-0.34641116857528687
1772527263336839200,6.109839111328125,-0.524360179901123,-1.280980110168457,-0.4636300802230835
1772527263346821000,6.119821044921875,-0.6860800981521606,-1.6031382083892822,-0.5140213370323181
1772527263356803000,6.129802978515625,-0.7129905223846436,-1.6729435920715332,-0.29204609990119934
1772527263366786300,6.139786376953125,-0.6447310447692871,-1.3799474239349365,0.19717074930667877
1772527263376768000,6.14976806640625,-0.5583862662315369,-0.8474752306938171,0.768345296382904
1772527263386750200,6.159750244140625,-0.4500579237937927,-0.4287016689777374,1.2182189226150513
1772527263396732200,6.169732177734375,-0.3757406175136566,-0.3688696622848511,1.3392561674118042
1772527263406715100,6.179715087890625,-0.435337632894516,-0.5712379217147827,1.0889179706573486
1772527263416697300,6.189697265625,-0.5757297873497009,-0.9332942366600037,0.5669710636138916
1772527263426679000,6.199678955078125,-0.6646959185600281,-1.4398235082626343,-0.01590113528072834
1772527263436661200,6.2096611328125,-0.6356037855148315,-2.014368772506714,-0.41899338364601135
1772527263446644000,6.21964404296875,-0.5676079988479614,-2.568615436553955,-0.5007559061050415
1772527263456626200,6.229626220703125,-0.5435563921928406,-3.1354622840881348,-0.3001419007778168
1772527263466608000,6.239608154296875,-0.6551766991615295,-3.5250887870788574,0.047258153557777405
1772527263476590000,6.249590087890625,-0.8986897468566895,-3.42189884185791,0.3557012379169464
1772527263486573300,6.2595732421875,-1.0966087579727173,-2.9468116760253906,0.48771998286247253
1772527263496555000,6.269554931640625,-1.1823582649230957,-2.377977132797241,0.3599664568901062
1772527263506537200,6.279537109375,-1.1507998704910278,-1.8503535985946655,-0.0009597800672054291
1772527263516519200,6.289519287109375,-1.0610847473144531,-1.2289714813232422,-0.48635369539260864
1772527263526502100,6.299502197265625,-0.9328369498252869,-0.48025622963905334,-0.966759443283081
1772527263536484400,6.309484375,-0.7406851053237915,0.2703641355037689,-1.3563954830169678
1772527263546466000,6.319466064453125,-0.4830407500267029,0.9716711044311523,-1.579843282699585
1772527263556448300,6.3294482421875,-0.22506573796272278,1.5419248342514038,-1.6171940565109253
1772527263566431000,6.339430908203125,0.018090449273586273,1.9338065385818481,-1.5150154829025269
1772527263576413200,6.3494130859375,0.25961846113204956,2.12732195854187,-1.3167214393615723
1772527263586395100,6.35939501953125,0.4839929938316345,2.12646222114563,-1.0690492391586304
1772527263596377000,6.369377197265625,0.6577135920524597,1.9831925630569458,-0.7984129786491394
1772527263606360300,6.3793603515625,0.7657727003097534,1.797868251800537,-0.5201800465583801
1772527263616342000,6.389342041015625,0.7949115633964539,1.6401888132095337,-0.2442525327205658
1772527263626324200,6.39932421875,0.7662477493286133,1.4720368385314941,0.006133619695901871
1772527263636306000,6.409305908203125,0.6850040555000305,1.3062853813171387,0.23353371024131775
1772527263646289200,6.4192890625,0.540331244468689,1.2262661457061768,0.4462270736694336
1772527263656271000,6.42927099609375,0.34317320585250854,1.24242103099823,0.647861123085022
1772527263666253000,6.439253173828125,0.12501640617847443,1.329765796661377,0.8280681371688843
1772527263676235300,6.4492353515625,-0.07911675423383713,1.4686039686203003,0.9456141591072083
1772527263686218200,6.45921826171875,-0.24547269940376282,1.5342364311218262,0.9619556069374084
1772527263696200200,6.4692001953125,-0.36583730578422546,1.4549343585968018,0.8625349402427673
1772527263706182100,6.47918212890625,-0.4561717212200165,1.2036118507385254,0.6833577156066895
1772527263716164000,6.4891640625,-0.47115522623062134,0.8055264353752136,0.5287721157073975
1772527263726147000,6.49914697265625,-0.39686715602874756,0.5332898497581482,0.5057480335235596
1772527263736129000,6.50912890625,-0.2737746834754944,0.5145524144172668,0.5669204592704773
1772527263746111200,6.519111328125,-0.10121621191501617,0.7200613617897034,0.5838355422019958
1772527263756093200,6.52909326171875,0.12651608884334564,0.985849142074585,0.49142858386039734
1772527263766076200,6.539076171875,0.37244412302970886,1.0002834796905518,0.27056145668029785
1772527263776058000,6.54905810546875,0.6421233415603638,0.5466552376747131,-0.004828976467251778
1772527263786040000,6.5590400390625,0.9072405099868774,-0.238887757062912,-0.17546197772026062
1772527263796022300,6.569022216796875,1.0457273721694946,-1.0339925289154053,-0.1434737890958786
1772527263806005200,6.579005126953125,0.9793499112129211,-1.6030831336975098,0.05500467121601105
1772527263815987200,6.5889873046875,0.727833092212677,-2.0026206970214844,0.28594276309013367
1772527263825969200,6.59896923828125,0.4203895330429077,-2.2573375701904297,0.5474177598953247
1772527263835951000,6.608951171875,0.21841618418693542,-2.3098161220550537,0.9110594391822815
1772527263845934000,6.61893408203125,0.15576878190040588,-2.05582332611084,1.358178973197937
1772527263855916300,6.628916259765625,0.15789328515529633,-1.5455684661865234,1.7985212802886963
1772527263865898200,6.638898193359375,0.16823993623256683,-1.0969232320785522,2.0857787132263184
1772527263875880200,6.648880126953125,0.11424263566732407,-0.8304263353347778,2.1005806922912598
1772527263885863200,6.65886328125,-0.02649024873971939,-0.8633853197097778,1.7805874347686768
1772527263895845000,6.66884521484375,-0.17878231406211853,-1.1307713985443115,1.2095534801483154
1772527263905827000,6.6788271484375,-0.24920961260795593,-1.365513563156128,0.5620044469833374
1772527263915809300,6.688809326171875,-0.22517129778862,-1.3319836854934692,0.05882968753576279
1772527263925792300,6.698792236328125,-0.15696321427822113,-0.9960216879844666,-0.1854785829782486
1772527263935774200,6.708774169921875,-0.07437779009342194,-0.48634201288223267,-0.19515037536621094
1772527263945756200,6.718756103515625,-0.03387031331658363,0.08589034527540207,-0.14028020203113556
1772527263955738000,6.728738037109375,-0.11830553412437439,0.8014804124832153,-0.2796560227870941
1772527263965721000,6.73872119140625,-0.2546098530292511,1.4914013147354126,-0.7078904509544373
1772527263975703300,6.748703369140625,-0.34569960832595825,1.9909651279449463,-1.313496470451355
1772527263985685000,6.75868505859375,-0.3201710879802704,2.270834445953369,-1.887264609336853
1772527263995667200,6.768667236328125,-0.22255131602287292,2.375640392303467,-2.277416229248047
1772527264005650000,6.77864990234375,-0.12473500519990921,2.3323614597320557,-2.4207513332366943
1772527264015632100,6.788632080078125,-0.04947309195995331,2.1225037574768066,-2.341874122619629
1772527264025614300,6.7986142578125,0.005862067453563213,1.7710907459259033,-2.0954818725585938
1772527264035596000,6.808595947265625,0.05695353448390961,1.3914028406143188,-1.715125322341919
1772527264045579300,6.818579345703125,0.1215362548828125,1.023167610168457,-1.2234562635421753
1772527264055560700,6.828560791015625,0.19664670526981354,0.7082273960113525,-0.6798182129859924
1772527264065542700,6.838542724609375,0.26574191451072693,0.43984147906303406,-0.12931913137435913
1772527264075524900,6.84852490234375,0.3028287887573242,0.23683500289916992,0.3692968189716339
1772527264085507600,6.858507568359375,0.2984364330768585,0.07377418130636215,0.761523425579071
1772527264095489800,6.86848974609375,0.24822396039962769,-0.044725727289915085,0.9955505728721619
1772527264105471500,6.878471435546875,0.1386042684316635,-0.11873363703489304,1.0774224996566772
1772527264115453700,6.88845361328125,-0.023175381124019623,-0.10547574609518051,1.0415198802947998
1772527264125436700,6.898436767578125,-0.2005823850631714,-0.0025315217208117247,0.936074435710907
1772527264135418600,6.908418701171875,-0.3473089933395386,0.15190625190734863,0.8211446404457092
1772527264145400800,6.91840087890625,-0.46035751700401306,0.3393253982067108,0.7167319655418396
1772527264155382500,6.928382568359375,-0.5385167598724365,0.5384166836738586,0.637045681476593
1772527264165365800,6.93836572265625,-0.5858367085456848,0.6659755110740662,0.5719204545021057
1772527264175347700,6.94834765625,-0.6240164041519165,0.6360611915588379,0.5258501172065735
1772527264185329700,6.95832958984375,-0.6715282797813416,0.481925904750824,0.5027858018875122
1772527264195311900,6.968311767578125,-0.7158769369125366,0.31477513909339905,0.5228062868118286
1772527264205294600,6.978294677734375,-0.770395040512085,0.22106674313545227,0.5901997089385986
1772527264215276800,6.98827685546875,-0.8369944095611572,0.2495775818824768,0.6886576414108276
1772527264225258500,6.998258544921875,-0.8847001194953918,0.3804815411567688,0.8115233778953552
1772527264235240700,7.00824072265625,-0.8718396425247192,0.6172142624855042,0.9785791039466858
1772527264245223700,7.0182236328125,-0.8120942711830139,0.8777033686637878,1.1618181467056274
1772527264255205600,7.02820556640625,-0.6912310719490051,1.107668161392212,1.2971174716949463
1772527264265187800,7.038187744140625,-0.48575323820114136,1.1165969371795654,1.3225990533828735
1772527264275169500,7.04816943359375,-0.22786246240139008,0.75214684009552,1.2425814867019653
1772527264285152800,7.05815283203125,0.02725132927298546,0.21463514864444733,1.1800352334976196
1772527264295134700,7.068134765625,0.1846766173839569,-0.2642635703086853,1.2194435596466064
1772527264305116700,7.07811669921875,0.2265942394733429,-0.5001959204673767,1.3751399517059326
1772527264315099000,7.088098876953125,0.13654711842536926,-0.6407646536827087,1.5027693510055542
1772527264325081600,7.09808154296875,-0.15041647851467133,-0.9991326928138733,1.375012993812561
1772527264335063800,7.108063720703125,-0.6424422860145569,-1.8990709781646729,0.8525089025497437
1772527264345045800,7.118045654296875,-1.1347166299819946,-2.9833426475524902,0.1412276029586792
1772527264355027700,7.12802783203125,-1.2592151165008545,-3.4686059951782227,-0.36680155992507935
1772527264365010700,7.1380107421875,-0.9315851330757141,-3.087567090988159,-0.5045756101608276
1772527264374992600,7.14799267578125,-0.3196878433227539,-1.985329031944275,-0.37322038412094116
1772527264384974600,7.157974609375,0.27628445625305176,-0.8061152100563049,-0.2849072813987732
1772527264394956500,7.16795654296875,0.5965734124183655,-0.0025643184781074524,-0.4330017864704132
1772527264404938800,7.177938720703125,0.6257044076919556,0.42409005761146545,-0.7716434597969055
1772527264414921700,7.187921630859375,0.4655469059944153,0.5760570764541626,-1.1182783842086792
1772527264424903700,7.197903564453125,0.2950092554092407,0.5158514976501465,-1.3085434436798096
1772527264434885600,7.2078857421875,0.25524622201919556,0.3781587481498718,-1.236391305923462
1772527264444867600,7.21786767578125,0.3651237189769745,0.20496110618114471,-0.91495680809021
1772527264454850600,7.2278505859375,0.5595690608024597,-0.004767450969666243,-0.4737791419029236
1772527264464832800,7.237832763671875,0.732671320438385,-0.22443322837352753,-0.06082858145236969
1772527264474814700,7.247814697265625,0.8063283562660217,-0.3898341953754425,0.2014375478029251
1772527264484796700,7.257796630859375,0.759161114692688,-0.38215523958206177,0.2554778754711151
1772527264494779600,7.267779541015625,0.5901317596435547,-0.2180839329957962,0.11346197873353958
1772527264504761600,7.27776171875,0.3484717607498169,0.03549799695611,-0.15495270490646362
1772527264514743800,7.287743896484375,0.06628017872571945,0.32011929154396057,-0.47085434198379517
1772527264524725800,7.297725830078125,-0.22327280044555664,0.5709728002548218,-0.7910134196281433
1772527264534708700,7.307708740234375,-0.48142704367637634,0.7712731957435608,-1.0475999116897583
1772527264544690700,7.317690673828125,-0.6735344529151917,0.8972846269607544,-1.232372760772705
1772527264554672600,7.327672607421875,-0.8109076619148254,0.9166809320449829,-1.3193389177322388
1772527264564654600,7.337654541015625,-0.874138593673706,0.8761870265007019,-1.3040657043457031
1772527264574637600,7.347637451171875,-0.8471490144729614,0.789537250995636,-1.1822707653045654
1772527264584619800,7.357619873046875,-0.7353881597518921,0.6587672829627991,-0.9709582924842834
1772527264594601700,7.367601806640625,-0.5583147406578064,0.523338794708252,-0.6978355050086975
1772527264604583700,7.377583740234375,-0.35121825337409973,0.39987921714782715,-0.39084360003471375
1772527264614567000,7.38756689453125,-0.1559688001871109,0.2817910313606262,-0.1075962632894516
1772527264624548600,7.397548583984375,-0.027057956904172897,0.14490242302417755,0.11091157793998718
1772527264634530800,7.40753076171875,0.029745321720838547,0.03142848238348961,0.2462734580039978
1772527264644512800,7.4175126953125,0.011823315173387527,-0.09942646324634552,0.30224111676216125
1772527264654495700,7.427495849609375,-0.057285111397504807,-0.27547046542167664,0.28760436177253723
1772527264664477700,7.437477783203125,-0.18562950193881989,-0.47433003783226013,0.21162757277488708
1772527264674459600,7.447459716796875,-0.3653148114681244,-0.6616023182868958,0.07375406473875046
1772527264684441900,7.45744189453125,-0.6024730801582336,-0.8175522089004517,-0.1213802695274353
1772527264694424600,7.467424560546875,-0.8554232120513916,-0.9480072855949402,-0.3236684501171112
1772527264704406800,7.47740673828125,-1.0078734159469604,-0.8046245574951172,-0.4608151316642761
1772527264714388700,7.487388671875,-1.0826033353805542,-0.4238199293613434,-0.5314117670059204
1772527264724370700,7.49737060546875,-1.106163740158081,-0.12110349535942078,-0.6228348612785339
1772527264734353700,7.507353759765625,-1.0750946998596191,0.11262991279363632,-0.7793614268302917
1772527264744335600,7.517335693359375,-0.950416624546051,0.3217349052429199,-0.9481996893882751
1772527264754317800,7.52731787109375,-0.7188439965248108,0.5302383303642273,-1.0546138286590576
1772527264764299500,7.537299560546875,-0.402793824672699,0.5483278632164001,-1.0715270042419434
1772527264774282800,7.54728271484375,-0.01691582053899765,0.39614203572273254,-0.977716326713562
1772527264784264700,7.5572646484375,0.3187639117240906,0.1929846704006195,-0.7894068360328674
1772527264794246700,7.56724658203125,0.4574078917503357,0.09155397862195969,-0.5703936219215393
1772527264804228900,7.577228759765625,0.37024983763694763,0.1130606010556221,-0.3839227557182312
1772527264814210600,7.58721044921875,0.123689204454422,0.15729857981204987,-0.2316923588514328
1772527264824193800,7.59719384765625,-0.17118558287620544,0.10448890179395676,-0.09908878058195114
1772527264834175500,7.607175537109375,-0.40913626551628113,-0.13691413402557373,0.032213468104600906
1772527264844157700,7.61715771484375,-0.48876771330833435,-0.45517945289611816,0.20752696692943573
1772527264854140000,7.627139892578125,-0.4059485197067261,-0.6825333833694458,0.4355093538761139
1772527264864122600,7.63712255859375,-0.24973709881305695,-0.7463397979736328,0.6429062485694885
1772527264874104800,7.647104736328125,-0.0614406056702137,-0.772296667098999,0.7331574559211731
1772527264884086500,7.65708642578125,0.1256917417049408,-0.8017567992210388,0.7097266912460327
1772527264894068700,7.66706884765625,0.28061211109161377,-0.8135727643966675,0.5907639861106873
1772527264904051700,7.6770517578125,0.3808535039424896,-0.8775416612625122,0.4105566740036011
1772527264914033700,7.68703369140625,0.4275643825531006,-1.0518935918807983,0.19172805547714233
1772527264924015900,7.697015869140625,0.4210907816886902,-1.1649173498153687,-0.01795273646712303
1772527264933997600,7.70699755859375,0.3689865171909332,-1.011728286743164,-0.21417169272899628
1772527264943980800,7.716980712890625,0.2814161777496338,-0.5653995871543884,-0.43607640266418457
1772527264953962800,7.726962646484375,0.1791299283504486,0.06429876387119293,-0.7016751766204834
1772527264963944700,7.73694482421875,0.0855238288640976,0.7383346557617188,-0.9858571290969849
1772527264973926700,7.7469267578125,-0.008827605284750462,1.2962316274642944,-1.2468254566192627
1772527264983909600,7.75690966796875,-0.09480296820402145,1.648794412612915,-1.4587814807891846
1772527264993891800,7.766891845703125,-0.14356732368469238,1.7398113012313843,-1.5897846221923828
1772527265003873500,7.77687353515625,-0.14939138293266296,1.6022568941116333,-1.6204760074615479
1772527265013855700,7.786855712890625,-0.12630553543567657,1.2302536964416504,-1.5711313486099243
1772527265023838700,7.796838623046875,-0.10576510429382324,0.6533657908439636,-1.4484368562698364
1772527265033820700,7.806820556640625,-0.08269733190536499,-0.017656024545431137,-1.2403252124786377
1772527265043802600,7.816802734375,-0.07167504727840424,-0.59487384557724,-0.9285440444946289
1772527265053784600,7.82678466796875,-0.07896721363067627,-1.0017623901367188,-0.52165287733078
1772527265063766500,7.8367666015625,-0.0767677053809166,-1.1950030326843262,-0.06875250488519669
1772527265073749500,7.84674951171875,-0.008517177775502205,-1.158182144165039,0.3527032434940338
1772527265083731500,7.8567314453125,0.11508038640022278,-0.9832539558410645,0.6840226054191589
1772527265093713400,7.86671337890625,0.2726852595806122,-0.7645129561424255,0.8991020917892456
1772527265103695600,7.876695556640625,0.43637698888778687,-0.5569379329681396,1.018393874168396
1772527265113678300,7.88667822265625,0.5862710475921631,-0.3683348596096039,1.0863935947418213
1772527265123660500,7.89666064453125,0.6988461017608643,-0.13779191672801971,1.122816562652588
1772527265133642500,7.906642578125,0.7663152813911438,0.10445454716682434,1.1194653511047363
1772527265143624400,7.91662451171875,0.7637168765068054,0.22258251905441284,1.0429296493530273
1772527265153607700,7.926607666015625,0.6943950653076172,0.13718654215335846,0.9215807318687439
1772527265163589400,7.93658935546875,0.5630178451538086,-0.0017907756846398115,0.8118816614151001
1772527265173571600,7.946571533203125,0.4442955553531647,-0.036113545298576355,0.7776774764060974
1772527265183553500,7.956553466796875,0.3866572976112366,0.08275159448385239,0.8237016797065735
1772527265193536500,7.96653662109375,0.3714156448841095,0.308370441198349,0.9036456346511841
1772527265203518700,7.976518798828125,0.3386632800102234,0.5797414779663086,0.9607195854187012
1772527265213500400,7.98650048828125,0.26489073038101196,0.7886917591094971,0.983060896396637
1772527265223482600,7.996482666015625,0.16052357852458954,0.8160917162895203,0.9586551189422607
1772527265233465300,8.00646533203125,0.04912620037794113,0.6525944471359253,0.9003719687461853
1772527265243447600,8.016447509765625,0.022115355357527733,0.4478362500667572,0.8532454967498779
1772527265253429500,8.026429443359374,0.12313972413539886,0.33301347494125366,0.8466934561729431
1772527265263411500,8.036411376953126,0.31128621101379395,0.2554539442062378,0.8212096691131592
1772527265273394700,8.046394775390626,0.49468114972114563,0.1392325907945633,0.7324362993240356
1772527265283376400,8.05637646484375,0.6068561673164368,0.10076083242893219,0.6491587162017822
1772527265293358600,8.066358642578125,0.664635181427002,0.13923026621341705,0.6322290897369385
1772527265303340500,8.076340576171875,0.7047078013420105,0.16531166434288025,0.6921539306640625
1772527265313323500,8.086323486328125,0.8049691915512085,0.08353056758642197,0.8266885876655579
1772527265323305700,8.0963056640625,0.9267355799674988,-0.21642419695854187,0.9439286589622498
1772527265333287400,8.106287353515626,1.002884030342102,-0.6839829087257385,0.9959821105003357
1772527265343269600,8.11626953125,0.9459410905838013,-1.0743753910064697,0.8986092209815979
1772527265353251600,8.12625146484375,0.7736504673957825,-1.4011119604110718,0.6066121459007263
1772527265363234600,8.136234619140625,0.5797880291938782,-1.5627880096435547,0.18520787358283997
1772527265373216500,8.146216552734375,0.46483099460601807,-1.4849531650543213,-0.24705365300178528
1772527265383198500,8.156198486328124,0.4542686343193054,-1.267715334892273,-0.6410938501358032
1772527265393180700,8.1661806640625,0.5359519720077515,-0.9858512878417969,-0.960967481136322
1772527265403163400,8.176163330078126,0.6444339752197266,-0.6479424834251404,-1.2289658784866333
1772527265413145600,8.1861455078125,0.6838845014572144,-0.2267414927482605,-1.4499491453170776
1772527265423127300,8.196127197265625,0.6355036497116089,0.25341472029685974,-1.582748293876648
1772527265433109500,8.206109619140625,0.4939897954463959,0.6114664673805237,-1.583721399307251
1772527265443092500,8.216092529296875,0.3239000737667084,0.7246564030647278,-1.4575145244598389
1772527265453074400,8.226074462890624,0.13144885003566742,0.6388050317764282,-1.1922199726104736
1772527265463056600,8.236056640625,-0.12636829912662506,0.554468035697937,-0.8650637269020081
1772527265473038300,8.246038330078125,-0.4292973577976227,0.5816988945007324,-0.5781629681587219
1772527265483021600,8.256021484375,-0.6928136944770813,0.6693068146705627,-0.38631707429885864
1772527265493003500,8.26600341796875,-0.8027693033218384,0.7627608180046082,-0.27818354964256287
1772527265502985500,8.2759853515625,-0.7143661975860596,0.8288548588752747,-0.1885165125131607
1772527265512967700,8.2859677734375,-0.49332720041275024,0.8672747015953064,-0.052506059408187866
1772527265522950400,8.295950439453126,-0.22460226714611053,0.8999476432800293,0.17646187543869019
1772527265532932600,8.3059326171875,0.048582762479782104,0.9640896916389465,0.4881378710269928
1772527265542914600,8.31591455078125,0.2689441442489624,0.9699534177780151,0.8338992595672607
1772527265552896500,8.325896484375,0.3955569565296173,0.8734925389289856,1.1476085186004639
1772527265562878700,8.335878662109375,0.41746705770492554,0.6912705302238464,1.3838287591934204
1772527265572861400,8.345861328125,0.3579372465610504,0.4603767395019531,1.5270183086395264
1772527265582843600,8.35584375,0.2374129444360733,0.17134174704551697,1.5635102987289429
1772527265592825300,8.365825439453126,0.09087090194225311,-0.12613637745380402,1.501184344291687
1772527265602807600,8.3758076171875,-0.04790482670068741,-0.33032652735710144,1.3480099439620972
1772527265612790500,8.38579052734375,-0.14303232729434967,-0.3584038019180298,1.1550369262695312
1772527265622772500,8.3957724609375,-0.17824198305606842,-0.20227253437042236,0.9773392081260681
1772527265632754700,8.405754638671874,-0.1569519191980362,0.11346742510795593,0.8419978618621826
1772527265642736400,8.415736328125,-0.09831631183624268,0.5085918307304382,0.7402626872062683
1772527265652719600,8.4257197265625,-0.037878114730119705,0.8587161302566528,0.6669148802757263
1772527265662701600,8.43570166015625,0.03261948749423027,1.0516419410705566,0.6336354613304138
1772527265672683500,8.44568359375,0.12054500728845596,1.0351401567459106,0.647796094417572
1772527265682665500,8.45566552734375,0.19437475502490997,0.8995394110679626,0.7348388433456421
1772527265692648400,8.4656484375,0.22846415638923645,0.7420242428779602,0.8664575815200806
1772527265702630400,8.47563037109375,0.2212163656949997,0.5878597497940063,0.9782294034957886
1772527265712612600,8.485612548828126,0.1982412040233612,0.3935163915157318,1.01236093044281
1772527265722594600,8.495594482421875,0.18067872524261475,0.13249598443508148,1.0149972438812256
1772527265732576500,8.505576416015625,0.18133467435836792,-0.11086085438728333,1.0241822004318237
1772527265742559500,8.5155595703125,0.20853912830352783,-0.2353370040655136,1.0437418222427368
1772527265752541400,8.52554150390625,0.22799770534038544,-0.2108229696750641,0.9999642372131348
1772527265762523400,8.5355234375,0.17673051357269287,-0.05230950564146042,0.8554646372795105
1772527265772505600,8.545505615234376,0.07710227370262146,0.19288736581802368,0.632715106010437
1772527265782488600,8.555488525390626,-0.06321621686220169,0.43946439027786255,0.3673446774482727
1772527265792470500,8.565470458984375,-0.2109193056821823,0.5908524394035339,0.08316053450107574
1772527265802452500,8.575452392578125,-0.33905333280563354,0.598163366317749,-0.19788390398025513
1772527265812434400,8.585434326171875,-0.4045507311820984,0.49602943658828735,-0.47209638357162476
1772527265822417400,8.59541748046875,-0.4053691029548645,0.3689878582954407,-0.7724117636680603
1772527265832399600,8.605399658203124,-0.3580765128135681,0.2884127199649811,-1.149086833000183
1772527265842381600,8.615381591796876,-0.22658295929431915,0.38122761249542236,-1.5556899309158325
1772527265852363500,8.625363525390625,0.038919493556022644,0.6477150321006775,-1.8847572803497314
1772527265862346500,8.635346435546875,0.346187025308609,0.9974620938301086,-2.067476987838745
1772527265872328400,8.645328369140625,0.5807540416717529,1.2584741115570068,-2.0810654163360596
1772527265882310700,8.655310546875,0.7065298557281494,1.2620999813079834,-1.9295148849487305
1772527265892292600,8.665292724609374,0.6038141250610352,0.757824182510376,-1.4844858646392822
1772527265902274600,8.675274658203126,0.37870457768440247,-0.06690618395805359,-0.9834570288658142
1772527265912257500,8.685257568359376,0.1928001195192337,-0.6200926303863525,-0.4424517750740051
1772527265922239500,8.695239501953125,0.02777387574315071,-0.8924314379692078,0.06158340722322464
1772527265932221400,8.705221435546875,-0.07686876505613327,-0.8872028589248657,0.4085703194141388
1772527265942203600,8.71520361328125,-0.07106839865446091,-0.574124813079834,0.531952977180481
1772527265952186600,8.7251865234375,0.01341213658452034,-0.07165870070457458,0.4750502407550812
1772527265962168600,8.73516845703125,0.08210411667823792,0.45491111278533936,0.2817966341972351
1772527265972150500,8.745150634765626,0.13412748277187347,0.8510765433311462,0.05922355130314827
1772527265982132500,8.755132568359375,0.17754925787448883,1.0406627655029297,-0.12008920311927795
1772527265992115500,8.765115478515625,0.2125980705022812,1.063192367553711,-0.24259597063064575
1772527266002097700,8.77509765625,0.27703753113746643,0.9583328366279602,-0.2633169889450073
1772527266012079400,8.785079345703124,0.19291454553604126,0.5526725649833679,-0.14468207955360413
