time,seconds_elapsed,z,y,x
1772527283786705200,0.087705078125,0.5064847102820873,1.6872539987623691,1.1487510790593922
1772527283796688100,0.097688232421875,2.1933932566076515,2.459295186835527,1.0970964412763715
1772527283806670000,0.107670166015625,3.5405823568224903,3.0728391728669404,0.8238752010110765
1772527283816652000,0.117652099609375,4.139209344229102,3.0327468164533373,0.9549476589020341
1772527283826634200,0.12763427734375,3.08197817261219,2.3201614414334295,1.947176562319696
1772527283836616000,0.137615966796875,2.4589666855335235,1.6968126852244139,2.634931155204773
1772527283846598100,0.14759814453125,1.6876245856404304,1.2397194900989532,2.313609681702405
1772527283856580400,0.157580322265625,1.6332102738857268,0.718448714095354,1.539096842818707
1772527283866563000,0.16756298828125,2.3029537015229464,0.6548848812013864,0.5644102450281381
1772527283876545300,0.177545166015625,2.7088217363238334,0.6668284169733524,-0.10388507529315538
1772527283886527000,0.18752685546875,3.06465294380188,0.9074246410310268,-1.092950573643297
1772527283896509200,0.19750927734375,3.1898499337881803,1.591661288923025,-1.8829047272868453
1772527283906491100,0.2074912109375,3.217465085944533,1.9365496621042488,-1.8404307364337145
1772527283916473000,0.21747314453125,3.000037556028366,1.6605477781444786,-1.1828078085705638
1772527283926455300,0.227455322265625,2.9479204153001306,1.3608768493056296,-0.28338658738359807
1772527283936437200,0.237437255859375,3.171335787454247,1.0106903697162866,0.43459911230988796
1772527283946420200,0.247420166015625,3.2266596152693032,0.5055646728277207,0.8873943910457194
1772527283956402200,0.257402099609375,2.76502117792964,-0.2540624393522739,1.4137687737986444
1772527283966384000,0.267384033203125,2.2947230487942694,-0.8897732490062713,2.158539823760837
1772527283976366000,0.277365966796875,2.01668702865839,-1.3155115209251642,2.683814136317372
1772527283986348000,0.28734814453125,1.8082155431360005,-1.2643705317527054,2.5263416011482476
1772527283996330000,0.297330078125,1.6578379346638916,-0.5407531828477978,1.696392706246674
1772527284006312200,0.307312255859375,1.4683978973478078,0.5003334941759705,0.6606362843349576
1772527284016295200,0.317295166015625,1.6560329310685395,1.333897072443366,-0.0634165333777666
1772527284026277000,0.327277099609375,2.162483154559135,1.4634654093816875,-0.3162480426955968
1772527284036259000,0.337259033203125,2.8324381791204214,1.2291995573893189,-0.27667386493720114
1772527284046241000,0.347240966796875,3.7440637789726257,0.9417264313444494,-0.3351430781058967
1772527284056223200,0.35722314453125,4.682327794903516,0.5625505886361003,-0.4630999247269705
1772527284066204700,0.36720458984375,5.2518298101127145,0.16132658024877308,-0.7788154314484447
1772527284076186600,0.3771865234375,5.2799038119524715,-0.1346215286746621,-1.215341931624338
1772527284086168800,0.3871689453125,4.9645489917695516,0.13942016112804412,-1.4136051076695322
1772527284096151800,0.39715185546875,4.282521836620569,1.1929138997823,-0.9973521647155285
1772527284106133800,0.4071337890625,2.9427596715360878,2.02744807664752,-0.5516073524804785
1772527284116115700,0.41711572265625,1.5758844585984944,2.41779354814589,-0.1457993590374477
1772527284126097700,0.42709765625,0.24353753820657728,2.689575768584013,0.04937502067955211
1772527284136080000,0.437079833984375,-1.0089952562361955,2.4920105847403407,0.0007689385458827018
1772527284146061600,0.4470615234375,-1.9706828178524969,1.9419474294945596,-0.4027311615472659
1772527284156043800,0.457043701171875,-2.8667373390853403,1.1955185293227433,-0.9483874966688454
1772527284166026000,0.46702587890625,-3.5085248383045196,0.37685119915306564,-1.6750510814018547
1772527284176008700,0.4770087890625,-4.105266158095002,-0.41816666762083765,-2.423880320713669
1772527284185991000,0.486990966796875,-5.250771825492381,-0.9124483144119382,-3.3492107669219373
1772527284195972600,0.49697265625,-8.358234567973017,-0.9836651462770998,-4.18401908455342
1772527284205954800,0.506954833984375,-14.150573523044585,-0.6062661039829254,-3.6511285979047416
1772527284215936800,0.516936767578125,-21.58919441502094,1.115322126057744,-1.8648855248630045
1772527284225918700,0.526918701171875,-28.85827824002504,3.521330543863773,-0.5587857196772471
1772527284235901000,0.53690087890625,-33.873085592913625,5.7302048627197735,-0.36157183348927646
1772527284245882600,0.546882568359375,-35.5906493897438,6.053999009945988,-1.0444364258430898
1772527284255865900,0.556865966796875,-33.15387349323034,5.060238732242584,-1.1008137082338332
1772527284265847800,0.566847900390625,-26.467611768257616,3.974764047437906,-0.5560465405043215
1772527284275829800,0.576829833984375,-17.786082234752175,2.939120730511844,0.4153036794051528
1772527284285811700,0.586811767578125,-9.097328010690212,1.9658947067931294,2.4422664567537606
1772527284295793700,0.596793701171875,-2.238782550385594,0.06661620620191097,6.301513050568103
1772527284305775900,0.60677587890625,3.2252468258619307,-3.10171952265352,8.566192843276262
1772527284315757800,0.6167578125,9.597889760664104,-5.676797097659111,7.763512771311402
1772527284325740800,0.62674072265625,15.291075098544358,-7.865877167242765,4.672915531174838
1772527284335722800,0.63672265625,19.07706897075176,-9.350285703670979,-0.8448072221416979
1772527284345704700,0.64670458984375,20.80080064256191,-8.479730365353822,-5.504271370264887
1772527284355686700,0.656686767578125,19.634286673927306,-7.031135485106706,-8.257392851564287
1772527284365668900,0.6666689453125,16.298578070396182,-5.881667343819141,-9.712123458087444
1772527284375650800,0.67665087890625,12.692842565661667,-3.5346781012147663,-9.038484192055463
1772527284385632800,0.6866328125,10.18356841917038,-0.6698761141061782,-6.85794398728013
1772527284395615000,0.696614990234375,8.626723592084646,1.780370089355111,-4.349435856725275
1772527284405597700,0.70659765625,7.137163079720735,3.7468613007366653,-2.197239556772262
1772527284415580000,0.716579833984375,6.214079097265005,5.713863384249806,-1.0310732325315475
1772527284425561600,0.7265615234375,6.417063675808906,6.810715203115343,-0.7040847462434321
1772527284435543800,0.736543701171875,6.967215678381919,6.469018319451808,-1.47754186552912
1772527284445525800,0.74652587890625,6.917448900172114,5.565836138296127,-3.2850957298859953
1772527284455507700,0.7565078125,5.442250090637803,4.748987255725265,-4.477397927510738
1772527284465490000,0.766489990234375,2.515204121062159,4.174014407889545,-4.244803515861928
1772527284475472600,0.77647265625,-0.7195581366419792,3.7822166917562483,-3.0682170660242436
1772527284485454800,0.786454833984375,-3.0072160693556067,3.4633506485819816,-1.6384243552722035
1772527284495436500,0.7964365234375,-3.616293139106035,3.246758984968066,-0.7496984233617782
1772527284505418800,0.806418701171875,-2.6611206584721803,2.829447180610895,-0.49011013326011593
1772527284515400700,0.816400634765625,-0.6928074923604727,1.8813292946636675,-1.5972903808511794
1772527284525382700,0.826382568359375,1.99712308101058,1.0410933990254998,-3.2400179862752556
1772527284535364900,0.83636474609375,4.229547786802053,0.6005912732169032,-3.4509745666116474
1772527284545346800,0.846346923828125,4.93516040019989,0.5752380746431648,-2.386922755194455
1772527284555329800,0.856329833984375,4.511254019883275,0.9206434574358164,-1.0081284102737904
1772527284565311700,0.866311767578125,3.8296278467506166,1.2141811442166566,0.1361844306098297
1772527284575293700,0.876293701171875,3.485711533471942,1.427207224303484,0.7751714489229024
1772527284585275600,0.886275634765625,3.5089907022505997,1.5905867915593086,0.916508695718646
1772527284595257900,0.8962578125,3.8138995317429303,1.5733112471096218,0.7811318186320364
1772527284605239800,0.90623974609375,4.491914528641105,1.5776733878418803,0.36325280884616074
1772527284615221800,0.9162216796875,5.199899716389179,1.7463968003436923,0.08621288707554339
1772527284625204000,0.926203857421875,5.868619061675667,2.0356335750602184,0.09994988213554024
1772527284635186700,0.936186767578125,6.421939757412671,2.5112054068148133,0.4005782578296959
1772527284645169000,0.9461689453125,6.710288497248292,2.9585698196083308,1.0679864474523812
1772527284655150600,0.956150634765625,6.940051192602515,3.3127941764116287,2.1262747999720273
1772527284665132800,0.9661328125,7.3712319478362796,3.66424234649986,3.0214187822312115
1772527284675114800,0.97611474609375,8.449776541116833,3.9854160820946096,3.8120992043226956
1772527284685096700,0.9860966796875,9.726073072984814,4.025555492520332,4.0458886709749695
1772527284695079000,0.996078857421875,11.439577365291118,3.9321646766394376,4.0059260784208774
1772527284705060600,1.006060546875,13.909565795576572,3.3818794030755757,4.765167113892733
1772527284715043800,1.0160439453125,16.022589045917986,2.482858140991628,6.329451443329453
1772527284725025500,1.026025634765625,16.39370199368,0.45752106514871116,7.873654230985045
1772527284735007700,1.0360078125,14.652591317045689,-2.5941364957407114,6.953252619481086
1772527284744990000,1.045989990234375,8.756683266428112,-4.201078355903923,3.358307388830185
1772527284754971600,1.0559716796875,-2.1306150211334227,-2.955380375917256,0.22115940992087124
1772527284764953900,1.065953857421875,-16.848061379927397,0.6209279588028788,-1.041820251995325
1772527284774935800,1.075935791015625,-32.93420782899857,5.020063373720646,-0.6739113609716296
1772527284784917800,1.085917724609375,-44.57163182542324,8.102863968631624,2.248549911162257
1772527284794900700,1.095900634765625,-47.761012388134,7.522733007380366,6.987866836744547
1772527284804882700,1.105882568359375,-42.677144943022725,4.397663881060481,8.455907591217755
1772527284814865000,1.115864990234375,-33.67461469240188,-0.45021775639802214,6.10824790200591
1772527284824846800,1.125846923828125,-23.660576325941083,-5.997892507320642,0.9446228834383189
1772527284834828800,1.135828857421875,-13.264347152864932,-10.880679746204613,-4.607994730713963
1772527284844810800,1.145810791015625,-5.14409658062458,-13.197772447717188,-5.823211063197255
1772527284854793000,1.15579296875,-0.5382973141282796,-12.520572274333238,-4.138603195029497
1772527284864774700,1.165774658203125,1.6791566170245409,-10.74689320704937,-3.371803999263048
1772527284874758000,1.1757578125,2.531648475384712,-8.849589513662456,-3.5597646116763353
1772527284884739800,1.18573974609375,2.7386761918395757,-7.487687412962317,-4.059164039872586
1772527284894721800,1.1957216796875,2.7507226034641263,-5.905753737327456,-4.3615120789662
1772527284904703700,1.205703857421875,2.7475626781284808,-4.446159616421163,-4.131791761448979
1772527284914685700,1.215685791015625,3.1946032657951116,-2.7227392025172708,-3.6459625934436914
1772527284924668000,1.22566796875,2.82664030649662,-0.8238695749878883,-2.4935394017428156
1772527284934649600,1.235649658203125,0.748880092716217,1.0056519371576607,-0.5352499092563986
1772527284944631800,1.2456318359375,-1.8227309752225875,2.192774832448363,1.037513786973059
1772527284954614800,1.25561474609375,-2.9993875676870343,2.879092086006701,1.3080246723011135
1772527284964596700,1.2655966796875,-2.2376713742733,3.088360274864733,1.0396225958205758
1772527284974579000,1.275578857421875,0.4910772977918386,3.163073862804472,0.662442749235034
1772527284984560600,1.285560546875,4.098140836259723,2.8271166918367148,0.21059432289525865
1772527284994542800,1.29554296875,7.662351905950904,2.5442981135994196,-0.4083348633058369
1772527285004524800,1.30552490234375,10.62995609588623,2.3568841752834615,-1.0948846104457974
1772527285014506800,1.3155068359375,12.64807871030569,2.1124176856637,-1.8565268618404864
1772527285024488700,1.32548876953125,13.275015846395492,1.8986875489607453,-2.5126748948454853
1772527285034471700,1.3354716796875,12.838174581182002,2.0171235203795135,-2.999847878675163
1772527285044454000,1.345453857421875,11.91468260244727,2.3430337829768657,-3.0787469356060027
1772527285054435800,1.355435791015625,10.826047992306947,2.7730186064243316,-2.776206588810682
1772527285064418600,1.36541845703125,9.789610602393745,3.30028686927706,-2.3218239678181707
1772527285074400500,1.375400390625,8.485190968847274,3.6760336143195627,-1.7710092635527253
1772527285084382500,1.385382568359375,7.113460717093944,3.9284360115051267,-1.2970529041707515
1772527285094364400,1.395364501953125,6.129373107621073,4.227329526230693,-1.0301157126110045
1772527285104346600,1.4053466796875,5.691661489313841,4.383872671595215,-0.778960758203268
1772527285114329600,1.41532958984375,5.484803284206986,4.429161427608132,-0.5636666601192206
1772527285124311600,1.4253115234375,5.47720683772862,4.304184217852354,-0.3938732802983373
1772527285134293500,1.43529345703125,5.522596716028452,4.127079930496215,-0.3192674635820091
1772527285144275500,1.445275390625,5.3622956794351335,3.8843887799859043,-0.3878879222784191
1772527285154257400,1.45525732421875,5.127959684816003,3.5237680001437663,-0.5215813032574952
1772527285164239400,1.4652392578125,4.915668933266401,3.3107799139797685,-0.536110544673726
1772527285174221600,1.4752216796875,4.358944566565752,3.1078540798857808,-0.28263160429783163
1772527285184204500,1.48520458984375,2.9109570045620203,2.4186565947160124,0.6199403360050171
1772527285194186500,1.4951865234375,1.25214642547369,1.5034458298534155,2.2104192102104423
1772527285204168400,1.50516845703125,0.2610638425469398,0.00023614684343338012,3.857707109287381
1772527285214150400,1.515150390625,0.3759942900627851,-1.6139301116153597,5.038231483095884
1772527285224132600,1.525132568359375,0.7483575301468371,-3.2835134291306134,6.012371114528179
1772527285234114300,1.5351142578125,0.3900292451560497,-5.1602808227062225,6.88916330140829
1772527285244096500,1.545096435546875,-0.4129781590670347,-6.976644016462564,7.335003865635395
1772527285254078700,1.55507861328125,-1.6341747350037097,-8.327741814553738,7.429383108031749
1772527285264061400,1.5650615234375,-2.6749878557831046,-7.903115887790918,7.145050618100166
1772527285274043600,1.575043701171875,-5.305528667074442,-6.886339476159215,7.5616574890583745
1772527285284025300,1.585025390625,-9.496254263529181,-6.557523116856813,8.278623271119594
1772527285294007600,1.595007568359375,-10.532386533015966,-5.345721561253071,7.143248537114262
1772527285303989500,1.604989501953125,-7.520404272171855,-4.169406037311256,3.8677877737969157
1772527285313971500,1.614971435546875,-2.550574709650874,-3.093138156791031,-0.45670478032976386
1772527285323953700,1.62495361328125,2.177321827250719,-1.3624433679699897,-2.71049726832062
1772527285333935600,1.634935546875,3.775900348216295,1.4409066638320684,-1.723724073025584
1772527285343918600,1.644918701171875,0.885939369931817,4.5233498236075045,0.5719343569226563
1772527285353900500,1.654900634765625,-4.3340608851999045,7.895825730782747,2.45440332314074
1772527285363882500,1.664882568359375,-10.34778166077137,9.973515801936388,3.9527269876748323
1772527285373864400,1.674864501953125,-15.97164913227558,9.90508231717944,4.153447712939977
1772527285383846400,1.684846435546875,-19.182514381563664,8.329722174715995,2.658908827641606
1772527285393828600,1.69482861328125,-19.056582647562024,6.514854772475362,0.38779564088508484
1772527285403810600,1.704810546875,-16.384221048629282,4.693869179615378,-1.9742000321932136
1772527285413792500,1.71479248046875,-11.521118168902396,2.987471212182939,-4.74830511868
1772527285423775500,1.724775390625,-5.243853424406051,1.410514009786397,-6.776018568265438
1772527285433757400,1.73475732421875,0.748652713701129,0.574002249237895,-6.8122086565434925
1772527285443739400,1.744739501953125,4.674967495268583,0.47897184945642945,-5.357321398153901
1772527285453721600,1.7547216796875,6.144053374880552,0.8441980772674084,-3.6500846418097614
1772527285463703600,1.76470361328125,5.8227153886348,1.3401175543934105,-2.5364877321094275
1772527285473685500,1.774685546875,4.646893493428826,1.5643394206248222,-2.373059795667231
1772527285483667700,1.784667724609375,3.464198205322027,1.5335834862247109,-2.7054525521516797
1772527285493650400,1.794650390625,2.8653736495167017,1.4907975068129597,-3.0200761354506014
1772527285503632600,1.804632568359375,3.0726895352631804,1.5098923756442963,-3.177927440804243
1772527285513614300,1.8146142578125,3.8218887769311665,1.496097366786748,-3.279096197210252
1772527285523596500,1.824596435546875,4.894780459016562,1.4928503476895392,-3.4006381718203422
1772527285533578800,1.834578857421875,6.038170741695165,1.655510806890577,-3.2424425830736756
1772527285543560400,1.844560546875,7.004240463918447,1.998724232596904,-2.9217057775914665
1772527285553542700,1.854542724609375,7.679551462554931,2.336471940243244,-2.8313611975386737
1772527285563524600,1.864524658203125,8.01024062999189,2.6157199665173887,-2.858786964602768
1772527285573507600,1.874507568359375,8.208174354887008,2.89543122638911,-2.716616335722804
1772527285583489500,1.884489501953125,8.288269635865092,3.0620550362631676,-2.6037802301377058
1772527285593471500,1.894471435546875,8.231181720986962,3.1714713965326546,-2.6612317176312206
1772527285603453400,1.904453369140625,8.148705682352185,3.131106360657513,-2.8063936372816563
1772527285613435400,1.914435302734375,7.813136341658234,2.8284932408869263,-3.1064217089951036
1772527285623417600,1.92441748046875,7.454387785428762,2.5418641644507645,-3.4754762629225846
1772527285633399600,1.934399658203125,6.923212286004424,2.31212251188457,-3.54039706338346
1772527285643381500,1.944381591796875,5.8417070893526075,1.9719050531238316,-3.129884417647123
1772527285653364500,1.954364501953125,4.515625074574351,1.6615402963131665,-2.6022321239128705
1772527285663346400,1.964346435546875,3.3633389532566067,1.0494093919500709,-1.9445637494727968
1772527285673328400,1.974328369140625,2.1398148111552,-0.09459726906120776,-1.0734927167184651
1772527285683310600,1.984310546875,0.4789525602340698,-1.8926517759278416,0.0017481588415801524
1772527285693292500,1.99429248046875,-1.1963742693692445,-4.56103891827166,1.061053944775462
1772527285703274500,2.0042744140625,-2.4427076246500015,-7.329177351438998,1.0170758329696952
1772527285713256700,2.014256591796875,-3.931528132301569,-9.104572574990987,0.11046455414816736
1772527285723238400,2.02423828125,-6.737963855159283,-9.828329916888475,0.015715017134696245
1772527285733221600,2.0342216796875,-11.008557938098907,-8.605738087201118,0.5203669590316713
1772527285743203300,2.044203369140625,-15.854408069729804,-6.4845537422358985,2.2304354316703976
1772527285753185500,2.054185546875,-18.159149823713303,-5.57399957100749,4.698009932681918
1772527285763167700,2.064167724609375,-16.616153489238023,-5.261763175106048,5.985580138236284
1772527285773149400,2.0741494140625,-11.66930382028818,-4.668164537255466,4.509623203811049
1772527285783131600,2.084131591796875,-5.121396088516712,-4.35906819294542,2.2608470826774836
1772527285793113300,2.09411328125,-0.656340340706706,-4.645193996034562,2.7927535267248746
1772527285803095600,2.104095458984375,1.057954225194454,-3.511737078349292,4.293592681211233
1772527285813078500,2.11407861328125,2.2013065139502284,-1.8773995539993047,5.054981542366742
1772527285823060500,2.124060546875,3.6975820137828586,-0.8101409093648195,4.891133042424917
1772527285833042700,2.134042724609375,4.404654178339243,-0.29951076984107494,3.4372330415070054
1772527285843024400,2.1440244140625,3.813051975002885,-0.29173136801123617,1.2376442912600933
1772527285853006600,2.154006591796875,1.9792162529200314,0.025073797110468147,-0.4407971632324159
1772527285862988500,2.163988525390625,-1.2867957140505313,1.0766589256644248,-1.1587547328099608
1772527285872970500,2.173970458984375,-4.865589435845613,2.474670450621843,-1.2990629288189113
1772527285882953500,2.183953369140625,-7.6430001397490495,3.5981326285153625,-0.8279308330774307
1772527285892935400,2.193935302734375,-9.069074560630321,4.083650830875337,0.03645663025975227
1772527285902917600,2.203917724609375,-8.683047536852955,4.017960799607635,0.5191517380230128
1772527285912899600,2.213899658203125,-6.568817248809337,3.7535844715118407,0.4448074217870831
1772527285922881500,2.223881591796875,-3.8189790269643065,3.209195562510192,0.015400836618989704
1772527285932863500,2.233863525390625,-1.1695178266257047,2.619797883480787,-0.5472450290851295
1772527285942845700,2.243845703125,1.3288929805457592,2.071936037671566,-1.2148152043364941
1772527285952827400,2.253827392578125,3.4843297237247226,1.4947032820798456,-1.8542089402869342
1772527285962810600,2.263810546875,5.055553204774856,1.0603376131996511,-2.5139228490799663
1772527285972792600,2.27379248046875,6.092350660172104,0.7136589956007897,-3.178787272503972
1772527285982774500,2.2837744140625,6.800859579533338,0.5449857058510184,-3.6706045750081535
1772527285992756500,2.293756591796875,7.365204358109831,0.6010689737312496,-3.941187064267695
1772527286002738400,2.303738525390625,7.728890955263376,0.8057558261483907,-3.969724299705028
1772527286012720600,2.313720703125,7.870738635799288,1.1809633497476577,-3.6577713969200847
1772527286022702300,2.323702392578125,7.692574610257148,1.715842672125995,-3.2961198127254843
1772527286032684500,2.3336845703125,7.209964696559309,2.309526650172472,-2.933604012916982
1772527286042667500,2.34366748046875,6.74511138882637,2.906007565461099,-2.5658108572274445
1772527286052649500,2.3536494140625,6.408374173396825,3.512026124423742,-2.240981083343178
1772527286062631400,2.36363134765625,6.036303778779506,3.976054671770334,-2.0503351773686704
1772527286072613000,2.373613037109375,5.567958537277579,4.279802348528802,-1.998932906911522
1772527286082595300,2.38359521484375,5.198672804942727,4.530225262334943,-2.0290875144176184
1772527286092577300,2.393577392578125,4.909785720446705,4.793091478128731,-2.22029003136158
1772527286102559200,2.403559326171875,4.87143290117681,4.934053900262713,-2.333784308594465
1772527286112542200,2.413542236328125,5.048681565439701,4.693154309344291,-2.2819044837534426
1772527286122524200,2.423524169921875,4.990743171212077,4.099644226559996,-2.158652782616019
1772527286132506400,2.43350634765625,4.895870007818937,3.5331799716114998,-2.0618898599535225
1772527286142488300,2.44348828125,4.721541030395031,2.940799185118079,-1.9335417124599217
1772527286152470300,2.45347021484375,3.5958407181859013,1.8014824354887007,-1.4555492294296621
1772527286162452200,2.4634521484375,1.4291735559403895,0.7827849926665424,-0.8452215750962495
1772527286172434400,2.473434326171875,-1.3303840958863495,-0.2633500537879765,-0.3772458975590765
1772527286182416100,2.483416015625,-4.287124361979961,-0.784072694389522,-0.1573247972615063
1772527286192399400,2.4933994140625,-7.80066732070744,-0.7686186662785709,0.5647346546769142
1772527286202381300,2.50338134765625,-11.434051295346022,-0.8469624274142086,2.1988668657131494
1772527286212363300,2.51336328125,-13.315166654998063,-0.8440329498335719,3.6420308069527145
1772527286222345500,2.523345458984375,-12.266750657999514,-1.089707061677426,4.188707826891541
1772527286232327200,2.5333271484375,-10.265705435109139,-2.5783845075964926,4.217371026796102
1772527286242309400,2.543309326171875,-8.40280260849595,-5.012361713302135,4.422065331867337
1772527286252291300,2.553291259765625,-6.355654390600323,-7.131933362373709,4.2885608245238656
1772527286262273300,2.563273193359375,-4.3104415246814485,-8.06267984228134,3.8331624506175515
1772527286272256300,2.57325634765625,-2.9960943713605404,-7.68615539086461,3.461430494174361
1772527286282238200,2.58323828125,-2.4850264249414202,-6.366432389724254,2.697082198691368
1772527286292220400,2.593220458984375,-2.449280573299527,-4.841857847124338,2.2048162756368517
1772527286302202000,2.6032021484375,-3.316627470964193,-3.22093100848943,2.4742168616354463
1772527286312184300,2.613184326171875,-4.971636319682002,-1.5843560804761945,2.7308389223426577
1772527286322166300,2.623166259765625,-6.20280542357862,-0.2884438707731664,2.681080911961198
1772527286332148200,2.633148193359375,-6.392299821430444,0.41965179161205884,2.3114786610230804
1772527286342130200,2.643130126953125,-5.596273362135887,0.554048425489664,1.5564786241218447
1772527286352113200,2.653113037109375,-4.034335011303424,0.26182160211168226,0.5975657148506492
1772527286362095400,2.663095458984375,-2.206632677409053,-0.22229155575595794,-0.25452545375414193
1772527286372077300,2.673077392578125,-0.5390308890998363,-0.6602943390294909,-0.47025728566832836
1772527286382059300,2.683059326171875,0.645314504301548,-1.0214838586702941,-0.007256693129986524
1772527286392041200,2.693041259765625,1.1826315752208232,-1.2548834492221475,0.3530207531671971
1772527286402023400,2.7030234375,1.1931933012455702,-1.3233394380718468,0.31836393887102604
1772527286412005000,2.713005126953125,1.0184025515288113,-1.151850067988038,0.09288162424974143
1772527286421988400,2.72298828125,0.7414309457540512,-0.7810186405811458,0.06293306070975958
1772527286431970300,2.73297021484375,0.42731414293348785,-0.3844300369095057,0.35072807565275577
1772527286441952300,2.7429521484375,0.1440612649321556,-0.04746456568203866,0.5356899446414783
1772527286451934500,2.7529345703125,0.04359890322983265,0.2491558164797723,0.25745354309529067
1772527286461916200,2.762916259765625,0.30169220553338527,0.33389000930488105,-0.4250202598426491
1772527286471898400,2.7728984375,1.0445125598192215,0.3932894159957766,-1.2556556026384234
1772527286481880000,2.782880126953125,2.0943390081375837,0.6025735330753028,-1.8421552221387623
1772527286491862300,2.7928623046875,3.122558604803681,0.9330800374217331,-2.016167096437514
1772527286501845200,2.80284521484375,4.035503470560908,1.392417065951228,-1.8401690167576072
1772527286511827200,2.8128271484375,4.866512980431318,1.9036124381422996,-1.5435507534876465
1772527286521809400,2.822809326171875,5.592703686955571,2.4408970680966973,-1.1543001645538955
1772527286531791000,2.832791015625,6.078243224364519,2.912102082943916,-0.7285995212316513
1772527286541773300,2.842773193359375,6.1637424102127545,3.245198019261658,-0.3525240556914359
1772527286551755300,2.85275537109375,6.102068336588144,3.423159215708077,-0.11321619094386697
1772527286561737200,2.8627373046875,6.070145258104801,3.433950074313581,0.1035883117031306
1772527286571719200,2.87271923828125,6.023694472575188,3.3036259505718943,0.3266630537260324
1772527286581702100,2.8827021484375,5.936514201772213,2.9933333822146055,0.3511033021733165
1772527286591684400,2.892684326171875,5.668235021018981,2.6142320660471916,0.07165273906439543
1772527286601666300,2.902666259765625,4.894568862092495,2.2397665929868817,-0.014893179357796906
1772527286611648300,2.912648193359375,2.982532878997922,1.47959295284003,0.8797586354702711
1772527286621630200,2.922630126953125,0.4105068005174398,0.34163463208228345,2.2739197686098516
1772527286631612400,2.9326123046875,-1.5879887378901243,-0.5537246003627777,3.13924290536195
1772527286641594000,2.942593994140625,-2.824379960349202,-0.9308809199422597,2.9467028562039137
1772527286651577300,2.952577392578125,-3.8608910000205037,-1.1232213548749685,2.0339343699268997
1772527286661559300,2.962559326171875,-5.218699693927168,-1.4328288635775446,1.332212041965872
1772527286671541200,2.972541259765625,-6.940968891969323,-1.0147080809250473,0.9517920444153248
1772527286681523200,2.982523193359375,-9.444579021349549,0.29919015958458184,0.20834771301224828
1772527286691505200,2.992505126953125,-12.065310386288166,1.2788643365293741,-0.24627076256275177
1772527286701487400,3.0024873046875,-12.902135304439067,1.17243575989902,0.5668893484927714
1772527286711469000,3.012468994140625,-10.718909806102513,0.8396066578239202,1.3177186755806207
1772527286721451300,3.022451171875,-6.052342474910617,0.5835469071745872,1.2891330709569155
1772527286731433200,3.03243310546875,-1.0268979926735162,0.27709201728403565,0.9166888745911419
1772527286741416200,3.042416259765625,2.912254058635235,-0.0600835895627737,0.5879505489610135
1772527286751398400,3.0523984375,5.29805321662724,-0.4746913956582546,0.17695377296954393
1772527286761380000,3.062380126953125,6.308698578158021,-0.4554898515820503,-0.16030162111520765
1772527286771362300,3.0723623046875,6.5752522502928965,0.20282325050234792,-0.13116817335039377
1772527286781344300,3.08234423828125,6.39439767049253,1.034571011519432,-0.24897943699955938
1772527286791326200,3.092326171875,6.074084935641288,1.8597288727521895,-0.9065005119234323
1772527286801308200,3.10230810546875,5.778731285479664,2.4485750553786754,-2.0689953080445527
1772527286811291100,3.112291015625,5.419788667982816,2.7307594273656606,-3.338176454949379
1772527286821273300,3.1222734375,4.8474791941374535,3.093744305990636,-4.034175729088485
1772527286831255300,3.13225537109375,3.748171214291453,3.5571231572568416,-3.8049288743019103
1772527286841237200,3.1422373046875,2.2030092262148857,3.9858825305625794,-2.898482138392329
1772527286851219200,3.15221923828125,0.5745359177231788,4.209372136996686,-1.671033370193094
1772527286861201400,3.162201416015625,-0.7415928583174943,4.08901732634455,-0.4111661046763882
1772527286871183000,3.17218310546875,-1.573966057756543,3.6970600357353685,0.6554322128858416
1772527286881165300,3.182165283203125,-1.747503008019924,3.1430002120688556,1.4179172717802226
1772527286891147300,3.192147216796875,-1.2857231163829563,2.5693074671715497,1.7885611407257616
1772527286901130200,3.202130126953125,-0.4941320091873407,2.058745570578426,1.7757202177226543
1772527286911112200,3.2121123046875,0.4571627532303333,1.7618362154074012,1.493461611455679
1772527286921094100,3.22209423828125,1.5236159267008305,1.5583810967423022,1.0986734082695095
1772527286931076400,3.232076416015625,2.4331916082859038,1.2828316327251492,0.7297041214726865
1772527286941058000,3.24205810546875,2.9869045182108875,0.9545629704333841,0.47998566614147276
1772527286951040300,3.252040283203125,3.2017408625900745,0.7283920159608125,0.17215996282175183
1772527286961022500,3.2620224609375,3.1361072376847265,0.4995515500180423,-0.33546683016754686
1772527286971005200,3.272005126953125,3.0903514486819503,0.4397146286927163,-0.7677764433007687
1772527286980987400,3.2819873046875,3.2414713999539613,0.4511043299742043,-0.8944473052319138
1772527286990969000,3.291968994140625,3.580875204244256,0.4473248114354908,-0.8704877529736608
1772527287000951300,3.301951416015625,3.9338597901195285,0.4023103423193097,-0.7253134122330694
1772527287010933200,3.311933349609375,4.200432166954875,0.21494944936484098,-0.5687043620254844
1772527287020915200,3.321915283203125,4.349357238531113,-0.10600275243371725,-0.3061616060324013
1772527287030897400,3.3318974609375,4.344125767618418,-0.4907543494477868,0.07723050266411155
1772527287040879400,3.34187939453125,4.041393697643279,-1.0299445207625626,0.4658052746955305
1772527287050862300,3.3518623046875,3.4243612849742173,-1.7698834743931888,0.9468608716234564
1772527287060844300,3.36184423828125,2.488451723214984,-2.9045930224880574,1.7129022347599268
1772527287070825700,3.37182568359375,1.4563210905849933,-4.467580590112507,2.5726564853385088
1772527287080808000,3.381807861328125,0.4629834222078323,-6.307406200259924,2.943531824952364
1772527287090790000,3.391789794921875,-0.8257569961696862,-8.589913910603522,2.564279117615521
1772527287100771800,3.401771728515625,-2.8019144460409877,-10.974863758289814,2.2030054268226027
1772527287110753800,3.41175390625,-5.436501902374625,-12.746135764431953,1.8700475838012993
1772527287120736000,3.421736083984375,-8.610147720336913,-13.194267654466628,0.551105650036037
1772527287130718700,3.43171875,-12.281847689366339,-12.38268823673129,-1.7823475269079208
1772527287140701000,3.441700927734375,-15.820622704505919,-10.870553488987683,-3.1980718186885118
1772527287150683000,3.451682861328125,-18.277017493724824,-8.212707906663418,-3.527007420456409
1772527287160664800,3.461664794921875,-18.780695329892634,-5.7618315886050455,-1.6793609074249862
1772527287170646800,3.471646728515625,-18.09199527285099,-3.7405800285100934,1.124511102424562
1772527287180628700,3.481628662109375,-16.291604724252224,-1.3014853336602448,2.7695906778022645
1772527287190611000,3.49161083984375,-13.382888192093372,0.9188210643142461,3.764265147741139
1772527287200592600,3.501592529296875,-9.409598893383144,2.658413153079152,3.933927594658732
1772527287210574800,3.511574951171875,-5.353560584315657,3.1307261291682718,4.090028841474652
1772527287220557600,3.5215576171875,-2.683365223506093,2.6092969477325676,4.096409774683416
1772527287230539800,3.531539794921875,-1.9276374568521975,1.7468688017696141,3.5404902946248646
1772527287240522000,3.54152197265625,-1.736117106130719,1.2240583951085806,3.0336861431300637
1772527287250503700,3.551503662109375,-1.0355196905463933,0.9854816941797733,2.945716767776012
1772527287260486000,3.56148583984375,0.08335574407875537,0.822421129745245,2.992172814002633
1772527287270467800,3.5714677734375,1.3261831370651722,0.6610638620972633,3.127676678469777
1772527287280449800,3.58144970703125,2.7394723106533285,0.6872247237920761,3.2807278900653123
1772527287290431700,3.591431640625,3.894596870267391,1.207597089651227,2.97530000513494
1772527287300414700,3.601414794921875,4.567513667243719,2.2131121025562286,1.978376733355969
1772527287310397000,3.61139697265625,4.997255329585075,3.1229683546483513,0.6801216868538409
1772527287320379000,3.62137890625,5.355039424696565,3.842350550201535,-0.5493743692640215
1772527287330360800,3.63136083984375,5.34997454252243,4.302489104372262,-1.5975091381683946
1772527287340342800,3.6413427734375,4.757668574830889,4.535299496859312,-2.2480282253757116
1772527287350325000,3.651324951171875,4.091942566141486,4.950972886359692,-2.441351826126873
1772527287360306700,3.661306640625,3.720851245689392,5.464065032082796,-2.3495377580434083
1772527287370289000,3.671288818359375,3.6719706026643513,5.929966387563944,-2.073650586504489
1772527287380271900,3.68127197265625,3.8827234771221875,6.285262172991037,-1.6775529812201857
1772527287390253800,3.69125390625,4.302532358992099,6.436776676538586,-1.2053889851476995
1772527287400235800,3.70123583984375,4.9318321325600145,6.415593018734454,-0.7699782641939819
1772527287410217700,3.7112177734375,5.760988708040118,6.2791007277518505,-0.5266046113122255
1772527287420200000,3.721199951171875,6.701523006990551,6.0309355297446245,-0.4311770289067179
1772527287430181600,3.731181640625,7.484395385679602,5.744314636614918,-0.5604669872950763
1772527287440163800,3.741163818359375,7.988076144456863,5.449427434921264,-0.8414991935722529
1772527287450145800,3.751145751953125,8.294584225839376,5.226805843493342,-1.1958537526264785
1772527287460128800,3.761128662109375,8.464165716475248,5.064714416351914,-1.5921315367832778
1772527287470111000,3.771111083984375,8.435277475643158,4.923216279906034,-1.9428588452510536
1772527287480092700,3.7810927734375,8.132165466439723,4.97143465963006,-2.1500506662264467
1772527287490075000,3.791074951171875,7.5461115448802705,5.142198053526878,-2.2498177391409873
1772527287500056800,3.801056884765625,6.735320647174119,5.115836116302013,-2.0868189878962933
1772527287510038800,3.811038818359375,5.851905242761969,5.007404967677593,-1.7688289969041942
1772527287520020700,3.821020751953125,5.207911173409223,4.922171154767274,-1.2844170022204517
1772527287530003000,3.8310029296875,4.5727708571195596,4.636949022519588,-0.5920352609913796
1772527287539986000,3.84098583984375,3.429177160823345,3.942000134216249,0.3640718701440841
1772527287549968000,3.8509677734375,1.6174100626856087,2.7210096022456884,1.23012529393211
1772527287559949800,3.86094970703125,-0.28971242940425873,0.636776393058896,1.9742650602534413
1772527287569931800,3.870931884765625,-1.5461597669422626,-2.228853861567378,2.1579154082521796
1772527287579913700,3.880913818359375,-1.8350269776940344,-4.548222691318393,1.1906933741886168
1772527287589895700,3.890895751953125,-2.2867981010138987,-6.104719727879762,-0.4027396005820483
1772527287599878000,3.9008779296875,-4.2743806157410145,-7.499964126211404,-1.4608698399305342
1772527287609859600,3.910859619140625,-7.977962746721506,-8.503871119397878,-1.7031303439386187
1772527287619842800,3.9208427734375,-12.399881363594531,-8.75488001639843,-0.9107908295284957
1772527287629824800,3.93082470703125,-16.28655679321289,-7.896128513121605,0.18088577865622937
1772527287639806700,3.940806640625,-18.214430396908522,-6.045591247084737,1.1630286107368766
1772527287649789000,3.950788818359375,-17.02442683161497,-5.3796232463330025,2.9793165472999212
1772527287659770600,3.9607705078125,-12.752400670045613,-5.310475475826859,4.194857873953879
1772527287669752800,3.9707529296875,-7.993774063837527,-3.9174814867705106,3.333179961836338
1772527287679734800,3.98073486328125,-5.152752180767059,-3.053772068825364,1.7424768504209815
1772527287689716700,3.990716796875,-4.257633479079604,-3.112982382684946,0.7090263673640788
1772527287699700000,4.000699951171875,-4.006719859147071,-2.866517558854818,0.13968529660394413
1772527287709681700,4.010681640625,-3.47139133169651,-2.279612865684926,0.235681016019918
1772527287719663900,4.020663818359375,-2.4176789818555116,-1.4979825960114597,0.6698267950717359
1772527287729645800,4.030645751953125,-1.070720767787099,-0.7667877975896,0.9032561231747269
1772527287739627800,4.040627685546875,0.5750175637602806,0.17938333820402622,0.4339951915999874
1772527287749609700,4.050609619140625,1.9916805976957082,1.150369181780517,-0.516906004922837
1772527287759592000,4.060592041015625,2.4464228457808495,1.5841487213358283,-1.4935044276840983
1772527287769574000,4.070573974609375,2.1925714188307524,1.8124936588466167,-2.396370820888877
1772527287779556900,4.080556884765625,1.5544132160246371,1.9160805823102591,-2.9690508816123007
1772527287789538800,4.090538818359375,0.6354530355006456,1.8945526411131024,-3.1825662065207956
1772527287799520800,4.100520751953125,-0.13798048371374605,1.8699138744190333,-3.1947187088683244
1772527287809502700,4.110502685546875,-0.4066033633381128,1.8409563677430152,-3.0602056090041994
1772527287819484700,4.120484619140625,-0.15964286494553087,1.7465601742118595,-2.928717994441092
1772527287829467000,4.130466796875,0.22028408839106559,1.7525243433132767,-2.6780148023888466
1772527287839448600,4.140448486328125,0.6823784528046846,1.7997057812049984,-2.1468587383173405
1772527287849430800,4.1504306640625,1.3670751194238662,1.9243097737342119,-1.6588365903124211
1772527287859413000,4.1604130859375,2.411253332722187,2.1372379464045164,-1.1545202370453624
1772527287869395700,4.170395751953125,3.6767198430180548,2.2799612407311796,-0.8599435626056045
1772527287879378000,4.1803779296875,4.721875961437821,2.4994556400492787,-0.8673182560920715
1772527287889359600,4.190359619140625,5.223949869540333,2.8571652086198327,-0.8508232675608247
1772527287899341800,4.200341796875,5.492478641140461,3.1673031709372994,-0.7519613998576998
1772527287909323800,4.21032373046875,5.954506370058655,3.2827339691907165,-0.8293624002505093
1772527287919305700,4.2203056640625,6.623472383582592,3.303523659241199,-1.172506413982436
1772527287929288000,4.230287841796875,7.318232763576507,3.2416473410427566,-1.6709008298546075
1772527287939270000,4.240269775390625,7.807326778596639,3.219395469485223,-2.25676039788574
1772527287949252900,4.2502529296875,8.06335438054204,3.1948180775895714,-2.785532051038742
1772527287959234800,4.26023486328125,8.342836507833004,3.231663999427855,-3.245088421407342
1772527287969216800,4.270216796875,8.484718675160407,3.3026550597131252,-3.5068595354408023
1772527287979198700,4.28019873046875,8.1914044218719,3.2757793277472254,-3.4774116148993373
1772527287989181000,4.290180908203125,7.557444839799404,3.2702871600717303,-3.280115311124921
1772527287999163000,4.300162841796875,6.83217066359818,3.305683467623591,-3.028247459207475
1772527288009144800,4.310144775390625,6.090545072054862,3.2415359896227716,-3.029625469562411
1772527288019126800,4.320126708984375,5.380342208257317,2.857593663164973,-2.7402251748472453
1772527288029109800,4.33010986328125,4.768455926305055,2.1178721516773105,-2.165144044331461
1772527288039091700,4.340091796875,4.113099335938692,1.0338283764585852,-1.8009760934017598
1772527288049073700,4.35007373046875,3.03287248865962,-0.08285393203645944,-1.9857168669857084
1772527288059055900,4.360055908203125,1.1172013639330862,-1.1888248769029974,-2.432663200497627
1772527288069038000,4.3700380859375,-1.5193407335996627,-2.286749001175165,-3.0169895676121112
1772527288079020300,4.380020263671875,-4.481754369154572,-3.1041546408459544,-3.3950051343694327
1772527288089002200,4.390002197265625,-7.2406322220236055,-3.5163968868538733,-3.0933389400601383
1772527288098984200,4.399984130859375,-9.807385328537226,-3.4227269617706537,-1.9056997658103703
1772527288108966100,4.409966064453125,-12.344541169166565,-3.1665196193441747,-0.13138561549335717
1772527288118949000,4.41994921875,-14.133278689372538,-2.677861657653749,1.2783436736561358
1772527288128931300,4.429931396484375,-14.322448677575588,-1.8044918464377522,2.1377286525309085
1772527288138913300,4.439913330078125,-13.23482879743576,-2.069513194438815,3.5380028617233035
1772527288148895200,4.449895263671875,-11.715523135149478,-2.8164161418631672,3.7688492606610056
1772527288158877200,4.459877197265625,-8.19002261212468,-3.3419007361695168,1.465575825664401
1772527288168859100,4.469859130859375,-3.133200994849205,-3.6148335879474875,-1.4916928482174872
1772527288178841000,4.479841064453125,0.5660995132893324,-4.392204738871753,-3.0065026603892444
1772527288188823300,4.4898232421875,1.6585551430225371,-4.852086980193853,-2.812741837264597
1772527288198806300,4.49980615234375,0.6988783367067575,-3.452342640094459,-2.179147581373155
1772527288208788200,4.509788330078125,-0.9616741176128387,-1.306586163930595,-1.5816189105972647
1772527288218770200,4.519770263671875,-2.2431629574269056,0.7832569940924644,-1.1850631862819194
1772527288228752100,4.529752197265625,-2.533866151434183,2.2454566213220355,-0.437001205015555
1772527288238734300,4.539734375,-1.6790134091615676,3.0046240070357917,0.5047041835408658
1772527288248716000,4.549716064453125,-0.20368132863640784,3.208817376847565,1.26549076795429
1772527288258698200,4.5596982421875,1.6310621559411287,3.2629929114103313,1.804378449191153
1772527288268680200,4.56968017578125,3.293687909403443,3.2505382112458348,2.1472250874117016
1772527288278662100,4.579662109375,4.345939539042115,3.1505741544544694,2.133312881915271
1772527288288645400,4.589645263671875,4.69690635535419,2.879295207363367,1.7089131651237606
1772527288298627000,4.599626953125,4.390177324697375,2.319995583347231,1.1661452814526856
1772527288308609300,4.609609375,3.537724044781923,1.6894553081989288,0.8432323009751737
1772527288318591200,4.61959130859375,2.2258774761050937,1.41297499307245,0.620664631691575
1772527288328573200,4.6295732421875,0.6693687491059302,1.1773578726015985,0.6653235653683542
1772527288338555100,4.63955517578125,-0.5400234072685242,1.0090968169145285,0.8681824717059731
1772527288348537000,4.649537109375,-0.9641273559838532,1.0363374366700648,0.9592370997242629
1772527288358519000,4.65951904296875,-0.5572574506640434,1.0154692745558918,0.9298898630782961
1772527288368502000,4.669501953125,0.3529845858752727,0.8829673683837056,0.7924646751597523
1772527288378484200,4.679484130859375,1.5135212336659432,0.7687149662598967,0.5967693768411875
1772527288388466200,4.689466064453125,2.6978835782021284,0.6864554929852485,0.4069995230488479
1772527288398448000,4.6994482421875,3.766559103897214,0.6178570269249379,0.22009558008164165
1772527288408430000,4.70943017578125,4.665311778172851,0.5622155114628374,-0.010438757232204079
1772527288418412300,4.719412353515625,5.354847701516747,0.5276309586852789,-0.26785306429564953
1772527288428394000,4.72939404296875,5.852956213119626,0.5542455554969609,-0.5116028570134192
1772527288438376200,4.739376220703125,6.217822959968447,0.6326118207253515,-0.6981581326734274
1772527288448358400,4.7493583984375,6.5341065854340785,0.7154658988922834,-0.8093434023115783
1772527288458341000,4.759341064453125,6.720555039718747,0.8309992807373404,-0.8747289707399905
1772527288468323300,4.7693232421875,6.710211340358853,0.9244565859831869,-0.9219551245562732
1772527288478305000,4.779304931640625,6.547372309720516,1.0529114087216556,-0.9863647606246173
1772527288488287200,4.789287353515625,6.14924100665152,1.2409724127694963,-0.9221464093446731
1772527288498269200,4.799269287109375,5.613296977651119,1.253332712648809,-0.4812498773910105
1772527288508251100,4.809251220703125,5.260037666487693,0.8800091031000018,0.11642170898690819
1772527288518233300,4.8192333984375,4.897092243090271,0.21866525501757858,0.5016783329136669
1772527288528215300,4.82921533203125,3.742318981131911,-0.6535249910250306,0.6652030077286064
1772527288538198300,4.8391982421875,1.5713579210847615,-1.9568503995940087,0.8844374409362673
1772527288548180200,4.84918017578125,-1.0370207427591085,-3.6101413384780288,0.946733884242922
1772527288558162200,4.859162109375,-3.7893887753427027,-5.85339694262445,1.1637250685684382
1772527288568144100,4.86914404296875,-6.777251324930787,-8.166375779077411,1.195914542903006
1772527288578126000,4.8791259765625,-10.814199733603,-8.76778450615704,0.549831684577465
1772527288588108300,4.8891083984375,-18.515357463288307,-6.3815452031821005,0.3101844318076968
1772527288598090200,4.89909033203125,-30.337200453996658,-0.03147431180253625,0.7941334851548075
1772527288608072200,4.909072265625,-40.35752827599048,6.741147161370516,3.1336294493943453
1772527288618054100,4.91905419921875,-42.487834669566155,8.943490617153047,5.924200079122185
1772527288628037000,4.929037109375,-36.80988957091569,9.030652767777442,4.555636474706232
1772527288638019000,4.93901904296875,-26.73913153836727,6.37477643969953,3.5519662128850817
1772527288648001300,4.949001220703125,-16.28249436607957,3.6634596716895698,3.3984237106412647
1772527288657983000,4.95898291015625,-7.485581965115666,0.8127011152416467,4.050921696706116
1772527288667965200,4.968965087890625,-0.9464560902148484,-1.723440872170031,5.415687662404776
1772527288677947400,4.978947509765625,2.0832009435296057,-2.6869915973097083,6.369920816361904
1772527288687929000,4.98892919921875,2.4919208606302736,-3.0508804390370843,5.991428279742598
1772527288697911300,4.998911376953125,3.1412446005731818,-3.2527351367682216,4.238046442817152
1772527288707893200,5.008893310546875,4.960017193558812,-3.2440672616660593,2.0165534654065964
1772527288717876200,5.018876220703125,7.502797303810715,-3.1333558931499716,0.38668899481743574
1772527288727858200,5.028858154296875,10.042731376981735,-2.7837065891772506,-1.0974372175380587
1772527288737840000,5.038840087890625,11.676368351846932,-2.2455442996054886,-2.564437523047626
1772527288747822300,5.048822265625,12.115595635414122,-1.8905784767851233,-3.402657987210154
1772527288757804000,5.058803955078125,11.748553298091888,-1.4783891300082206,-3.578566635040939
1772527288767786200,5.0687861328125,11.09883617491722,-0.8052806098520755,-3.2462133337840435
1772527288777768200,5.078768310546875,10.682633208584784,-0.10391747059226035,-2.7082436441749334
1772527288787750100,5.088750244140625,10.76895306316614,0.4396902249038219,-2.2585542955651876
1772527288797732000,5.098732177734375,11.198120725011824,0.8608511059045791,-1.9486653395727276
1772527288807715000,5.108715087890625,11.507003134310246,1.3981491798624395,-1.5216091169230639
1772527288817697300,5.118697265625,11.511478233897686,1.991871151831746,-0.9894348157197237
1772527288827679200,5.12867919921875,11.412498804229497,2.7484833001047373,-0.516795822546631
1772527288837661200,5.1386611328125,11.258423510283231,3.5765135019034147,-0.2646355635538697
1772527288847643100,5.14864306640625,11.03106203085184,4.168018966867029,-0.49601168545410035
1772527288857625300,5.158625244140625,10.871814887225627,4.524271906888485,-1.2287500600561498
1772527288867607000,5.16860693359375,10.930168876516818,4.81521154000014,-2.2014809937343
1772527288877589200,5.17858935546875,11.177676487398147,4.901624625822901,-3.043388037455082
1772527288887572200,5.188572265625,11.475927612566947,4.835978725957871,-3.6417666030585765
1772527288897554200,5.19855419921875,11.613766057461499,4.664014139577746,-4.068668658059835
1772527288907536400,5.208536376953125,11.565258923923968,4.324020260439813,-4.293493897011876
1772527288917518000,5.21851806640625,11.378310118901728,3.949935311129689,-4.277425974786281
1772527288927500300,5.228500244140625,11.118628086102008,3.895885448773205,-4.201258388645947
1772527288937482200,5.238482177734375,10.867468382453918,4.202791005040705,-4.148094953735172
1772527288947464200,5.248464111328125,10.200629444086552,4.481708776447177,-3.923948636958003
1772527288957446100,5.258446044921875,9.13672127892375,4.873728026376664,-3.454653547385335
1772527288967428000,5.268427978515625,7.904698773068189,5.286511247393489,-2.5434455884233116
1772527288977411300,5.278411376953125,6.723914871540665,5.807845736283063,-1.5351879988119006
1772527288987393000,5.28839306640625,5.322222027722001,6.179986273527145,-0.4236185032859444
1772527288997375200,5.298375244140625,3.795128195777535,6.0456894467622035,0.8951534807398914
1772527289007357200,5.308357177734375,2.4373230090022084,5.409610972839594,2.3469696611210704
1772527289017339100,5.318339111328125,1.3811813861876725,4.3296103355318305,3.677909637324512
1772527289027321000,5.328321044921875,0.7078261977940797,2.975690173496306,4.1379637280821795
1772527289037303300,5.33830322265625,-0.030586276921629903,1.574583897393942,3.593580664299428
1772527289047285000,5.348284912109375,-1.5812778420746325,0.4713597670175135,2.807743882846832
1772527289057267200,5.35826708984375,-4.4769864241003985,-0.22018194319084286,2.315529982240498
1772527289067249400,5.36824951171875,-8.454392510479687,-0.5447647565767169,2.596295135079324
1772527289077231400,5.3782314453125,-13.10148064969778,0.1547856341727078,2.9180472550839185
1772527289087213300,5.38821337890625,-17.961777824354172,0.8268406997531652,2.872252887636423
1772527289097195300,5.3981953125,-21.491289336585996,1.0549524130299688,2.307595974370837
1772527289107177500,5.408177490234375,-22.90982576317787,1.1351160830691456,0.875885666494444
1772527289117159400,5.418159423828125,-22.503220646274087,0.41274252368025477,-1.3076479479432106
1772527289127141400,5.428141357421875,-20.7024232704401,-1.044643419657275,-3.555530919629335
1772527289137123300,5.438123291015625,-18.031524145275352,-2.772038070954382,-4.759693650917709
1772527289147105500,5.44810546875,-16.039749439555404,-4.105932513049245,-4.37899658999145
1772527289157088300,5.458088134765625,-15.509782146877049,-4.660866781462729,-3.1340599497660993
1772527289167070500,5.468070556640625,-15.933225001335144,-4.299346714693308,-2.07991972990185
1772527289177052400,5.478052490234375,-17.18459518173933,-3.3917063850849867,-1.8890555050015447
1772527289187034400,5.488034423828125,-18.33423984863758,-2.7515499941989776,-1.6109176319263874
1772527289197016600,5.4980166015625,-17.843026357245446,-2.5115803776070473,-1.1916162611871957
1772527289206998300,5.507998291015625,-15.184959825646876,-2.5681366698265076,-0.9302493440404533
1772527289216980500,5.51798046875,-11.418338177907467,-2.7730504628673196,-0.9836281752675771
1772527289226962400,5.52796240234375,-7.408551332405209,-2.7221283771425484,-1.0583709162365644
1772527289236944400,5.5379443359375,-3.4896173087388274,-2.5465473538309333,-0.5682227159883827
1772527289246927600,5.547927734375,-0.05368833556771278,-2.3498379100337625,0.28883813078776
1772527289256909300,5.557909423828125,2.700562442022562,-2.0636279357925056,1.2868493439339102
1772527289266891500,5.5678916015625,4.781043605199456,-1.7700708136588335,1.9909563750743864
1772527289276873500,5.57787353515625,6.168435536465048,-1.4158520098134875,2.054016934621334
1772527289286855400,5.58785546875,6.911117943584919,-1.1423195116419345,1.7860837908267975
1772527289296837400,5.59783740234375,7.134368480566144,-0.9698262982778251,1.4835148024588822
1772527289306819300,5.6078193359375,7.109412318485975,-0.7176756838962435,1.5194465320616959
1772527289316801300,5.61780126953125,7.057082411789894,-0.3798291920505464,1.6912999131523072
1772527289326783500,5.627783447265625,7.173888590049743,-0.013957359812408685,1.828896658245474
1772527289336766500,5.637766357421875,7.542443670022487,0.2671516380280256,1.791811082432419
1772527289346748400,5.64774853515625,8.133579424890875,0.5895245202794671,1.4892271887563169
1772527289356730400,5.65773046875,8.863730851739644,0.956595206913352,0.9972506040371953
1772527289366712300,5.66771240234375,9.575624737364054,1.1506382079802453,0.5760898691669106
1772527289376694500,5.677694580078125,10.069722259759903,1.2580541882127523,0.25720497516170143
1772527289386676200,5.68767626953125,10.383493610143661,1.316571259111166,-0.05610197258070111
1772527289396658400,5.697658447265625,10.53997012001276,1.431923000779003,-0.24381887589860707
1772527289406640400,5.707640380859375,10.462282484698296,1.6530797803513704,-0.42147780146282166
1772527289416622300,5.717622314453125,10.01498996809721,1.9557168655194341,-0.5965509483175352
1772527289426605600,5.72760546875,9.223613964956998,2.2066994590349496,-0.6285870221886783
1772527289436587300,5.737587158203125,8.34336550014317,2.541126205565035,-0.5511363374352455
1772527289446569500,5.747569580078125,7.612770421180128,2.842309584793448,-0.3865343887776136
1772527289456551400,5.757551513671875,6.902864494502544,2.8574554237380623,-0.18772117763422427
1772527289466533400,5.767533447265625,5.943267767685652,2.619014624148607,0.009184080995991826
1772527289476515300,5.777515380859375,4.82898492154777,2.2371128636077047,0.43049072714298964
1772527289486497300,5.787497314453125,3.8636218862891196,1.4794919766835868,1.315712450324744
1772527289496479200,5.797479248046875,3.3574995795786378,0.0067281392112374305,2.153069137264788
1772527289506461400,5.80746142578125,3.002368629324436,-1.8490531649589537,2.037452899441868
1772527289516444400,5.8174443359375,1.4563175834536553,-3.04870718665123,-0.04846212535202503
1772527289526426400,5.82742626953125,-3.0779215906977653,-3.9098271726250644,-2.457538698557019
1772527289536408300,5.837408203125,-10.655696101820467,-4.431043588092923,-3.025377164468169
1772527289546390300,5.847390380859375,-19.246996498346327,-3.5762747247114777,-1.7745482513338326
1772527289556372500,5.85737255859375,-25.733492022299764,-1.323927613223344,0.09137158501297235
1772527289566354200,5.867354248046875,-28.756176294422147,0.5491068774342537,1.5161422298192977
1772527289576336400,5.87733642578125,-29.53100448286533,2.0715958459317685,2.7136124777317043
1772527289586318600,5.887318603515625,-29.441813456761835,4.034372420704365,3.8905075551271437
1772527289596300300,5.89730029296875,-26.97554258569479,6.252149007940292,5.225333432853222
1772527289606283500,5.907283447265625,-21.375490874063967,7.485874810582399,6.313333836743235
1772527289616265200,5.91726513671875,-15.393120930045843,6.642341919225454,5.901548102331161
1772527289626247400,5.927247314453125,-10.960726511865854,4.200571575425565,3.2273855914562937
1772527289636229400,5.9372294921875,-7.161954991149902,1.3250491645991802,-0.37646424566209313
1772527289646211300,5.94721142578125,-4.109177778580785,-0.967123030668497,-2.464272975248098
1772527289656193500,5.957193603515625,-1.8860288506567477,-1.7965812194436788,-2.952634876601398
1772527289666175500,5.967175537109375,0.9559744446665048,-1.5468278754621743,-2.108839973307401
1772527289676157400,5.977157470703125,4.697829315418005,-1.1093071035519242,-0.9762069392256438
1772527289686139400,5.987139404296875,8.220066452732683,-0.6627008156493306,-1.2767239634998142
1772527289696122400,5.997122314453125,10.645350064373016,-0.7544622767627239,-2.0742713487513362
1772527289706104300,6.007104248046875,12.267856573414802,-1.1185463488012553,-3.344772784474492
1772527289716086300,6.017086181640625,13.526449106287956,-1.2383622302711008,-4.361064627459645
1772527289726068500,6.027068359375,14.312058216464518,-0.6869961757332086,-4.183711041517555
1772527289736050400,6.037050537109375,14.519807817453145,0.8196341293752193,-3.2802512124642726
1772527289746032400,6.047032470703125,14.121378992742299,2.4997744967401028,-2.1157951992727817
1772527289756014300,6.057014404296875,13.42537358112335,3.908086466437578,-0.9583489187128841
1772527289765996500,6.06699658203125,12.628380322623252,4.842258829140663,-0.23314678483456372
1772527289775978200,6.076978271484375,11.875415590941905,5.301256396582723,0.08382540741711854
1772527289785961500,6.08696142578125,11.381515636944771,5.698784473061561,-0.051615036424994466
1772527289795943400,6.096943359375,10.927194829142094,6.123655899018049,-0.24473595421090721
1772527289805925400,6.10692529296875,10.00312884991169,6.543959870928526,-0.06722951579466462
1772527289815907600,6.116907470703125,8.757280063277483,7.079955337855219,0.48723830415084957
1772527289825889300,6.12688916015625,7.431760943078994,7.597974418586492,1.3199708384215831
1772527289835871500,6.13687158203125,6.469689350581168,7.700685435998439,1.9054592350527644
1772527289845853400,6.146853515625,6.248643630167842,7.186686112302541,1.1848292313955724
1772527289855835400,6.15683544921875,6.563547783973813,7.118408110368251,0.11373378507718443
1772527289865817300,6.1668173828125,6.700363315561414,6.960789444726705,-0.5895679210297763
1772527289875799300,6.17679931640625,6.360315368148684,6.695135936301946,-0.6871126417197286
1772527289885782500,6.186782470703125,5.635474907189607,6.065991645556688,-0.5351287670947611
1772527289895764200,6.19676416015625,4.582977778357267,5.525327017775178,-0.5046610019862652
1772527289905746400,6.206746337890625,4.617532374387979,5.106882409995794,-0.43964989289343354
1772527289915728400,6.216728271484375,3.782899413323402,4.862926938638091,0.0012774725899100303
1772527289925710300,6.22671044921875,3.2151258293420075,3.7548975999370215,0.5190177363798022
1772527289935692300,6.2366923828125,2.4229478621691465,2.583338915133476,1.2319665378846227
1772527289945674500,6.246674560546875,1.1643962458282708,1.17804044803828,1.0247563775349409
1772527289955656200,6.25665625,-0.7023959894388914,0.768294987282157,0.9162276868201792
1772527289965638400,6.266638427734375,-2.6637539295852184,-0.054708910787105554,0.5763375603176653
1772527289975621400,6.276621337890625,-4.778782090008258,-1.0383379628375171,-0.2227516475483775
1772527289985603300,6.286603271484375,-7.321031454384326,-1.9378844178393482,-0.9276320011489093
1772527289995585500,6.29658544921875,-9.789772514957189,-3.184246999214589,-1.2912743207693098
1772527290005567200,6.306567138671875,-11.362079115068912,-4.268153996311128,-1.9424474879711866
1772527290015549400,6.316549560546875,-12.165401576590538,-4.757908228805661,-3.436118650524318
1772527290025531400,6.326531494140625,-12.705997815310955,-5.288651182031631,-4.644606843796372
1772527290035513300,6.336513427734375,-13.48132635449171,-5.343930586183071,-4.740207736942172
1772527290045495600,6.34649560546875,-14.65780992847681,-4.649679909276962,-3.413266474986076
1772527290055477500,6.3564775390625,-14.804212788099049,-3.9070504013881084,-1.2062800157032907
1772527290065461200,6.366461181640625,-12.587614596992731,-3.788492703285813,0.6699523211475461
1772527290075443200,6.376443115234375,-7.7094257918149225,-4.9425581092357636,0.9818713947281241
1772527290085425200,6.386425048828125,-2.6100053882628678,-6.79074676631987,-1.1716702554192393
1772527290095407400,6.396407470703125,0.6518301698058844,-8.805728744626045,-3.377875720392167
1772527290105389000,6.40638916015625,0.7315671388655901,-8.717871597474813,-4.357028211550414
1772527290115371300,6.416371337890625,-1.5315426280468702,-6.4971887674033635,-3.120324562141299
1772527290125353200,6.426353271484375,-4.327836896118521,-3.4830545892223714,-0.8272611171223223
1772527290135335200,6.436335205078125,-6.499944203591347,-0.5081403685346245,0.9711771283648908
1772527290145317000,6.446317138671875,-7.347730076217651,1.376413733394444,2.2702055703923105
1772527290155299000,6.456299072265625,-6.137060739514231,2.2422043415278194,2.6669001186564563
1772527290165282300,6.4662822265625,-3.5601503961235283,2.493636432376504,1.8497455311372875
1772527290175264000,6.476263916015625,-1.036204750201106,2.354262448477745,0.5743853302713483
1772527290185246200,6.48624609375,0.4728045589983463,2.2446125717133283,-0.6722440122812986
1772527290195228200,6.496228271484375,1.5053203915536402,1.8804004893809556,-1.1104185719251631
1772527290205210000,6.506210205078125,2.7950521590560675,2.144799906091392,-0.9514048717286437
1772527290215192000,6.516192138671875,4.079153811717033,2.8405127645045516,-0.33983437772728503
1772527290225174300,6.52617431640625,5.154422744327784,3.4835093472525474,0.6052268240630626
1772527290235156200,6.53615625,5.884834283417463,4.06817532158494,1.7689552536323665
1772527290245138200,6.54613818359375,6.487953321546316,4.292669721147417,2.804959220564365
1772527290255121200,6.55612109375,7.079847785827517,4.267097180734575,3.279385243284702
1772527290265103000,6.56610302734375,7.720991726446151,3.90328929528892,3.187937085904181
1772527290275085300,6.576085205078125,7.892409784859418,3.0965655008912085,2.69486890655607
1772527290285067000,6.58606689453125,8.387664076074957,3.274453924362361,1.357552673318982
1772527290295049200,6.59604931640625,8.660707694751023,3.3029268623918293,0.19753285247664898
1772527290305031400,6.606031494140625,8.5042212480098,3.0037326111540197,-0.4682780945498496
1772527290315013000,6.61601318359375,8.178380105125903,2.789576942515373,-0.8819307188123464
1772527290324995300,6.625995361328125,7.76543818641603,2.7597973058015106,-1.0975284760180861
1772527290334977000,6.63597705078125,7.415882405945658,3.1338883925914764,-1.1382622721403837
1772527290344959200,6.645959228515625,7.106461651986837,3.745587043017149,-0.7958155930228531
1772527290354942200,6.655942138671875,6.817403887099028,4.1994937170609825,-0.44013584977947173
1772527290364924200,6.665924072265625,6.598432050350308,4.544055342505872,-0.39624227445200083
1772527290374906400,6.67590625,6.385289650407433,4.71974216427952,-0.42427835543416437
1772527290384888000,6.68588818359375,6.0389504938960075,4.627831357823312,-0.3046842086899094
1772527290394870300,6.695870361328125,5.610760152649879,4.374039259845018,0.008652367005776613
1772527290404852200,6.705852294921875,5.330145221936703,4.470315860295296,0.09304982955665327
1772527290414834200,6.715834228515625,5.090390709400177,4.726038341814279,-0.023188928645360284
1772527290424816000,6.725816162109375,4.875580668506026,5.046187410536408,-0.23971363253686576
1772527290434798300,6.73579833984375,4.645018931728601,5.274131073769927,-0.575840789776668
1772527290444781000,6.745781005859375,4.402786046379805,4.958347799041867,-0.8155472984530031
1772527290454763300,6.75576318359375,4.099255519503354,3.647936231604218,-0.7243180445201695
1772527290464745200,6.7657451171875,3.445112396579981,1.5325339771717785,-0.33901049412377177
1772527290474727200,6.77572705078125,2.453277533981204,-1.1164005689442158,-0.0563153870025184
1772527290484709400,6.78570947265625,0.7894260381162166,-4.359765235298871,0.05704919030293822
1772527290494691000,6.795691162109375,-1.5818465818732976,-7.985579651466011,-0.21492639728281646
1772527290504673300,6.80567333984375,-4.844433835092187,-11.28625259745121,-0.37007249879837034
1772527290514655200,6.8156552734375,-8.353389466029405,-13.445444893771409,-0.15787497849017382
1772527290524637200,6.82563720703125,-11.328658491504191,-13.912682466292381,-0.004751688039116561
1772527290534619100,6.835619140625,-13.354646432471274,-12.250956876540183,-0.7320365099430084
1772527290544602000,6.84560205078125,-13.9814292547822,-9.51149041110575,-1.418775496044755
1772527290554584300,6.855584228515625,-13.582925611269474,-7.562326766622066,-1.211564970368892
1772527290564566000,6.86556591796875,-12.392233479189873,-6.670300770252942,-0.24404822767507284
1772527290574548200,6.87554833984375,-10.92634376527071,-6.149890410470962,0.9920608533743769
1772527290584530200,6.8855302734375,-9.72707085185051,-5.553066673094034,1.6896069916293024
1772527290594512100,6.89551220703125,-8.674488382822275,-4.734056813097,1.6201865416616201
1772527290604494000,6.905494140625,-7.434589444503188,-3.8979996644482013,1.2961487949378787
1772527290614476300,6.915476318359375,-5.845329371502995,-3.3040009213641284,1.3547444840304552
1772527290624458000,6.9254580078125,-3.994347868829965,-2.7920012470528484,1.6965804839037357
1772527290634440200,6.935440185546875,-1.9849498281359672,-2.2301602679908274,1.8781363438412546
1772527290644423200,6.945423095703125,0.21680384505987166,-1.3647159890770912,1.7377167964123188
1772527290654405000,6.955405029296875,2.3277391832113263,0.051852352312207216,1.3568322500899432
1772527290664387300,6.96538720703125,3.752328333970904,1.651364062474668,0.778939277023822
1772527290674369000,6.975369140625,4.538285819193721,3.0869810954660175,-0.06236713848926592
1772527290684351200,6.985351318359375,4.868086513358354,4.1804190142348405,-0.7139272180829197
1772527290694333200,6.995333251953125,4.850103112900257,4.808743805290758,-0.6440135777708142
1772527290704315100,7.005315185546875,4.409930072915554,4.975777657270431,0.10014924063254148
1772527290714297300,7.01529736328125,3.6977632155686613,4.717527118578553,1.15494006989263
1772527290724279000,7.025279052734375,3.158258279216289,4.294264881384373,1.7483131553590296
1772527290734262300,7.03526220703125,2.905936546051502,4.120220273859799,1.7222829343065618
1772527290744244200,7.045244140625,3.0285750837266443,4.179019668830931,1.7416235945925116
1772527290754226200,7.05522607421875,3.42471082906425,4.270693743921816,1.9698627336412666
1772527290764208000,7.0652080078125,4.0394361338347196,4.21842871915549,1.926577134144306
1772527290774190000,7.075190185546875,5.064859377780556,3.864637785333395,1.2730648564703761
1772527290784172300,7.08517236328125,6.448153226077556,3.261891964431107,0.4542559258729219
1772527290794154200,7.095154296875,7.868398210152983,2.384180909140408,-0.10078903637342154
1772527290804136200,7.10513623046875,8.944254587262868,1.28584703502357,-0.24282566361017524
1772527290814118100,7.1151181640625,9.617752398997546,0.58637657764256,-0.6245359932322054
1772527290824100400,7.125100341796875,9.984818117195367,0.5417477468430996,-1.5426175642907618
1772527290834083000,7.1350830078125,10.133636221265792,0.8657891468286514,-1.9700819293498992
1772527290844065300,7.145065185546875,10.078739094430208,1.5623030924916266,-1.9088497542738914
1772527290854047200,7.155047119140625,9.599022564086317,2.3528806387305257,-1.593473452911526
1772527290864029200,7.165029296875,7.905113783609867,3.3602412795022127,-0.35178500082716346
1772527290874011400,7.175011474609375,6.611440000483393,3.606811609533429,0.6836274299524724
1772527290883993000,7.1849931640625,4.3409857160270215,3.0484742546781898,1.9237571082875131
1772527290893975300,7.194975341796875,1.849349517557025,2.265032843929529,2.3690020447090268
1772527290903957200,7.204957275390625,-0.49806817959249017,1.1812664243474602,2.1084600340791044
1772527290913939200,7.214939208984375,-2.4091987382799385,-0.10517506943792104,1.5716577808141707
1772527290923921200,7.224921142578125,-4.2656741621941325,-0.9963450334995985,0.4848129767000675
1772527290933904100,7.234904052734375,-5.9957011347562075,-1.4296335746675728,-0.5071503345839679
1772527290943886300,7.24488623046875,-7.545033686515689,-1.967469116503,-0.9221364724725485
1772527290953868000,7.254867919921875,-8.86519157194197,-2.379175063677132,-1.287546240156889
1772527290963850200,7.264850341796875,-10.143834959197044,-2.543992993173003,-1.6509392611913383
1772527290973832200,7.274832275390625,-11.083587167859077,-2.535007138162851,-1.693427134439349
1772527290983814100,7.284814208984375,-11.330587413740158,-2.2385829361602663,-1.6596990523606538
1772527290993796000,7.294796142578125,-10.702022968709468,-1.7123618442729114,-1.7539898858211933
1772527291003778300,7.3047783203125,-8.967188303604722,-1.7618851691156625,-1.255215019264072
1772527291013760000,7.314760009765625,-6.834348592159151,-2.23209503544569,-0.39151546512581403
1772527291023742200,7.3247421875,-4.947362879168987,-2.2487334510356187,-0.6625036856420338
1772527291033725200,7.33472509765625,-3.389153777992725,-2.530264327549934,-1.7210893406078218
1772527291043707100,7.34470703125,-2.241302424252033,-3.8949616119265555,-2.5561133468165993
1772527291053689300,7.354689453125,-1.6095657789260147,-5.6042146765291685,-2.6592633401677013
1772527291063671000,7.364671142578125,-1.6868015788197517,-6.262814194339513,-2.301593226824701
1772527291073652500,7.374652587890625,-2.446442719525099,-5.235901004096865,-2.2530340708389875
1772527291083634700,7.384634765625,-3.6490696195483205,-3.1929356248438356,-2.280550877187401
1772527291093616400,7.394616455078125,-4.752867312029004,-1.6070061575710772,-1.6605314115315675
1772527291103598600,7.4045986328125,-4.948064305436611,-0.7657523170620203,-0.519086636897549
1772527291113580500,7.41458056640625,-3.9086715728491543,-0.2564680391892791,0.4206662293516099
1772527291123562500,7.4245625,-1.8259195421308279,0.009613046997785568,0.9384944636859
1772527291133545700,7.434545654296875,0.5880652613818645,0.037599078293144704,1.217968261539936
1772527291143527400,7.44452734375,2.817783630824089,-0.051640755388140676,1.2838975083909927
1772527291153509600,7.454509521484375,4.557304992440343,-0.219684661193192,1.2896896819263697
1772527291163491600,7.46449169921875,5.675190831506252,-0.4181196136087179,1.2652695264190434
1772527291173473500,7.4744736328125,6.2246782326906915,-0.6182277599334717,1.1812930200934408
1772527291183455500,7.48445556640625,6.388852895846963,-0.8186968485251068,0.9804770177602767
1772527291193437700,7.494437744140625,6.330981137114763,-0.9894973595619201,0.634501141603291
1772527291203419400,7.50441943359375,6.034262043818831,-1.0541355436891318,0.17675708135366439
1772527291213401600,7.514401611328125,5.47526739409864,-0.9612079614058137,-0.27381635661423204
1772527291223383600,7.524383544921875,4.7953591307997705,-0.671029083533585,-0.5303419712096452
1772527291233366500,7.534366455078125,4.203374065625668,-0.243974468319118,-0.5483572281107306
1772527291243348500,7.544348388671875,3.846909236419201,0.09629179801940918,-0.3912672625184059
1772527291253330400,7.554330322265625,3.70923562669754,0.335106107096374,-0.22896628427952526
1772527291263312600,7.564312744140625,3.780187816277146,0.5168570512145757,-0.17909078499823808
1772527291273294300,7.57429443359375,4.007589627718925,0.591564793935418,-0.14473054249584674
1772527291283276500,7.584276611328125,4.284035163792968,0.5411645401276648,-0.1494701382383704
1772527291293258800,7.5942587890625,4.230361441272497,0.5041672271199524,-0.2738639951482415
1772527291303240400,7.604240478515625,3.614875673523545,0.442902611079067,-0.38313101007491346
1772527291313222700,7.61422265625,2.72128608109951,0.3945509603641927,-0.4348600282683968
1772527291323204600,7.62420458984375,1.8362679176658392,0.5045744927465915,-0.4216922113984823
1772527291333187600,7.6341875,1.1741957553088664,0.7400000361680984,-0.004334375942498445
1772527291343169500,7.64416943359375,0.7255658526241779,0.9529211945757269,0.7416891582988202
1772527291353151500,7.6541513671875,0.27832594299316404,1.0624991751477122,1.217413404136151
1772527291363133700,7.6641337890625,-0.5008277074337005,0.9610381577968596,1.2478186254024506
1772527291373115600,7.67411572265625,-2.0574550923764705,0.29911943243592976,1.3898945617362857
1772527291383097600,7.68409765625,-4.229546617758274,-0.5647323165893554,1.453085031273216
1772527291393079600,7.69407958984375,-6.150766024261713,-0.8309332297638058,1.2324746335372327
1772527291403061500,7.7040615234375,-7.732993129885196,-0.7216925183221697,1.3384975519761442
1772527291413043500,7.71404345703125,-9.126111037582158,-0.4219768735587597,1.8473226879045366
1772527291423025700,7.724025634765625,-10.490776757776736,-0.31158933016955853,3.0157176479801535
1772527291433008600,7.734008544921875,-11.362687017834185,-0.326344416230917,4.0468934641033405
1772527291442990600,7.743990478515625,-11.30665591853261,-0.22313480164706706,3.918159532162547
1772527291452972500,7.75397265625,-11.30010927336812,0.45326311544328923,2.7054098820537327
1772527291462954500,7.76395458984375,-11.66007305060625,1.660627565382421,1.5889958691060542
1772527291472936700,7.773936767578125,-11.327419305098056,2.435805882437527,0.38215416439939287
1772527291482918400,7.78391845703125,-10.84098018850088,2.3409674980968234,-0.1892469989620149
1772527291492900600,7.793900634765625,-10.83014549075365,1.8010683017298579,-0.13610482603497803
1772527291502882600,7.803882568359375,-10.27866194731593,1.6127970159322023,-0.04617701008953154
1772527291512864500,7.813864501953125,-9.121191701358557,1.3224340136647224,-0.2301918074864894
1772527291522846500,7.823846435546875,-7.836178194549679,0.6915224209859967,-0.5057451439611613
1772527291532828700,7.83382861328125,-6.394332204040885,-0.018824235196411607,-0.6785267458125949
1772527291542811600,7.843811767578125,-4.771922725632787,-0.7630062332242726,-0.7437861305780709
1772527291552793600,7.853793701171875,-3.0834266178548333,-1.554108533989638,-0.831024122917652
1772527291562775600,7.863775634765625,-1.3835983842015265,-2.355957269696891,-1.0833769818730652
1772527291572757500,7.873757568359375,0.28195114775300023,-2.9579338597923517,-1.566178911011666
1772527291582739700,7.88373974609375,1.8813865778088568,-3.372727543848753,-2.0970403760507703
1772527291592721400,7.893721435546875,3.3755455238789316,-3.5263732142060995,-2.396802051912993
1772527291602703600,7.90370361328125,4.7192988044261925,-3.3097724905028936,-2.447476300356537
1772527291612685600,7.913685546875,5.767044354817271,-2.807669064044952,-2.2626281208753585
1772527291622667500,7.92366748046875,6.298115809345245,-2.3022394157737494,-1.6988807236701249
1772527291632649700,7.933649658203125,6.525461506685614,-1.7932102817058562,-1.1871860236547886
1772527291642632400,7.943632568359375,6.861824043583869,-0.605798778732121,-1.096962878024578
1772527291652614700,7.95361474609375,6.731862615674734,0.6307178236722946,-0.8972209346637129
1772527291662596400,7.963596435546875,6.498906677237152,1.654578932867944,-0.7174396101180464
1772527291672578600,7.97357861328125,6.345108446666598,2.3449288029432296,-0.6833161720462143
1772527291682560500,7.983560546875,6.2843368748396635,2.7600594638690352,-0.7027685490783303
1772527291692542500,7.99354248046875,6.4309630218237634,2.90643426644057,-0.9086796095281838
1772527291702524700,8.003524658203125,6.5519625601202245,2.8066236466452477,-1.1389660364955663
1772527291712506600,8.013506591796874,6.514051054877043,2.485183076807856,-1.269207450389862
1772527291722488600,8.023488525390626,6.385881771081686,2.1141431942820548,-1.398122291855514
1772527291732470500,8.033470458984375,6.298037483412027,1.9033757067769765,-1.5583677988693116
1772527291742453500,8.04345361328125,6.245353940972685,1.9278017075031995,-1.7884899751856922
1772527291752435500,8.053435546875,6.168603294247388,2.0399448623880745,-2.184213340330124
1772527291762417700,8.063417724609375,6.138361885240673,1.9985145353689788,-2.4934040849253534
1772527291772399600,8.073399658203124,6.156629363337159,2.2074460396185516,-2.5001494675323364
1772527291782381600,8.083381591796876,6.202616623008251,2.8496242917209864,-2.4470946075625717
1772527291792363500,8.093363525390625,6.202120363923907,3.602033143085241,-2.3506226306706663
1772527291802345500,8.103345458984375,6.136749189347029,4.288071579702199,-2.2780415247149763
1772527291812327700,8.11332763671875,6.010040625753998,4.74754173309207,-2.224496543140709
1772527291822309400,8.123309326171874,5.7481701429992915,4.90712906845808,-2.1131286104120313
1772527291832291600,8.13329150390625,5.471947309765219,4.66006247934252,-1.8300434901930391
1772527291842274600,8.143274658203126,5.027108031535148,3.9535245677933095,-1.2451609505005181
1772527291852256500,8.153256591796875,4.2742520209252834,3.125800070942938,-0.4998749367535114
1772527291862238700,8.16323876953125,3.3077848238170144,2.3738526996105906,0.4167803278289735
1772527291872220400,8.173220458984375,1.9942261905252932,1.465032804828882,1.143572215116769
1772527291882202600,8.18320263671875,0.366932447206974,-0.0270224469602108,1.448320447219908
1772527291892184600,8.1931845703125,-1.4638590848743915,-2.1052403413802385,1.7163973833993076
1772527291902166500,8.20316650390625,-3.468255956280231,-4.431318897902965,2.4730682761222123
1772527291912148500,8.2131484375,-5.4700949598968025,-6.305895795696974,3.25496713360399
1772527291922130700,8.223130615234375,-7.292738841357827,-6.841543472099303,3.089796737408638
1772527291932112400,8.2331123046875,-8.693979849755763,-6.010616964337229,2.0570627320580184
1772527291942094600,8.243094482421874,-9.712664725357293,-4.520586204113066,0.9893198841031641
1772527291952077600,8.25307763671875,-10.54750343812704,-3.1580569114252923,0.7509577027078718
1772527291962059500,8.2630595703125,-11.071146203958987,-2.3012466053441165,1.1847305933266878
1772527291972041700,8.273041748046875,-10.732275483632087,-1.6474305224180221,1.6595175583139061
1772527291982023400,8.2830234375,-9.364645068413019,-1.187937864935398,1.8483304036423562
1772527291992005600,8.293005615234375,-7.685476176428795,-1.2234013925045728,1.9458979206860065
1772527292001987600,8.302987548828124,-6.354966408336162,-1.7827739356264471,2.0618886909097434
1772527292011969500,8.312969482421876,-5.4543222212255,-2.239870345622301,2.127674437636882
1772527292021951700,8.32295166015625,-4.743430790641904,-2.0672034561917183,1.9367402162402867
1772527292031933400,8.332933349609375,-3.983755747666955,-1.4480711486339568,1.4358108019977807
1772527292041915600,8.34291552734375,-3.0592022771805523,-0.6923284766718745,0.7931872172806411
1772527292051898400,8.3528984375,-1.8710007928729055,0.003054419134557247,0.16305778795555234
1772527292061880600,8.362880615234374,-0.5550257460892201,0.513704724663496,-0.4512924729574471
1772527292071862800,8.37286279296875,0.7637111666232347,0.7625660882413386,-1.0900901427108793
1772527292081844700,8.3828447265625,1.9799457362383603,0.9092489338487386,-1.6036819815844296
1772527292091826700,8.39282666015625,2.960284806832671,1.0211442514523863,-1.8750670193985104
1772527292101809000,8.402808837890625,3.607923370167613,1.2330404507264494,-1.9126985386565327
1772527292111790600,8.41279052734375,3.9772342369437217,1.6062541701599955,-1.7863925645150243
1772527292121772800,8.422772705078126,4.116839691510796,2.170777227912843,-1.5619951955862343
1772527292131754800,8.432754638671875,4.18997916200161,2.7922537605091926,-1.280553458660096
1772527292141736700,8.44273681640625,4.276716949734092,3.2864287320554255,-1.0475139335922896
1772527292151719000,8.452718994140625,4.391908094012737,3.6183924494728443,-0.9296012553952634
1772527292161701600,8.46270166015625,4.568379928684235,3.855659529107809,-0.9182456025138497
1772527292171683800,8.472683837890624,4.790462006407976,4.076288777674734,-0.9444096790790557
1772527292181665500,8.48266552734375,5.012634100502729,4.249237114395201,-1.0344073453903198
1772527292191647700,8.492647705078125,5.297105706644058,4.31645304005593,-1.143376400283724
1772527292201630000,8.5026298828125,5.544155052363872,4.294092739687859,-1.2229177006408571
1772527292211611600,8.512611572265625,5.669556040489673,4.175535626107454,-1.3087467029653488
1772527292221593900,8.52259375,5.717707784718275,4.053309176364541,-1.3349091720953583
1772527292231575800,8.532575927734374,5.734394715625047,3.8566701674550767,-1.2474543221347034
1772527292241557800,8.542557861328126,5.617487415078282,3.602027882388234,-1.077705585173145
1772527292251539700,8.552539794921875,5.429713265147805,3.3037562989532945,-0.9277050663851201
1772527292261522700,8.562522705078125,5.161103829526901,2.953160069519281,-0.7970111594829707
1772527292271505000,8.5725048828125,4.68709573995769,2.5048639288336036,-0.4837180210702121
1772527292281486800,8.58248681640625,3.947916957044601,1.8738146812498568,0.20297055001854894
1772527292291468800,8.59246875,3.0942601465582844,1.1420412061572074,1.2278710852645336
1772527292301450800,8.60245068359375,2.260303477320075,0.2835001307606697,2.0117707611747084
1772527292311433000,8.612432861328125,1.6692600769102572,-0.6720598878860473,2.070947318895161
1772527292321414700,8.62241455078125,1.2281599852085112,-1.793921060323715,1.5857555720105767
1772527292331396900,8.63239697265625,0.8501508481919765,-3.1491210330367085,0.9644999886885285
1772527292341378800,8.64237890625,0.3216746708542108,-4.198181757679581,0.12333769892044365
1772527292351360800,8.65236083984375,-0.8551777364432811,-4.247510144472122,-0.5719900326326489
1772527292361342700,8.6623427734375,-2.6582220144212245,-3.2503783445090053,-1.1423420157346873
1772527292371325700,8.67232568359375,-4.123358279624581,-1.8828835383683442,-1.739135723299533
1772527292381308000,8.682307861328125,-4.622609531521797,-0.5149626157701015,-2.029005242961645
1772527292391289600,8.69228955078125,-3.9486686521947383,0.4719885664403438,-1.863083151616156
1772527292401271800,8.702271728515624,-3.121928490206599,0.15673253045678137,-0.9247542537555098
1772527292411253800,8.712253662109376,-2.9909271978557106,-1.1576321585208176,0.8025444628864526
1772527292421235700,8.722235595703125,-3.648274669778347,-2.358259409159422,2.9345693508177995
1772527292431217700,8.7322177734375,-4.919774615019559,-2.911206010887027,4.491153481140732
1772527292441199900,8.742199951171875,-6.31927433270812,-2.894940228001773,4.779396422514319
1772527292451181600,8.752181640625,-7.326131992393732,-2.5508997038215395,3.896939049479365
1772527292461163800,8.762163818359374,-7.913609809276461,-2.130083106213808,2.7008389208763837
1772527292471146000,8.77214599609375,-8.24963156991303,-1.758232491827011,1.6458961524575948
1772527292481128700,8.782128662109375,-8.275085160121321,-1.4182976493999362,0.8902145630329846
1772527292491111000,8.79211083984375,-7.9806334272354835,-0.9672001875579357,0.6113691992755979
1772527292501092600,8.802092529296875,-7.3249085880786176,-0.39005467185825105,0.6864870571672916
1772527292511074800,8.81207470703125,-6.418613827860355,-0.44204584811925884,0.8166518986940383
1772527292521056800,8.822056884765624,-5.112648133915663,-0.39696751998662944,0.6260182676792144
1772527292531038700,8.832038818359376,-3.4317607475757597,0.2763262936085462,0.5805637997105717
1772527292541021000,8.84202099609375,-1.8062737614184616,0.2630126385271549,0.2748291869185865
1772527292551002600,8.852002685546875,-0.3576543312519789,-0.14234598544687033,-0.2511890758730471
1772527292560984800,8.86198486328125,0.7050982341349125,-0.5030991594970226,-0.7737984070040285
1772527292570966800,8.871966796875,1.507586582919955,-0.5226818118453026,-1.1449445263832807
1772527292580948700,8.88194873046875,2.23231890732944,-0.3807762636423111,-1.3881716834664344
1772527292590931700,8.891931640625,2.7437024955689906,-0.10976444305479525,-1.4875877509862183
1772527292600913700,8.90191357421875,2.9446237118422984,0.3184416802823543,-1.2536135754168032
