time,seconds_elapsed,z,y,x
1772527283786705200,0.087705078125,0.1898421049118042,-1.2545182704925537,1.4794249534606934
1772527283796688100,0.097688232421875,0.28152117133140564,-1.829681634902954,1.2937877178192139
1772527283806670000,0.107670166015625,0.3432072103023529,-2.2599778175354004,0.986187219619751
1772527283816652000,0.117652099609375,0.4108256697654724,-2.4461536407470703,0.6384217739105225
1772527283826634200,0.12763427734375,0.569246768951416,-1.6059213876724243,0.17715878784656525
1772527283836616000,0.137615966796875,0.921687126159668,-1.1645258665084839,-0.09152807295322418
1772527283846598100,0.14759814453125,1.2161990404129028,-0.637430727481842,-0.3232974708080292
1772527283856580400,0.157580322265625,1.3607087135314941,-0.49172893166542053,-0.5656768083572388
1772527283866563000,0.16756298828125,1.3428263664245605,-0.6818892359733582,-0.834676206111908
1772527283876545300,0.177545166015625,1.1795969009399414,-0.9395378232002258,-1.0527433156967163
1772527283886527000,0.18752685546875,1.0443867444992065,-1.1051386594772339,-1.1554324626922607
1772527283896509200,0.19750927734375,0.9794034361839294,-1.1295883655548096,-1.2120152711868286
1772527283906491100,0.2074912109375,0.8920726776123047,-0.9698214530944824,-1.3085044622421265
1772527283916473000,0.21747314453125,0.8841870427131653,-0.5683296918869019,-1.4893174171447754
1772527283926455300,0.227455322265625,0.9074305891990662,-0.0939183384180069,-1.6802878379821777
1772527283936437200,0.237437255859375,0.968100368976593,-0.05750786513090134,-1.6858793497085571
1772527283946420200,0.247420166015625,0.9534544944763184,-0.06656745821237564,-1.6056162118911743
1772527283956402200,0.257402099609375,0.8314609527587891,0.0117380041629076,-1.5633171796798706
1772527283966384000,0.267384033203125,0.628551185131073,0.10399985313415527,-1.6523102521896362
1772527283976366000,0.277365966796875,0.4537162780761719,0.11311452090740204,-1.8390917778015137
1772527283986348000,0.28734814453125,0.4105682075023651,0.14356504380702972,-1.9838430881500244
1772527283996330000,0.297330078125,0.49905943870544434,0.31445080041885376,-1.9755624532699585
1772527284006312200,0.307312255859375,0.603471040725708,0.6166774034500122,-1.8275519609451294
1772527284016295200,0.317295166015625,0.6441958546638489,0.8876263499259949,-1.623669147491455
1772527284026277000,0.327277099609375,0.6302098631858826,1.0933493375778198,-1.4238253831863403
1772527284036259000,0.337259033203125,0.6192687749862671,1.3772436380386353,-1.3615657091140747
1772527284046241000,0.347240966796875,0.6050748825073242,1.5403302907943726,-1.4499062299728394
1772527284056223200,0.35722314453125,0.5503413081169128,1.487395167350769,-1.617154836654663
1772527284066204700,0.36720458984375,0.41410183906555176,1.3973480463027954,-1.835740089416504
1772527284076186600,0.3771865234375,0.20796573162078857,1.3050836324691772,-2.0509538650512695
1772527284086168800,0.3871689453125,-0.07025407254695892,1.227506399154663,-2.2186553478240967
1772527284096151800,0.39715185546875,-0.28545743227005005,1.0013630390167236,-2.3190221786499023
1772527284106133800,0.4071337890625,-0.2721773386001587,0.7669941782951355,-2.232691526412964
1772527284116115700,0.41711572265625,0.002290185075253248,0.6725395321846008,-1.9680635929107666
1772527284126097700,0.42709765625,0.3187490403652191,0.6777902841567993,-1.6650482416152954
1772527284136080000,0.437079833984375,0.5229812860488892,0.6670670509338379,-1.352250099182129
1772527284146061600,0.4470615234375,0.607401430606842,0.5435006022453308,-0.9937727451324463
1772527284156043800,0.457043701171875,0.6023645997047424,0.330768346786499,-0.6366748213768005
1772527284166026000,0.46702587890625,0.5015941262245178,0.059437770396471024,-0.37588560581207275
1772527284176008700,0.4770087890625,0.31776541471481323,-0.3284396529197693,-0.33660024404525757
1772527284185991000,0.486990966796875,-0.04383666813373566,-0.8879793286323547,-0.6166684627532959
1772527284195972600,0.49697265625,-0.6013981699943542,-1.594861626625061,-1.043821930885315
1772527284205954800,0.506954833984375,-1.0636273622512817,-2.206915855407715,-1.276861548423767
1772527284215936800,0.516936767578125,-1.2256181240081787,-2.3796896934509277,-1.1864323616027832
1772527284225918700,0.526918701171875,-1.031751036643982,-1.7186639308929443,-0.7623597383499146
1772527284235901000,0.53690087890625,-0.6634470820426941,-0.3498617708683014,-0.14039044082164764
1772527284245882600,0.546882568359375,-0.31973573565483093,1.3030586242675781,0.6215623021125793
1772527284255865900,0.556865966796875,-0.015241880901157856,2.5706052780151367,1.414402961730957
1772527284265847800,0.566847900390625,0.14606265723705292,2.9446725845336914,2.07838773727417
1772527284275829800,0.576829833984375,0.08399529755115509,2.39444899559021,2.5838449001312256
1772527284285811700,0.586811767578125,-0.0019490933045744896,1.1499007940292358,2.9258251190185547
1772527284295793700,0.596793701171875,0.4655797481536865,0.027785049751400948,3.2087457180023193
1772527284305775900,0.60677587890625,1.298922061920166,-0.2678961157798767,3.198209762573242
1772527284315757800,0.6167578125,2.1964359283447266,0.2294287234544754,2.4658923149108887
1772527284325740800,0.62674072265625,2.808903932571411,1.215723991394043,1.2277944087982178
1772527284335722800,0.63672265625,2.740103244781494,1.994731068611145,-0.1514308899641037
1772527284345704700,0.64670458984375,2.2523348331451416,2.164297103881836,-1.4146696329116821
1772527284355686700,0.656686767578125,1.5124809741973877,2.037771463394165,-2.27705979347229
1772527284365668900,0.6666689453125,0.6182620525360107,1.8797426223754883,-2.628080368041992
1772527284375650800,0.67665087890625,-0.12039916962385178,1.5739901065826416,-2.5205605030059814
1772527284385632800,0.6866328125,-0.5708659291267395,0.9952821135520935,-2.111750602722168
1772527284395615000,0.696614990234375,-0.7145277857780457,0.26761409640312195,-1.5323781967163086
1772527284405597700,0.70659765625,-0.5991143584251404,-0.37568914890289307,-0.8846082091331482
1772527284415580000,0.716579833984375,-0.32389339804649353,-1.0318626165390015,-0.3854503631591797
1772527284425561600,0.7265615234375,-0.021770114079117775,-1.6880874633789062,-0.24345161020755768
1772527284435543800,0.736543701171875,0.1380898505449295,-2.108975410461426,-0.43251287937164307
1772527284445525800,0.74652587890625,0.07495634257793427,-2.2809712886810303,-0.8527777194976807
1772527284455507700,0.7565078125,-0.07994695752859116,-2.106031656265259,-1.3327102661132812
1772527284465490000,0.766489990234375,-0.18810291588306427,-1.4828788042068481,-1.6609324216842651
1772527284475472600,0.77647265625,-0.17776665091514587,-0.6671819090843201,-1.6667951345443726
1772527284485454800,0.786454833984375,-0.04643483832478523,0.03103979304432869,-1.3185770511627197
1772527284495436500,0.7964365234375,0.1252671331167221,0.45472845435142517,-0.7549887895584106
1772527284505418800,0.806418701171875,0.2720637619495392,0.576176106929779,-0.167477086186409
1772527284515400700,0.816400634765625,0.19270449876785278,0.4885151982307434,0.29189157485961914
1772527284525382700,0.826382568359375,-0.12404759973287582,0.19666343927383423,0.47313645482063293
1772527284535364900,0.83636474609375,-0.47400081157684326,-0.12433510273694992,0.40285271406173706
1772527284545346800,0.846346923828125,-0.6750093102455139,-0.15786883234977722,0.23576916754245758
1772527284555329800,0.856329833984375,-0.6964911818504333,0.09216871112585068,0.10719335079193115
1772527284565311700,0.866311767578125,-0.6125982403755188,0.4850998818874359,0.06950417906045914
1772527284575293700,0.876293701171875,-0.4891788363456726,0.8691543340682983,0.10953308641910553
1772527284585275600,0.886275634765625,-0.37497395277023315,1.1769254207611084,0.21955811977386475
1772527284595257900,0.8962578125,-0.32138532400131226,1.3634599447250366,0.3604532480239868
1772527284605239800,0.90623974609375,-0.3306267559528351,1.3401637077331543,0.5269617438316345
1772527284615221800,0.9162216796875,-0.3568309247493744,1.1693930625915527,0.7404596209526062
1772527284625204000,0.926203857421875,-0.37526580691337585,0.9514986276626587,0.9753599762916565
1772527284635186700,0.936186767578125,-0.3536854088306427,0.8245433568954468,1.2125704288482666
1772527284645169000,0.9461689453125,-0.26346638798713684,0.8738605380058289,1.4571645259857178
1772527284655150600,0.956150634765625,-0.10283408313989639,1.089389681816101,1.7299938201904297
1772527284665132800,0.9661328125,0.03405473381280899,1.5990835428237915,1.9166055917739868
1772527284675114800,0.97611474609375,0.1999046951532364,2.364424467086792,1.8918464183807373
1772527284685096700,0.9860966796875,0.32391199469566345,3.295931577682495,1.7013957500457764
1772527284695079000,0.996078857421875,0.3774244785308838,3.9382753372192383,1.38565993309021
1772527284705060600,1.006060546875,0.45995643734931946,3.8953146934509277,0.8595693707466125
1772527284715043800,1.0160439453125,0.6728426218032837,3.0833070278167725,0.14823026955127716
1772527284725025500,1.026025634765625,1.0018973350524902,1.5553348064422607,-0.7276684045791626
1772527284735007700,1.0360078125,1.01639986038208,-0.616277813911438,-1.9391510486602783
1772527284744990000,1.045989990234375,0.5485007166862488,-2.6659913063049316,-3.2607665061950684
1772527284754971600,1.0559716796875,-0.027141539379954338,-3.6495115756988525,-4.442651271820068
1772527284764953900,1.065953857421875,-0.3171645998954773,-2.992515802383423,-5.067975044250488
1772527284774935800,1.075935791015625,-0.17800937592983246,-0.8084248304367065,-4.586758136749268
1772527284784917800,1.085917724609375,0.4752437472343445,1.3491477966308594,-3.0638954639434814
1772527284794900700,1.095900634765625,1.5503387451171875,2.32806134223938,-1.0154249668121338
1772527284804882700,1.105882568359375,2.491415500640869,1.6322746276855469,0.917178750038147
1772527284814865000,1.115864990234375,3.0295042991638184,-0.035545673221349716,2.498904228210449
1772527284824846800,1.125846923828125,2.7864274978637695,-2.072615146636963,3.50809383392334
1772527284834828800,1.135828857421875,1.875609278678894,-4.293187141418457,3.7851133346557617
1772527284844810800,1.145810791015625,1.042477011680603,-5.676477909088135,3.285022497177124
1772527284854793000,1.15579296875,0.6932514309883118,-5.340126991271973,2.1288318634033203
1772527284864774700,1.165774658203125,0.6212666630744934,-3.530665874481201,0.5678350925445557
1772527284874758000,1.1757578125,0.595658004283905,-1.1232432126998901,-0.9643864035606384
1772527284884739800,1.18573974609375,0.40814775228500366,1.0531642436981201,-2.2177350521087646
1772527284894721800,1.1957216796875,0.05226366966962814,2.671363592147827,-3.043581962585449
1772527284904703700,1.205703857421875,-0.4106161594390869,3.511369466781616,-3.443568229675293
1772527284914685700,1.215685791015625,-0.9091005325317383,3.5548994541168213,-3.5364816188812256
1772527284924668000,1.22566796875,-1.3003554344177246,2.933878183364868,-3.288206100463867
1772527284934649600,1.235649658203125,-1.3735315799713135,1.9983071088790894,-2.544247627258301
1772527284944631800,1.2456318359375,-1.2137486934661865,1.019269585609436,-1.3635746240615845
1772527284954614800,1.25561474609375,-0.9467766284942627,0.13562506437301636,0.013606688939034939
1772527284964596700,1.2655966796875,-0.6428683996200562,-0.5554187297821045,1.316688895225525
1772527284974579000,1.275578857421875,-0.38230735063552856,-1.1206448078155518,2.289494752883911
1772527284984560600,1.285560546875,-0.23226357996463776,-1.5365173816680908,2.848750591278076
1772527284994542800,1.29554296875,-0.16736553609371185,-1.7750129699707031,2.9902353286743164
1772527285004524800,1.30552490234375,-0.18656066060066223,-1.8850064277648926,2.7566661834716797
1772527285014506800,1.3155068359375,-0.28326454758644104,-1.8858966827392578,2.2751412391662598
1772527285024488700,1.32548876953125,-0.4395676553249359,-1.7247728109359741,1.6979061365127563
1772527285034471700,1.3354716796875,-0.6278126835823059,-1.4100944995880127,1.1283172369003296
1772527285044454000,1.345453857421875,-0.7960714101791382,-1.0120025873184204,0.6294060945510864
1772527285054435800,1.355435791015625,-0.9078168272972107,-0.6253718137741089,0.23017428815364838
1772527285064418600,1.36541845703125,-0.9750910401344299,-0.30303698778152466,-0.06970258057117462
1772527285074400500,1.375400390625,-0.9867488145828247,0.006015399470925331,-0.23195861279964447
1772527285084382500,1.385382568359375,-0.9471042156219482,0.3019368350505829,-0.27014485001564026
1772527285094364400,1.395364501953125,-0.8802871108055115,0.5052899718284607,-0.2200145572423935
1772527285104346600,1.4053466796875,-0.7911816835403442,0.5481371879577637,-0.12398079037666321
1772527285114329600,1.41532958984375,-0.6842294335365295,0.4578336775302887,0.006600390188395977
1772527285124311600,1.4253115234375,-0.5669190287590027,0.26319849491119385,0.1512414962053299
1772527285134293500,1.43529345703125,-0.4565086364746094,0.041552405804395676,0.27293625473976135
1772527285144275500,1.445275390625,-0.36514005064964294,-0.1342376470565796,0.3676091432571411
1772527285154257400,1.45525732421875,-0.3020894229412079,-0.2536681592464447,0.45545217394828796
1772527285164239400,1.4652392578125,-0.260227233171463,-0.3565015494823456,0.49883323907852173
1772527285174221600,1.4752216796875,-0.19686158001422882,-0.39936405420303345,0.5045238733291626
1772527285184204500,1.48520458984375,-0.06299398839473724,-0.1851091831922531,0.5718485116958618
1772527285194186500,1.4951865234375,0.21009427309036255,0.2781639099121094,0.7006052136421204
1772527285204168400,1.50516845703125,0.585288405418396,0.7969797849655151,0.78657066822052
1772527285214150400,1.515150390625,0.9996563196182251,1.2327038049697876,0.6973627209663391
1772527285224132600,1.525132568359375,1.4150890111923218,1.5515655279159546,0.4745312035083771
1772527285234114300,1.5351142578125,1.8117412328720093,1.7839969396591187,0.28394126892089844
1772527285244096500,1.545096435546875,2.0996220111846924,1.9073622226715088,0.21475674211978912
1772527285254078700,1.55507861328125,2.1495542526245117,1.8944525718688965,0.16245092451572418
1772527285264061400,1.5650615234375,1.9104152917861938,1.442771315574646,-0.11945617198944092
1772527285274043600,1.575043701171875,1.7242525815963745,1.1143795251846313,-0.2656157612800598
1772527285284025300,1.585025390625,1.7000415325164795,1.3231213092803955,-0.023578371852636337
1772527285294007600,1.595007568359375,1.6643879413604736,1.576227068901062,0.252304345369339
1772527285303989500,1.604989501953125,1.284372329711914,1.5894510746002197,0.16031409800052643
1772527285313971500,1.614971435546875,0.4301450252532959,1.2415212392807007,-0.4504733681678772
1772527285323953700,1.62495361328125,-0.5284700393676758,0.19475696980953217,-1.4882797002792358
1772527285333935600,1.634935546875,-1.1229283809661865,-1.182654857635498,-2.718712568283081
1772527285343918600,1.644918701171875,-1.1444244384765625,-1.8480063676834106,-3.737198829650879
1772527285353900500,1.654900634765625,-0.6628753542900085,-1.5968401432037354,-4.40488338470459
1772527285363882500,1.664882568359375,0.15576189756393433,-0.8352725505828857,-4.497920036315918
1772527285373864400,1.674864501953125,0.9833362698554993,0.0321219302713871,-3.866734743118286
1772527285383846400,1.684846435546875,1.5656821727752686,0.5813585519790649,-2.6716694831848145
1772527285393828600,1.69482861328125,1.870728850364685,0.665482223033905,-1.2321724891662598
1772527285403810600,1.704810546875,1.929093599319458,0.4153626263141632,0.20208188891410828
1772527285413792500,1.71479248046875,1.6706687211990356,-0.16748054325580597,1.3997235298156738
1772527285423775500,1.724775390625,1.1703075170516968,-0.9767186641693115,2.114607334136963
1772527285433757400,1.73475732421875,0.6793851852416992,-1.6240953207015991,2.184170961380005
1772527285443739400,1.744739501953125,0.3689436614513397,-1.7572932243347168,1.7695300579071045
1772527285453721600,1.7547216796875,0.2959405481815338,-1.3555388450622559,1.1485799551010132
1772527285463703600,1.76470361328125,0.36578530073165894,-0.628974199295044,0.5721263885498047
1772527285473685500,1.774685546875,0.4369891583919525,0.16451333463191986,0.21003124117851257
1772527285483667700,1.784667724609375,0.44885045289993286,0.8235520720481873,0.11128009110689163
1772527285493650400,1.794650390625,0.4127576947212219,1.1883540153503418,0.2426767349243164
1772527285503632600,1.804632568359375,0.3562861979007721,1.2380098104476929,0.5208565592765808
1772527285513614300,1.8146142578125,0.2784438729286194,1.0202726125717163,0.861405611038208
1772527285523596500,1.824596435546875,0.157773956656456,0.5980865359306335,1.1871592998504639
1772527285533578800,1.834578857421875,0.05312158912420273,0.10834075510501862,1.4413529634475708
1772527285543560400,1.844560546875,-0.012390300631523132,-0.3193010687828064,1.59293794631958
1772527285553542700,1.854542724609375,-0.06618988513946533,-0.5917245745658875,1.656595230102539
1772527285563524600,1.864524658203125,-0.11230209469795227,-0.6579130291938782,1.6343783140182495
1772527285573507600,1.874507568359375,-0.137184277176857,-0.5805239677429199,1.5298542976379395
1772527285583489500,1.884489501953125,-0.14429135620594025,-0.3771175742149353,1.3725786209106445
1772527285593471500,1.894471435546875,-0.1492706686258316,-0.09313962608575821,1.174515962600708
1772527285603453400,1.904453369140625,-0.1616571545600891,0.1363094449043274,0.9731517434120178
1772527285613435400,1.914435302734375,-0.21100233495235443,0.2974624037742615,0.8251127600669861
1772527285623417600,1.92441748046875,-0.30742567777633667,0.36865919828414917,0.6921319365501404
1772527285633399600,1.934399658203125,-0.4092945158481598,0.35123708844184875,0.5603038668632507
1772527285643381500,1.944381591796875,-0.47929883003234863,0.32580307126045227,0.5054240226745605
1772527285653364500,1.954364501953125,-0.4802996516227722,0.3314953148365021,0.4805910885334015
1772527285663346400,1.964346435546875,-0.4574075937271118,0.38937172293663025,0.4028099477291107
1772527285673328400,1.974328369140625,-0.38853344321250916,0.45187878608703613,0.2701115608215332
1772527285683310600,1.984310546875,-0.28281861543655396,0.4870147407054901,0.13210058212280273
1772527285693292500,1.99429248046875,-0.19642381370067596,0.2761310040950775,-0.029933050274848938
1772527285703274500,2.0042744140625,-0.349658727645874,-0.29672491550445557,-0.3067866861820221
1772527285713256700,2.014256591796875,-0.772412121295929,-0.9605681300163269,-0.6988151669502258
1772527285723238400,2.02423828125,-1.248631477355957,-1.3251491785049438,-1.1152749061584473
1772527285733221600,2.0342216796875,-1.5639387369155884,-0.9792442917823792,-1.2794049978256226
1772527285743203300,2.044203369140625,-1.4527387619018555,0.201699897646904,-0.9420993328094482
1772527285753185500,2.054185546875,-0.9825300574302673,1.518258810043335,-0.2392173707485199
1772527285763167700,2.064167724609375,-0.4314473867416382,2.3316125869750977,0.5204718708992004
1772527285773149400,2.0741494140625,-0.201854407787323,2.308979034423828,0.8979677557945251
1772527285783131600,2.084131591796875,-0.40417617559432983,1.5738011598587036,0.7156090140342712
1772527285793113300,2.09411328125,-0.5962476134300232,0.6850776672363281,0.26689672470092773
1772527285803095600,2.104095458984375,-0.45374977588653564,0.30447423458099365,-0.17502112686634064
1772527285813078500,2.11407861328125,-0.11514589190483093,0.26336410641670227,-0.6686058044433594
1772527285823060500,2.124060546875,0.24536186456680298,0.1452273577451706,-1.3298770189285278
1772527285833042700,2.134042724609375,0.4129425883293152,-0.130565345287323,-2.0981645584106445
1772527285843024400,2.1440244140625,0.26595038175582886,-0.6090560555458069,-2.7939453125
1772527285853006600,2.154006591796875,-0.04327617958188057,-1.253320574760437,-3.24617338180542
1772527285862988500,2.163988525390625,-0.3245515525341034,-1.736282467842102,-3.288702964782715
1772527285872970500,2.173970458984375,-0.4690168499946594,-1.9092787504196167,-2.873896598815918
1772527285882953500,2.183953369140625,-0.43559733033180237,-1.8362858295440674,-2.095055103302002
1772527285892935400,2.193935302734375,-0.22776928544044495,-1.5685737133026123,-1.1198580265045166
1772527285902917600,2.203917724609375,0.04477640241384506,-1.1643610000610352,-0.16483213007450104
1772527285912899600,2.213899658203125,0.2881552278995514,-0.7578343152999878,0.5607580542564392
1772527285922881500,2.223881591796875,0.45679840445518494,-0.38317134976387024,1.0450963973999023
1772527285932863500,2.233863525390625,0.5633078217506409,-0.044888902455568314,1.3288788795471191
1772527285942845700,2.243845703125,0.5845284461975098,0.2253875434398651,1.4357571601867676
1772527285952827400,2.253827392578125,0.5367891788482666,0.3922710418701172,1.426095962524414
1772527285962810600,2.263810546875,0.41970258951187134,0.4542175829410553,1.3593381643295288
1772527285972792600,2.27379248046875,0.23039311170578003,0.466006338596344,1.2814390659332275
1772527285982774500,2.2837744140625,-0.01315653882920742,0.436612993478775,1.191798210144043
1772527285992756500,2.293756591796875,-0.2884323000907898,0.36765256524086,1.0611385107040405
1772527286002738400,2.303738525390625,-0.5715530514717102,0.3249238431453705,0.8758009672164917
1772527286012720600,2.313720703125,-0.8080665469169617,0.33404383063316345,0.6408994793891907
1772527286022702300,2.323702392578125,-0.9835352301597595,0.40578174591064453,0.4133751690387726
1772527286032684500,2.3336845703125,-1.0883311033248901,0.5664713382720947,0.24320635199546814
1772527286042667500,2.34366748046875,-1.1140308380126953,0.7460648417472839,0.12285729497671127
1772527286052649500,2.3536494140625,-1.0882948637008667,0.8913136124610901,0.030693810433149338
1772527286062631400,2.36363134765625,-1.0331459045410156,0.9600681066513062,-0.013399318791925907
1772527286072613000,2.373613037109375,-0.9838886260986328,0.9335259795188904,-0.0012337332591414452
1772527286082595300,2.38359521484375,-0.9293624758720398,0.8365597724914551,0.06600251793861389
1772527286092577300,2.393577392578125,-0.8744246363639832,0.6981653571128845,0.15600644052028656
1772527286102559200,2.403559326171875,-0.8057420253753662,0.5317422747612,0.20488953590393066
1772527286112542200,2.413542236328125,-0.7263765931129456,0.3303753435611725,0.18615180253982544
1772527286122524200,2.423524169921875,-0.6655526161193848,0.20338881015777588,0.08851578086614609
1772527286132506400,2.43350634765625,-0.6567564606666565,0.06356806308031082,-0.1499556601047516
1772527286142488300,2.44348828125,-0.7182815074920654,-0.24661098420619965,-0.5094636082649231
1772527286152470300,2.45347021484375,-0.7521054744720459,-0.6407897472381592,-0.8324139714241028
1772527286162452200,2.4634521484375,-0.7237547636032104,-0.9356787800788879,-1.0107403993606567
1772527286172434400,2.473434326171875,-0.697864830493927,-1.095434308052063,-1.0363982915878296
1772527286182416100,2.483416015625,-0.7534728646278381,-1.2491108179092407,-0.9350955486297607
1772527286192399400,2.4933994140625,-0.7822190523147583,-1.3138431310653687,-0.593088686466217
1772527286202381300,2.50338134765625,-0.5995896458625793,-1.0759849548339844,0.03307593986392021
1772527286212363300,2.51336328125,-0.2749638259410858,-0.6395745873451233,0.6570069193840027
1772527286222345500,2.523345458984375,0.021330464631319046,-0.41234245896339417,0.9501931667327881
1772527286232327200,2.5333271484375,0.19847355782985687,-0.2926032841205597,0.9751845598220825
1772527286242309400,2.543309326171875,0.2590416371822357,-0.18191270530223846,0.8256351351737976
1772527286252291300,2.553291259765625,0.12053199112415314,-0.2902045249938965,0.5087789297103882
1772527286262273300,2.563273193359375,-0.10105635970830917,-0.6725523471832275,0.059972938150167465
1772527286272256300,2.57325634765625,-0.28204506635665894,-1.0078094005584717,-0.44906288385391235
1772527286282238200,2.58323828125,-0.4820750653743744,-1.2690863609313965,-0.9720638394355774
1772527286292220400,2.593220458984375,-0.6628714799880981,-1.5446891784667969,-1.4763977527618408
1772527286302202000,2.6032021484375,-0.6985926032066345,-1.6657733917236328,-1.805260181427002
1772527286312184300,2.613184326171875,-0.5733143091201782,-1.4891908168792725,-1.8234903812408447
1772527286322166300,2.623166259765625,-0.3438803553581238,-1.0843225717544556,-1.6054784059524536
1772527286332148200,2.633148193359375,-0.122376449406147,-0.6425483226776123,-1.2647309303283691
1772527286342130200,2.643130126953125,0.021382948383688927,-0.27654537558555603,-0.9031610488891602
1772527286352113200,2.653113037109375,0.06334930658340454,-0.03683529794216156,-0.6327332854270935
1772527286362095400,2.663095458984375,0.007544240448623896,0.10181756317615509,-0.49401628971099854
1772527286372077300,2.673077392578125,-0.055349502712488174,0.05344443395733833,-0.43603795766830444
1772527286382059300,2.683059326171875,-0.033997707068920135,-0.18633908033370972,-0.3728434443473816
1772527286392041200,2.693041259765625,0.03746955096721649,-0.5390750169754028,-0.2309025675058365
1772527286402023400,2.7030234375,0.12258549779653549,-0.9531943202018738,-0.006661707069724798
1772527286412005000,2.713005126953125,0.19833031296730042,-1.396267056465149,0.28128594160079956
1772527286421988400,2.72298828125,0.30603691935539246,-1.8366025686264038,0.6291249990463257
1772527286431970300,2.73297021484375,0.47282829880714417,-2.2244837284088135,1.036608099937439
1772527286441952300,2.7429521484375,0.673361599445343,-2.4899797439575195,1.4988306760787964
1772527286451934500,2.7529345703125,0.820862889289856,-2.5921664237976074,1.9995046854019165
1772527286461916200,2.762916259765625,0.8706726431846619,-2.525411367416382,2.471339225769043
1772527286471898400,2.7728984375,0.784896731376648,-2.3013007640838623,2.837932586669922
1772527286481880000,2.782880126953125,0.6073125600814819,-1.947094202041626,3.0562589168548584
1772527286491862300,2.7928623046875,0.39971351623535156,-1.4904524087905884,3.1326608657836914
1772527286501845200,2.80284521484375,0.20761814713478088,-0.9957456588745117,3.0957858562469482
1772527286511827200,2.8128271484375,0.04761543869972229,-0.4962186813354492,2.9426333904266357
1772527286521809400,2.822809326171875,-0.07531894743442535,-0.042100466787815094,2.6913623809814453
1772527286531791000,2.832791015625,-0.16730347275733948,0.3260490596294403,2.4116101264953613
1772527286541773300,2.842773193359375,-0.23754316568374634,0.5940834879875183,2.162567615509033
1772527286551755300,2.85275537109375,-0.2984504699707031,0.7660211324691772,1.9541574716567993
1772527286561737200,2.8627373046875,-0.3430037498474121,0.8793736100196838,1.754024624824524
1772527286571719200,2.87271923828125,-0.3552582859992981,0.9133188128471375,1.514849305152893
1772527286581702100,2.8827021484375,-0.3644483983516693,0.9044640064239502,1.2228115797042847
1772527286591684400,2.892684326171875,-0.4233740270137787,0.7868601083755493,0.8629897832870483
1772527286601666300,2.902666259765625,-0.5226916670799255,0.4886411130428314,0.5058749318122864
1772527286611648300,2.912648193359375,-0.5668807029724121,0.11132098734378815,0.3449656665325165
1772527286621630200,2.922630126953125,-0.5298259258270264,-0.3087575435638428,0.39944323897361755
1772527286631612400,2.9326123046875,-0.48031774163246155,-0.7950617074966431,0.5348024368286133
1772527286641594000,2.942593994140625,-0.5279964208602905,-1.402978539466858,0.5920474529266357
1772527286651577300,2.952577392578125,-0.7162550091743469,-2.101421356201172,0.5433787107467651
1772527286661559300,2.962559326171875,-0.9645748734474182,-2.6830925941467285,0.42214739322662354
1772527286671541200,2.972541259765625,-1.1210089921951294,-3.0617928504943848,0.3099774420261383
1772527286681523200,2.982523193359375,-1.1953041553497314,-3.0149035453796387,0.44107091426849365
1772527286691505200,2.992505126953125,-1.1122822761535645,-2.463460922241211,0.9307564496994019
1772527286701487400,3.0024873046875,-0.8256042003631592,-1.6030558347702026,1.6198252439498901
1772527286711469000,3.012468994140625,-0.48132672905921936,-0.7816246151924133,2.084895133972168
1772527286721451300,3.022451171875,-0.22048188745975494,-0.18098430335521698,2.042736053466797
1772527286731433200,3.03243310546875,-0.05496776103973389,0.2032717615365982,1.5342729091644287
1772527286741416200,3.042416259765625,0.007185807917267084,0.3934439718723297,0.7132190465927124
1772527286751398400,3.0523984375,-0.0667310282588005,0.48566949367523193,-0.21390481293201447
1772527286761380000,3.062380126953125,-0.1899489164352417,0.5566335320472717,-1.0725445747375488
1772527286771362300,3.0723623046875,-0.23584289848804474,0.6301663517951965,-1.7986817359924316
1772527286781344300,3.08234423828125,-0.2017168253660202,0.6982157826423645,-2.3783459663391113
1772527286791326200,3.092326171875,-0.18989798426628113,0.7615470886230469,-2.859074592590332
1772527286801308200,3.10230810546875,-0.2762370705604553,0.8129248023033142,-3.3074820041656494
1772527286811291100,3.112291015625,-0.5131396651268005,0.9363279342651367,-3.768038749694824
1772527286821273300,3.1222734375,-0.8257554769515991,1.0803414583206177,-4.1975860595703125
1772527286831255300,3.13225537109375,-1.1005288362503052,1.2692676782608032,-4.47066068649292
1772527286841237200,3.1422373046875,-1.2664638757705688,1.494829773902893,-4.4965291023254395
1772527286851219200,3.15221923828125,-1.3227146863937378,1.7011488676071167,-4.245291709899902
1772527286861201400,3.162201416015625,-1.2564855813980103,1.8453147411346436,-3.741711378097534
1772527286871183000,3.17218310546875,-1.1094648838043213,1.8786792755126953,-3.064054250717163
1772527286881165300,3.182165283203125,-0.9257909655570984,1.7790274620056152,-2.310746192932129
1772527286891147300,3.192147216796875,-0.735885739326477,1.5012686252593994,-1.57575261592865
1772527286901130200,3.202130126953125,-0.5645822882652283,1.0850976705551147,-0.8975213170051575
1772527286911112200,3.2121123046875,-0.43513426184654236,0.5980728268623352,-0.31749704480171204
1772527286921094100,3.22209423828125,-0.3442672789096832,0.052434735000133514,0.14162349700927734
1772527286931076400,3.232076416015625,-0.2730865776538849,-0.4975855350494385,0.4857449233531952
1772527286941058000,3.24205810546875,-0.217128187417984,-0.9645358920097351,0.7469002604484558
1772527286951040300,3.252040283203125,-0.1815108060836792,-1.2685705423355103,0.95953369140625
1772527286961022500,3.2620224609375,-0.1865156888961792,-1.3733774423599243,1.159080147743225
1772527286971005200,3.272005126953125,-0.22434110939502716,-1.2781816720962524,1.315478801727295
1772527286980987400,3.2819873046875,-0.25615423917770386,-1.0639593601226807,1.4077441692352295
1772527286990969000,3.291968994140625,-0.28394830226898193,-0.851655900478363,1.4419499635696411
1772527287000951300,3.301951416015625,-0.2936668395996094,-0.6935100555419922,1.441693902015686
1772527287010933200,3.311933349609375,-0.3142554759979248,-0.5970389246940613,1.4114711284637451
1772527287020915200,3.321915283203125,-0.32896357774734497,-0.5606468319892883,1.3598650693893433
1772527287030897400,3.3318974609375,-0.3326430022716522,-0.6028316020965576,1.303324818611145
1772527287040879400,3.34187939453125,-0.3295705318450928,-0.7233982086181641,1.2854704856872559
1772527287050862300,3.3518623046875,-0.33558130264282227,-0.9325810074806213,1.332179069519043
1772527287060844300,3.36184423828125,-0.33386531472206116,-1.2259377241134644,1.4512473344802856
1772527287070825700,3.37182568359375,-0.3502703905105591,-1.5610963106155396,1.5652810335159302
1772527287080808000,3.381807861328125,-0.4562757611274719,-2.0206189155578613,1.582916498184204
1772527287090790000,3.391789794921875,-0.6985613703727722,-2.549421548843384,1.5370616912841797
1772527287100771800,3.401771728515625,-1.0295372009277344,-2.929762601852417,1.4775203466415405
1772527287110753800,3.41175390625,-1.3424979448318481,-3.022634506225586,1.3573590517044067
1772527287120736000,3.421736083984375,-1.671170711517334,-2.760120153427124,1.2085940837860107
1772527287130718700,3.43171875,-2.0292248725891113,-2.121736764907837,1.101867914199829
1772527287140701000,3.441700927734375,-2.389907121658325,-1.0394561290740967,1.1258113384246826
1772527287150683000,3.451682861328125,-2.6652474403381348,0.22004160284996033,1.2519971132278442
1772527287160664800,3.461664794921875,-2.5879530906677246,1.1649386882781982,1.3068798780441284
1772527287170646800,3.471646728515625,-2.2301201820373535,1.8579269647598267,1.3548649549484253
1772527287180628700,3.481628662109375,-1.6873180866241455,2.221583127975464,1.4047554731369019
1772527287190611000,3.49161083984375,-1.0436859130859375,2.4006094932556152,1.4617407321929932
1772527287200592600,3.501592529296875,-0.4494291841983795,2.096881628036499,1.4183695316314697
1772527287210574800,3.511574951171875,0.06202530860900879,1.3137279748916626,1.2117573022842407
1772527287220557600,3.5215576171875,0.41750332713127136,0.42563530802726746,0.9696676135063171
1772527287230539800,3.531539794921875,0.6239824891090393,-0.20621322095394135,0.865740954875946
1772527287240522000,3.54152197265625,0.7698017358779907,-0.5187768936157227,0.8669606447219849
1772527287250503700,3.551503662109375,0.9082978367805481,-0.60451340675354,0.8657981753349304
1772527287260486000,3.56148583984375,1.0322977304458618,-0.5122234225273132,0.8127211332321167
1772527287270467800,3.5714677734375,1.1496549844741821,-0.2547453045845032,0.6766980290412903
1772527287280449800,3.58144970703125,1.2677757740020752,0.050141073763370514,0.4233305752277374
1772527287290431700,3.591431640625,1.380555272102356,0.3693062663078308,0.10288865119218826
1772527287300414700,3.601414794921875,1.4721972942352295,0.7522879838943481,-0.23460035026073456
1772527287310397000,3.61139697265625,1.5164650678634644,1.209183931350708,-0.5736764073371887
1772527287320379000,3.62137890625,1.476184606552124,1.6152435541152954,-0.93099445104599
1772527287330360800,3.63136083984375,1.342589259147644,1.865801453590393,-1.2072604894638062
1772527287340342800,3.6413427734375,1.1531150341033936,2.0071983337402344,-1.3078988790512085
1772527287350325000,3.651324951171875,0.9614351391792297,2.066441774368286,-1.2435431480407715
1772527287360306700,3.661306640625,0.7914046049118042,2.0564584732055664,-1.0628421306610107
1772527287370289000,3.671288818359375,0.6575157642364502,2.007751703262329,-0.8220530152320862
1772527287380271900,3.68127197265625,0.5867759585380554,1.9142227172851562,-0.5536146759986877
1772527287390253800,3.69125390625,0.5759688019752502,1.7890464067459106,-0.2795277237892151
1772527287400235800,3.70123583984375,0.6149073839187622,1.6393487453460693,-0.027371089905500412
1772527287410217700,3.7112177734375,0.6689198017120361,1.4413917064666748,0.15574173629283905
1772527287420200000,3.721199951171875,0.7311820983886719,1.183311104774475,0.2541505992412567
1772527287430181600,3.731181640625,0.7822332978248596,0.8966156840324402,0.2742801010608673
1772527287440163800,3.741163818359375,0.8066735863685608,0.6578656435012817,0.23251430690288544
1772527287450145800,3.751145751953125,0.8069284558296204,0.5035415291786194,0.12491834163665771
1772527287460128800,3.761128662109375,0.774466335773468,0.4213801920413971,-0.04749276489019394
1772527287470111000,3.771111083984375,0.7316107749938965,0.47449907660484314,-0.2762351334095001
1772527287480092700,3.7810927734375,0.6885590553283691,0.6326928734779358,-0.5370901226997375
1772527287490075000,3.791074951171875,0.6714791655540466,0.9217004179954529,-0.7996751666069031
1772527287500056800,3.801056884765625,0.6717566251754761,1.3091447353363037,-1.0234981775283813
1772527287510038800,3.811038818359375,0.691335141658783,1.7153090238571167,-1.1998732089996338
1772527287520020700,3.821020751953125,0.7486809492111206,2.0129683017730713,-1.3406118154525757
1772527287530003000,3.8310029296875,0.8580319285392761,2.1224071979522705,-1.4413400888442993
1772527287539986000,3.84098583984375,1.0370935201644897,2.040173292160034,-1.426932692527771
1772527287549968000,3.8509677734375,1.2785139083862305,1.8781558275222778,-1.2336788177490234
1772527287559949800,3.86094970703125,1.526940107345581,1.6417906284332275,-0.8975145220756531
1772527287569931800,3.870931884765625,1.6748318672180176,1.2571018934249878,-0.6003696322441101
1772527287579913700,3.880913818359375,1.5917166471481323,0.6578067541122437,-0.561137318611145
1772527287589895700,3.890895751953125,1.210829734802246,-0.08320746570825577,-0.7744194865226746
1772527287599878000,3.9008779296875,0.6524122953414917,-0.7748236060142517,-1.0141226053237915
1772527287609859600,3.910859619140625,0.09881562739610672,-1.2182977199554443,-1.061907410621643
1772527287619842800,3.9208427734375,-0.2628878653049469,-1.1957693099975586,-0.7903499007225037
1772527287629824800,3.93082470703125,-0.4152531921863556,-0.732124924659729,-0.09784650802612305
1772527287639806700,3.940806640625,-0.3954088091850281,-0.20425155758857727,0.9069997668266296
1772527287649789000,3.950788818359375,-0.18564732372760773,-0.10524480789899826,1.8115962743759155
1772527287659770600,3.9607705078125,0.059761688113212585,-0.6033944487571716,2.160259246826172
1772527287669752800,3.9707529296875,0.20177608728408813,-1.2924517393112183,1.9483795166015625
1772527287679734800,3.98073486328125,0.24145320057868958,-1.652793049812317,1.4224536418914795
1772527287689716700,3.990716796875,0.2738896906375885,-1.4812077283859253,0.846544086933136
1772527287699700000,4.000699951171875,0.3800690472126007,-0.8962769508361816,0.33871927857398987
1772527287709681700,4.010681640625,0.5753466486930847,-0.13125868141651154,-0.0938534289598465
1772527287719663900,4.020663818359375,0.8521828651428223,0.509032666683197,-0.41561418771743774
1772527287729645800,4.030645751953125,1.1225552558898926,0.8102896809577942,-0.6237836480140686
1772527287739627800,4.040627685546875,1.306395173072815,0.73448246717453,-0.8443006873130798
1772527287749609700,4.050609619140625,1.350320816040039,0.4612565338611603,-1.1024187803268433
1772527287759592000,4.060592041015625,1.2821084260940552,0.19566358625888824,-1.3187079429626465
1772527287769574000,4.070573974609375,1.175339698791504,0.024876128882169724,-1.4724133014678955
1772527287779556900,4.080556884765625,1.047173261642456,-0.00689906720072031,-1.568955659866333
1772527287789538800,4.090538818359375,0.928950846195221,0.12304481863975525,-1.5554255247116089
1772527287799520800,4.100520751953125,0.8418612480163574,0.39149385690689087,-1.434577226638794
1772527287809502700,4.110502685546875,0.7627539038658142,0.7072225213050842,-1.2625354528427124
1772527287819484700,4.120484619140625,0.666973888874054,0.9862779378890991,-1.0679932832717896
1772527287829467000,4.130466796875,0.5910330414772034,1.2458909749984741,-0.8321619629859924
1772527287839448600,4.140448486328125,0.5248954892158508,1.533186435699463,-0.5691193342208862
1772527287849430800,4.1504306640625,0.48987680673599243,1.7278773784637451,-0.2951149344444275
1772527287859413000,4.1604130859375,0.5042213797569275,1.7430371046066284,-0.031139209866523743
1772527287869395700,4.170395751953125,0.5251980423927307,1.5922257900238037,0.18143749237060547
1772527287879378000,4.1803779296875,0.5644189715385437,1.3328057527542114,0.32546335458755493
1772527287889359600,4.190359619140625,0.6629815101623535,1.060874104499817,0.46549874544143677
1772527287899341800,4.200341796875,0.7961418032646179,0.8788998126983643,0.5955331325531006
1772527287909323800,4.21032373046875,0.9279565215110779,0.7531783580780029,0.6776106953620911
1772527287919305700,4.2203056640625,1.0215318202972412,0.6254850625991821,0.6995807886123657
1772527287929288000,4.230287841796875,1.0651190280914307,0.5114982724189758,0.6671248078346252
1772527287939270000,4.240269775390625,1.0485903024673462,0.41325828433036804,0.6024976968765259
1772527287949252900,4.2502529296875,0.9834576845169067,0.30995211005210876,0.5282679796218872
1772527287959234800,4.26023486328125,0.8708764314651489,0.17495037615299225,0.42075684666633606
1772527287969216800,4.270216796875,0.7175305485725403,0.08125875890254974,0.2781650722026825
1772527287979198700,4.28019873046875,0.566245436668396,0.06148559972643852,0.14674121141433716
1772527287989181000,4.290180908203125,0.46094754338264465,0.14960773289203644,0.053172383457422256
1772527287999163000,4.300162841796875,0.3914657235145569,0.29366183280944824,-0.026034686714410782
1772527288009144800,4.310144775390625,0.33093979954719543,0.4728688597679138,-0.11419330537319183
1772527288019126800,4.320126708984375,0.31798338890075684,0.6522139310836792,-0.19898872077465057
1772527288029109800,4.33010986328125,0.3750024735927582,0.7211101651191711,-0.2934989929199219
1772527288039091700,4.340091796875,0.4095984697341919,0.5797972083091736,-0.3881830871105194
1772527288049073700,4.35007373046875,0.35901758074760437,0.17988042533397675,-0.4856233596801758
1772527288059055900,4.360055908203125,0.18141835927963257,-0.33642637729644775,-0.5596795082092285
1772527288069038000,4.3700380859375,-0.1033308207988739,-0.8382260799407959,-0.5507456660270691
1772527288079020300,4.380020263671875,-0.4850538372993469,-1.2331268787384033,-0.4688780903816223
1772527288089002200,4.390002197265625,-0.905550479888916,-1.5656360387802124,-0.38810813426971436
1772527288098984200,4.399984130859375,-1.2101850509643555,-1.7185105085372925,-0.27361392974853516
1772527288108966100,4.409966064453125,-1.3007868528366089,-1.5240747928619385,-0.03618355095386505
1772527288118949000,4.41994921875,-1.2128825187683105,-1.0646638870239258,0.2895963191986084
1772527288128931300,4.429931396484375,-0.9077020287513733,-0.3866821229457855,0.5961674451828003
1772527288138913300,4.439913330078125,-0.40106841921806335,0.4065500497817993,0.8467669486999512
1772527288148895200,4.449895263671875,0.04832374304533005,1.044150710105896,1.243017554283142
1772527288158877200,4.459877197265625,0.25262629985809326,1.160982608795166,1.462267518043518
1772527288168859100,4.469859130859375,0.0152566097676754,0.6759272813796997,1.1009668111801147
1772527288178841000,4.479841064453125,-0.6270463466644287,-0.30144625902175903,0.29707473516464233
1772527288188823300,4.4898232421875,-1.2961575984954834,-1.2055963277816772,-0.5628340840339661
1772527288198806300,4.49980615234375,-1.7468432188034058,-1.6831049919128418,-1.2094982862472534
1772527288208788200,4.509788330078125,-2.0048789978027344,-1.637822151184082,-1.5671606063842773
1772527288218770200,4.519770263671875,-2.129378318786621,-1.171902060508728,-1.6450084447860718
1772527288228752100,4.529752197265625,-2.1368408203125,-0.4967305660247803,-1.5943979024887085
1772527288238734300,4.539734375,-2.0733253955841064,0.2127278447151184,-1.5728247165679932
1772527288248716000,4.549716064453125,-1.982125997543335,0.8612110018730164,-1.6393579244613647
1772527288258698200,4.5596982421875,-1.8470820188522339,1.2893599271774292,-1.8063160181045532
1772527288268680200,4.56968017578125,-1.6818925142288208,1.481161117553711,-2.0291974544525146
1772527288278662100,4.579662109375,-1.5121204853057861,1.4692714214324951,-2.2485620975494385
1772527288288645400,4.589645263671875,-1.3864240646362305,1.289781093597412,-2.409108877182007
1772527288298627000,4.599626953125,-1.3259707689285278,0.9579218626022339,-2.4595158100128174
1772527288308609300,4.609609375,-1.288950800895691,0.5035788416862488,-2.36887526512146
1772527288318591200,4.61959130859375,-1.2529608011245728,-0.017571093514561653,-2.1172714233398438
1772527288328573200,4.6295732421875,-1.1612536907196045,-0.46023160219192505,-1.6644985675811768
1772527288338555100,4.63955517578125,-0.9844805598258972,-0.7850046753883362,-1.0744396448135376
1772527288348537000,4.649537109375,-0.7549852728843689,-0.9829962849617004,-0.45593154430389404
1772527288358519000,4.65951904296875,-0.5210551023483276,-1.0682244300842285,0.09938493371009827
1772527288368502000,4.669501953125,-0.31144726276397705,-1.0752633810043335,0.5518730282783508
1772527288378484200,4.679484130859375,-0.13381482660770416,-1.025474190711975,0.8879950046539307
1772527288388466200,4.689466064453125,0.008927933871746063,-0.9352071285247803,1.1176966428756714
1772527288398448000,4.6994482421875,0.12472791969776154,-0.8084335327148438,1.2368241548538208
1772527288408430000,4.70943017578125,0.19051198661327362,-0.6069784760475159,1.2623716592788696
1772527288418412300,4.719412353515625,0.2214193195104599,-0.3680201768875122,1.2161107063293457
1772527288428394000,4.72939404296875,0.21776972711086273,-0.10573264956474304,1.1272101402282715
1772527288438376200,4.739376220703125,0.1977589875459671,0.18104980885982513,1.0215827226638794
1772527288448358400,4.7493583984375,0.1645301878452301,0.4527058005332947,0.8956546187400818
1772527288458341000,4.759341064453125,0.11485440284013748,0.666589617729187,0.7734779715538025
1772527288468323300,4.7693232421875,0.058548517525196075,0.806618869304657,0.6830423474311829
1772527288478305000,4.779304931640625,-0.00475936708971858,0.8657681345939636,0.6029121279716492
1772527288488287200,4.789287353515625,-0.053192682564258575,0.9478150606155396,0.5540199279785156
1772527288498269200,4.799269287109375,-0.03956058621406555,1.0890395641326904,0.5195260047912598
1772527288508251100,4.809251220703125,0.027635762467980385,1.1799732446670532,0.42625224590301514
1772527288518233300,4.8192333984375,0.07534255087375641,1.1242164373397827,0.19789737462997437
1772527288528215300,4.82921533203125,0.08331792056560516,1.0201632976531982,-0.09745997935533524
1772527288538198300,4.8391982421875,0.06952959299087524,0.9431743621826172,-0.39188912510871887
1772527288548180200,4.84918017578125,-0.018435422331094742,0.9765469431877136,-0.7710265517234802
1772527288558162200,4.859162109375,-0.19698618352413177,1.1134026050567627,-1.3480830192565918
1772527288568144100,4.86914404296875,-0.65903240442276,1.0225656032562256,-2.2251787185668945
1772527288578126000,4.8791259765625,-1.529923915863037,0.21974729001522064,-3.2739381790161133
1772527288588108300,4.8891083984375,-2.434993267059326,-0.9418780207633972,-3.856916666030884
1772527288598090200,4.89909033203125,-2.7341203689575195,-1.2103708982467651,-3.227250576019287
1772527288608072200,4.909072265625,-2.0804357528686523,-0.05686608701944351,-1.4804973602294922
1772527288618054100,4.91905419921875,-1.1638457775115967,1.7275564670562744,0.4887002110481262
1772527288628037000,4.929037109375,-0.618618369102478,3.1065258979797363,1.9490495920181274
1772527288638019000,4.93901904296875,-0.3779808282852173,3.537503242492676,2.534308671951294
1772527288648001300,4.949001220703125,-0.3421895503997803,3.1924095153808594,2.5433297157287598
1772527288657983000,4.95898291015625,-0.4115002453327179,2.0829594135284424,2.1882526874542236
1772527288667965200,4.968965087890625,-0.43057113885879517,0.47167426347732544,1.6857502460479736
1772527288677947400,4.978947509765625,-0.27261215448379517,-0.9964897632598877,1.3882235288619995
1772527288687929000,4.98892919921875,0.003890544641762972,-1.948344349861145,1.3945761919021606
1772527288697911300,4.998911376953125,0.2449481189250946,-2.3241899013519287,1.4203213453292847
1772527288707893200,5.008893310546875,0.41244205832481384,-2.029540777206421,1.2684422731399536
1772527288717876200,5.018876220703125,0.5549734830856323,-1.3326506614685059,0.8819946050643921
1772527288727858200,5.028858154296875,0.6114668250083923,-0.5477277636528015,0.3562255799770355
1772527288737840000,5.038840087890625,0.5291809439659119,0.038984235376119614,-0.10914647579193115
1772527288747822300,5.048822265625,0.34862762689590454,0.3128642439842224,-0.34661123156547546
1772527288757804000,5.058803955078125,0.13736441731452942,0.2174968719482422,-0.2920185923576355
1772527288767786200,5.0687861328125,-0.053578104823827744,-0.13547129929065704,0.043170858174562454
1772527288777768200,5.078768310546875,-0.17251457273960114,-0.6098591685295105,0.5426530838012695
1772527288787750100,5.088750244140625,-0.26545968651771545,-1.1238130331039429,1.0694342851638794
1772527288797732000,5.098732177734375,-0.34506842494010925,-1.580688714981079,1.515451431274414
1772527288807715000,5.108715087890625,-0.3676706850528717,-1.8412302732467651,1.8572572469711304
1772527288817697300,5.118697265625,-0.31141626834869385,-1.7976117134094238,2.0672810077667236
1772527288827679200,5.12867919921875,-0.1707124263048172,-1.4404720067977905,2.1425063610076904
1772527288837661200,5.1386611328125,0.04714971035718918,-0.879912257194519,2.100602388381958
1772527288847643100,5.14864306640625,0.2629043757915497,-0.20874615013599396,1.9844681024551392
1772527288857625300,5.158625244140625,0.40986543893814087,0.48079442977905273,1.8125520944595337
1772527288867607000,5.16860693359375,0.46473294496536255,1.060585856437683,1.5895826816558838
1772527288877589200,5.17858935546875,0.41658639907836914,1.4847692251205444,1.3068654537200928
1772527288887572200,5.188572265625,0.2857498228549957,1.7664607763290405,0.9610787034034729
1772527288897554200,5.19855419921875,0.09364395588636398,1.8771064281463623,0.5693978071212769
1772527288907536400,5.208536376953125,-0.14357924461364746,1.8465272188186646,0.177008718252182
1772527288917518000,5.21851806640625,-0.4310256838798523,1.7429264783859253,-0.20535463094711304
1772527288927500300,5.228500244140625,-0.7221230268478394,1.5759631395339966,-0.5949564576148987
1772527288937482200,5.238482177734375,-1.0403136014938354,1.334328293800354,-0.995730459690094
1772527288947464200,5.248464111328125,-1.3438005447387695,1.0598576068878174,-1.3514553308486938
1772527288957446100,5.258446044921875,-1.5728042125701904,0.8872076869010925,-1.6038872003555298
1772527288967428000,5.268427978515625,-1.6690270900726318,0.8644664287567139,-1.7360327243804932
1772527288977411300,5.278411376953125,-1.6402486562728882,0.8135144114494324,-1.8088854551315308
1772527288987393000,5.28839306640625,-1.4851571321487427,0.7830214500427246,-1.791017770767212
1772527288997375200,5.298375244140625,-1.195755124092102,0.8339300751686096,-1.6807665824890137
1772527289007357200,5.308357177734375,-0.7617906332015991,0.9564325213432312,-1.509197473526001
1772527289017339100,5.318339111328125,-0.2521185278892517,0.9726704955101013,-1.3895769119262695
1772527289027321000,5.328321044921875,0.12918861210346222,0.6613631844520569,-1.4549622535705566
1772527289037303300,5.33830322265625,0.21244913339614868,-0.17076602578163147,-1.7465485334396362
1772527289047285000,5.348284912109375,-0.028750166296958923,-1.5159368515014648,-2.136619806289673
1772527289057267200,5.35826708984375,-0.4434346556663513,-3.1637141704559326,-2.4146554470062256
1772527289067249400,5.36824951171875,-0.7601803541183472,-4.717599391937256,-2.456430196762085
1772527289077231400,5.3782314453125,-0.8289527893066406,-5.88210391998291,-2.223736524581909
1772527289087213300,5.38821337890625,-0.654673159122467,-6.425919532775879,-1.6670721769332886
1772527289097195300,5.3981953125,-0.3437879681587219,-6.5008745193481445,-0.9797372221946716
1772527289107177500,5.408177490234375,-0.02313324436545372,-6.195286750793457,-0.3859974443912506
1772527289117159400,5.418159423828125,0.16162562370300293,-5.449141502380371,-0.10933566838502884
1772527289127141400,5.428141357421875,0.06510894000530243,-4.238326549530029,-0.294981449842453
1772527289137123300,5.438123291015625,-0.1469322144985199,-2.8466696739196777,-0.9773291349411011
1772527289147105500,5.44810546875,-0.2618369460105896,-1.3407983779907227,-1.8889623880386353
1772527289157088300,5.458088134765625,-0.19002267718315125,0.013341717422008514,-2.646550416946411
1772527289167070500,5.468070556640625,-0.09637662768363953,0.7281517386436462,-2.9768855571746826
1772527289177052400,5.478052490234375,-0.08984009176492691,0.9806945323944092,-2.707021713256836
1772527289187034400,5.488034423828125,-0.11504771560430527,0.8315447568893433,-1.8206992149353027
1772527289197016600,5.4980166015625,-0.14173747599124908,0.3014024496078491,-0.5789207220077515
1772527289206998300,5.507998291015625,-0.18604926764965057,-0.4528553783893585,0.6578249335289001
1772527289216980500,5.51798046875,-0.3088047504425049,-1.0736488103866577,1.5924091339111328
1772527289226962400,5.52796240234375,-0.47020429372787476,-1.2698910236358643,2.1063170433044434
1772527289236944400,5.5379443359375,-0.5757039785385132,-1.128106951713562,2.2471871376037598
1772527289246927600,5.547927734375,-0.6015470623970032,-0.7480651140213013,2.102935552597046
1772527289256909300,5.557909423828125,-0.5221174955368042,-0.24115920066833496,1.774950385093689
1772527289266891500,5.5678916015625,-0.3962003290653229,0.2789556086063385,1.3844987154006958
1772527289276873500,5.57787353515625,-0.30330803990364075,0.6981415152549744,1.0273998975753784
1772527289286855400,5.58785546875,-0.2925560474395752,0.9532150626182556,0.7453306317329407
1772527289296837400,5.59783740234375,-0.352034330368042,1.0955042839050293,0.5801349878311157
1772527289306819300,5.6078193359375,-0.3922044038772583,1.1813324689865112,0.5604246854782104
1772527289316801300,5.61780126953125,-0.3917677402496338,1.2147237062454224,0.659952700138092
1772527289326783500,5.627783447265625,-0.35458096861839294,1.2250479459762573,0.8343732357025146
1772527289336766500,5.637766357421875,-0.30577319860458374,1.220416784286499,1.0300812721252441
1772527289346748400,5.64774853515625,-0.2729388475418091,1.1949900388717651,1.194999098777771
1772527289356730400,5.65773046875,-0.2711960971355438,1.1133742332458496,1.2893227338790894
1772527289366712300,5.66771240234375,-0.2917594313621521,0.9611175656318665,1.3000025749206543
1772527289376694500,5.677694580078125,-0.3319564759731293,0.7883526086807251,1.2519848346710205
1772527289386676200,5.68767626953125,-0.38750922679901123,0.5927250385284424,1.1538859605789185
1772527289396658400,5.697658447265625,-0.44613534212112427,0.4215331971645355,1.0183542966842651
1772527289406640400,5.707640380859375,-0.5025973320007324,0.26988455653190613,0.8546052575111389
1772527289416622300,5.717622314453125,-0.5458378791809082,0.1873781532049179,0.6945923566818237
1772527289426605600,5.72760546875,-0.5659521818161011,0.2563484311103821,0.5739859938621521
1772527289436587300,5.737587158203125,-0.5335840582847595,0.49302929639816284,0.4708302617073059
1772527289446569500,5.747569580078125,-0.4504518508911133,0.805475115776062,0.34180542826652527
1772527289456551400,5.757551513671875,-0.3403658866882324,1.109753131866455,0.20411761105060577
1772527289466533400,5.767533447265625,-0.2007238119840622,1.3688938617706299,0.09857360273599625
1772527289476515300,5.777515380859375,0.016970302909612656,1.5907275676727295,0.042758677154779434
1772527289486497300,5.787497314453125,0.34421607851982117,1.8339388370513916,-0.03297603130340576
1772527289496479200,5.797479248046875,0.7290905117988586,2.0021402835845947,-0.25984427332878113
1772527289506461400,5.80746142578125,0.9874685406684875,1.9405474662780762,-0.7415400743484497
1772527289516444400,5.8174443359375,0.8242531418800354,1.3836041688919067,-1.4079201221466064
1772527289526426400,5.82742626953125,0.19219204783439636,0.4828076958656311,-1.8875977993011475
1772527289536408300,5.837408203125,-0.56395423412323,-0.3773023188114166,-1.8071457147598267
1772527289546390300,5.847390380859375,-0.985938549041748,-0.7182871103286743,-1.0520600080490112
1772527289556372500,5.85737255859375,-1.0814225673675537,-0.5566611886024475,-0.010820945724844933
1772527289566354200,5.867354248046875,-1.0614770650863647,-0.1714131236076355,0.9367799758911133
1772527289576336400,5.87733642578125,-0.9318361878395081,0.31184566020965576,1.7010496854782104
1772527289586318600,5.887318603515625,-0.5953010320663452,1.025377869606018,2.375232458114624
1772527289596300300,5.89730029296875,0.029720071703195572,1.5040837526321411,2.842125415802002
1772527289606283500,5.907283447265625,0.804781436920166,1.2598379850387573,3.0121285915374756
1772527289616265200,5.91726513671875,1.365291714668274,0.38537728786468506,3.119575023651123
1772527289626247400,5.927247314453125,1.5208730697631836,-0.6857186555862427,3.353945016860962
1772527289636229400,5.9372294921875,1.2629538774490356,-1.5166878700256348,3.418405532836914
1772527289646211300,5.94721142578125,0.8201937675476074,-1.660824179649353,3.219038963317871
1772527289656193500,5.957193603515625,0.462866872549057,-0.9668127298355103,2.9109947681427
1772527289666175500,5.967175537109375,0.3858810067176819,-0.03670904412865639,2.5959174633026123
1772527289676157400,5.977157470703125,0.4780346155166626,0.6312827467918396,2.1663708686828613
1772527289686139400,5.987139404296875,0.5015309453010559,0.9560738801956177,1.674118161201477
1772527289696122400,5.997122314453125,0.39951449632644653,0.9068280458450317,1.283583164215088
1772527289706104300,6.007104248046875,0.0973416417837143,0.645639181137085,0.9737493991851807
1772527289716086300,6.017086181640625,-0.35588788986206055,0.3378978371620178,0.6778967380523682
1772527289726068500,6.027068359375,-0.7642029523849487,0.13985931873321533,0.363474577665329
1772527289736050400,6.037050537109375,-1.0101760625839233,0.010035524144768715,0.058711547404527664
1772527289746032400,6.047032470703125,-1.0652235746383667,-0.0346565805375576,-0.20616619288921356
1772527289756014300,6.057014404296875,-0.9806793928146362,-0.021849436685442924,-0.4395429790019989
1772527289765996500,6.06699658203125,-0.8461074829101562,-0.002256029285490513,-0.6387239694595337
1772527289775978200,6.076978271484375,-0.6955273151397705,0.0025579403154551983,-0.8035262227058411
1772527289785961500,6.08696142578125,-0.5792446732521057,-0.0178701039403677,-0.9747738838195801
1772527289795943400,6.096943359375,-0.4962279796600342,-0.04601183161139488,-1.1966270208358765
1772527289805925400,6.10692529296875,-0.37569355964660645,-0.03906524181365967,-1.4198635816574097
1772527289815907600,6.116907470703125,-0.16322138905525208,0.06825978308916092,-1.5911179780960083
1772527289825889300,6.12688916015625,0.15856462717056274,0.17211560904979706,-1.6642539501190186
1772527289835871500,6.13687158203125,0.4985868036746979,0.21491964161396027,-1.6517817974090576
1772527289845853400,6.146853515625,0.7332848310470581,0.257248193025589,-1.7073595523834229
1772527289855835400,6.15683544921875,0.8427526950836182,0.4334089159965515,-1.8688325881958008
1772527289865817300,6.1668173828125,0.892521321773529,0.46047672629356384,-2.0037763118743896
1772527289875799300,6.17679931640625,0.877386748790741,0.13975629210472107,-1.9426130056381226
1772527289885782500,6.186782470703125,0.7878419756889343,-0.5805957317352295,-1.535160779953003
1772527289895764200,6.19676416015625,0.8110950589179993,-1.229210615158081,-1.160967469215393
1772527289905746400,6.206746337890625,0.8233850002288818,-1.3633092641830444,-0.9492839574813843
1772527289915728400,6.216728271484375,0.7005987167358398,-1.4559787511825562,-0.6618066430091858
1772527289925710300,6.22671044921875,0.6800028681755066,-1.4527651071548462,-0.43365979194641113
1772527289935692300,6.2366923828125,0.7662821412086487,-1.340540885925293,-0.31598538160324097
1772527289945674500,6.246674560546875,0.8908829092979431,-1.132830023765564,-0.27515727281570435
1772527289955656200,6.25665625,0.9948488473892212,-0.8165146112442017,-0.23763103783130646
1772527289965638400,6.266638427734375,1.0729385614395142,-0.6272035241127014,-0.12902946770191193
1772527289975621400,6.276621337890625,1.0439202785491943,-0.7659122347831726,0.0241570882499218
1772527289985603300,6.286603271484375,0.912146806716919,-0.9158761501312256,0.295110821723938
1772527289995585500,6.29658544921875,0.7377763986587524,-1.0516434907913208,0.7078179121017456
1772527290005567200,6.306567138671875,0.5242097973823547,-1.2143142223358154,1.1727662086486816
1772527290015549400,6.316549560546875,0.16756092011928558,-1.3984198570251465,1.5082956552505493
1772527290025531400,6.326531494140625,-0.3348103165626526,-1.46405827999115,1.5935903787612915
1772527290035513300,6.336513427734375,-0.8073973655700684,-1.3572076559066772,1.6220721006393433
1772527290045495600,6.34649560546875,-0.9733796715736389,-1.0791598558425903,1.895479679107666
1772527290055477500,6.3564775390625,-0.7355453372001648,-0.8576479554176331,2.424518585205078
1772527290065461200,6.366461181640625,-0.18883489072322845,-0.7831987142562866,2.9257922172546387
1772527290075443200,6.376443115234375,0.3293222188949585,-0.8905444741249084,2.870967388153076
1772527290085425200,6.386425048828125,0.3948386311531067,-0.9312032461166382,1.9894938468933105
1772527290095407400,6.396407470703125,0.07338898628950119,-1.0639705657958984,0.5970920324325562
1772527290105389000,6.40638916015625,-0.33416998386383057,-1.0358216762542725,-0.7179684042930603
1772527290115371300,6.416371337890625,-0.5189886093139648,-0.8643258810043335,-1.6456106901168823
1772527290125353200,6.426353271484375,-0.43139323592185974,-0.6830613017082214,-2.05304217338562
1772527290135335200,6.436335205078125,-0.19464917480945587,-0.5498630404472351,-1.935398817062378
1772527290145317000,6.446317138671875,0.0791647881269455,-0.5586607456207275,-1.4790771007537842
1772527290155299000,6.456299072265625,0.3392527997493744,-0.7433308362960815,-0.9991943836212158
1772527290165282300,6.4662822265625,0.5106258392333984,-1.0151493549346924,-0.6191276907920837
1772527290175264000,6.476263916015625,0.5198346972465515,-1.1811412572860718,-0.36419275403022766
1772527290185246200,6.48624609375,0.3556172549724579,-1.1872915029525757,-0.18154944479465485
1772527290195228200,6.496228271484375,0.18942609429359436,-0.9539522528648376,-0.046640846878290176
1772527290205210000,6.506210205078125,0.06217865273356438,-0.5120832324028015,-0.0016584573313593864
1772527290215192000,6.516192138671875,0.00957934744656086,0.07999175041913986,-0.019201219081878662
1772527290225174300,6.52617431640625,0.043070729821920395,0.6649063229560852,-0.053938958793878555
1772527290235156200,6.53615625,0.16381436586380005,1.101967692375183,-0.04816965013742447
1772527290245138200,6.54613818359375,0.35691940784454346,1.330156683921814,0.03484560549259186
1772527290255121200,6.55612109375,0.5499072074890137,1.4393309354782104,0.16569925844669342
1772527290265103000,6.56610302734375,0.7258073687553406,1.4784069061279297,0.3278583288192749
1772527290275085300,6.576085205078125,0.8100655674934387,1.548315167427063,0.5138922929763794
1772527290285067000,6.58606689453125,0.7664347290992737,1.5654182434082031,0.6374262571334839
1772527290295049200,6.59604931640625,0.645495593547821,1.4495930671691895,0.6861634254455566
1772527290305031400,6.606031494140625,0.4942341446876526,1.2709261178970337,0.7122810482978821
1772527290315013000,6.61601318359375,0.3248066008090973,1.1404722929000854,0.7534904479980469
1772527290324995300,6.625995361328125,0.1554601639509201,1.0620381832122803,0.8025005459785461
1772527290334977000,6.63597705078125,-0.004280284978449345,0.9757381677627563,0.8497927784919739
1772527290344959200,6.645959228515625,-0.10839630663394928,0.8219233155250549,0.9069913625717163
1772527290354942200,6.655942138671875,-0.17687690258026123,0.5460594296455383,1.0154609680175781
1772527290364924200,6.665924072265625,-0.24574331939220428,0.15294386446475983,1.1715991497039795
1772527290374906400,6.67590625,-0.30924084782600403,-0.24708230793476105,1.3611518144607544
1772527290384888000,6.68588818359375,-0.3444344997406006,-0.4500407576560974,1.5970373153686523
1772527290394870300,6.695870361328125,-0.3410501480102539,-0.618642270565033,1.7542303800582886
1772527290404852200,6.705852294921875,-0.32296809554100037,-0.68043053150177,1.8482942581176758
1772527290414834200,6.715834228515625,-0.2636209726333618,-0.5829715132713318,1.8993186950683594
1772527290424816000,6.725816162109375,-0.16483740508556366,-0.3776441812515259,1.881630301475525
1772527290434798300,6.73579833984375,-0.07141204923391342,-0.2255217581987381,1.7099074125289917
1772527290444781000,6.745781005859375,0.02816114015877247,-0.17433179914951324,1.394770860671997
1772527290454763300,6.75576318359375,0.1821177750825882,-0.048718009144067764,1.0425792932510376
1772527290464745200,6.7657451171875,0.3733031749725342,0.19305574893951416,0.649834156036377
1772527290474727200,6.77572705078125,0.5624969005584717,0.3264480233192444,0.12323740124702454
1772527290484709400,6.78570947265625,0.7074892520904541,0.28715017437934875,-0.5089880228042603
1772527290494691000,6.795691162109375,0.8180834650993347,0.21498404443264008,-1.1779799461364746
1772527290504673300,6.80567333984375,0.8984089493751526,-0.14513099193572998,-1.7291725873947144
1772527290514655200,6.8156552734375,0.8643651008605957,-0.6091969013214111,-2.0126750469207764
1772527290524637200,6.82563720703125,0.5907441973686218,-0.6578975915908813,-2.0448262691497803
1772527290534619100,6.835619140625,0.15908470749855042,-0.3646681606769562,-1.8680907487869263
1772527290544602000,6.84560205078125,-0.2916542589664459,0.13482503592967987,-1.6215968132019043
1772527290554584300,6.855584228515625,-0.5884334444999695,0.6191310882568359,-1.4084726572036743
1772527290564566000,6.86556591796875,-0.6376675963401794,0.798895537853241,-1.2970128059387207
1772527290574548200,6.87554833984375,-0.5019958019256592,0.7544026374816895,-1.2775719165802002
1772527290584530200,6.8855302734375,-0.2983124554157257,0.7010334134101868,-1.24118971824646
1772527290594512100,6.89551220703125,-0.1301238089799881,0.6265469193458557,-1.111655354499817
1772527290604494000,6.905494140625,-0.05010807514190674,0.4919092059135437,-0.8545510768890381
1772527290614476300,6.915476318359375,-0.019016554579138756,0.23214082419872284,-0.46982622146606445
1772527290624458000,6.9254580078125,0.0029923408292233944,-0.04921336472034454,-0.009330524131655693
1772527290634440200,6.935440185546875,0.008855696767568588,-0.26450979709625244,0.38621002435684204
1772527290644423200,6.945423095703125,0.01831710897386074,-0.28083258867263794,0.578535258769989
1772527290654405000,6.955405029296875,0.10167472809553146,-0.19425590336322784,0.5457310676574707
1772527290664387300,6.96538720703125,0.26321515440940857,-0.02377019077539444,0.3646704852581024
1772527290674369000,6.975369140625,0.4481099247932434,0.05943775922060013,0.10011735558509827
1772527290684351200,6.985351318359375,0.6126986145973206,-0.044254012405872345,-0.1922612488269806
1772527290694333200,6.995333251953125,0.7742080688476562,-0.4032304883003235,-0.41763433814048767
1772527290704315100,7.005315185546875,0.9733248949050903,-0.9011992812156677,-0.44339537620544434
1772527290714297300,7.01529736328125,1.198489785194397,-1.3196324110031128,-0.22750812768936157
1772527290724279000,7.025279052734375,1.3416073322296143,-1.5435800552368164,0.12010283768177032
1772527290734262300,7.03526220703125,1.4157005548477173,-1.4975305795669556,0.4924081861972809
1772527290744244200,7.045244140625,1.487220287322998,-1.2129225730895996,0.8176283836364746
1772527290754226200,7.05522607421875,1.6228705644607544,-0.7539491057395935,1.0767391920089722
1772527290764208000,7.0652080078125,1.8041658401489258,-0.11845124512910843,1.2675325870513916
1772527290774190000,7.075190185546875,1.9169986248016357,0.6017266511917114,1.3398951292037964
1772527290784172300,7.08517236328125,1.8944600820541382,1.2693406343460083,1.2494124174118042
1772527290794154200,7.095154296875,1.7273310422897339,1.8631255626678467,1.005414366722107
1772527290804136200,7.10513623046875,1.4508917331695557,2.427704334259033,0.6938772797584534
1772527290814118100,7.1151181640625,1.035353422164917,2.8852312564849854,0.34749284386634827
1772527290824100400,7.125100341796875,0.504991888999939,3.1758553981781006,-0.0024308166466653347
1772527290834083000,7.1350830078125,-0.06233635172247887,3.254382610321045,-0.3777884244918823
1772527290844065300,7.145065185546875,-0.5947976112365723,3.0259454250335693,-0.7663364410400391
1772527290854047200,7.155047119140625,-0.9766063094139099,2.6254899501800537,-1.114331603050232
1772527290864029200,7.165029296875,-1.1293550729751587,2.2732701301574707,-1.3815313577651978
1772527290874011400,7.175011474609375,-1.0306358337402344,2.050569772720337,-1.5488789081573486
1772527290883993000,7.1849931640625,-0.6538670063018799,1.9768073558807373,-1.5486360788345337
1772527290893975300,7.194975341796875,-0.1575567126274109,1.9294122457504272,-1.382109522819519
1772527290903957200,7.204957275390625,0.3470659852027893,1.924670696258545,-1.101257562637329
1772527290913939200,7.214939208984375,0.7743454575538635,1.9258122444152832,-0.8073922395706177
1772527290923921200,7.224921142578125,1.09812593460083,1.8977254629135132,-0.5236713290214539
1772527290933904100,7.234904052734375,1.3785649538040161,1.8541704416275024,-0.22438167035579681
1772527290943886300,7.24488623046875,1.6606708765029907,1.6716126203536987,0.12563280761241913
1772527290953868000,7.254867919921875,1.8780641555786133,1.1913787126541138,0.5560612082481384
1772527290963850200,7.264850341796875,1.9543895721435547,0.46922338008880615,1.0815629959106445
1772527290973832200,7.274832275390625,1.8740832805633545,-0.13837867975234985,1.7217316627502441
1772527290983814100,7.284814208984375,1.6563972234725952,-0.4009080231189728,2.3870744705200195
1772527290993796000,7.294796142578125,1.3929911851882935,-0.42851391434669495,2.889507532119751
1772527291003778300,7.3047783203125,1.2505019903182983,-0.41295573115348816,3.025465488433838
1772527291013760000,7.314760009765625,1.2005459070205688,-0.4648290276527405,2.813605308532715
1772527291023742200,7.3247421875,1.0981260538101196,-0.4648844003677368,2.337895631790161
1772527291033725200,7.33472509765625,0.8712092041969299,-0.545708179473877,1.6154826879501343
1772527291043707100,7.34470703125,0.4931260943412781,-0.7424070835113525,0.6798620223999023
1772527291053689300,7.354689453125,-0.014004666358232498,-0.9224772453308105,-0.34114208817481995
1772527291063671000,7.364671142578125,-0.5360633134841919,-1.001938819885254,-1.2859888076782227
1772527291073652500,7.374652587890625,-1.0145117044448853,-0.8982347249984741,-2.032047748565674
1772527291083634700,7.384634765625,-1.4021621942520142,-0.49444466829299927,-2.4830031394958496
1772527291093616400,7.394616455078125,-1.6261827945709229,0.27127373218536377,-2.6203293800354004
1772527291103598600,7.4045986328125,-1.6656055450439453,1.2537575960159302,-2.5306575298309326
1772527291113580500,7.41458056640625,-1.593481421470642,2.179856061935425,-2.3323209285736084
1772527291123562500,7.4245625,-1.4790533781051636,2.821955680847168,-2.147045612335205
1772527291133545700,7.434545654296875,-1.3636702299118042,3.144897937774658,-2.0216922760009766
1772527291143527400,7.44452734375,-1.2753946781158447,3.156083822250366,-1.9602975845336914
1772527291153509600,7.454509521484375,-1.2199336290359497,2.884381055831909,-1.9441088438034058
1772527291163491600,7.46449169921875,-1.1793241500854492,2.422278642654419,-1.9219715595245361
1772527291173473500,7.4744736328125,-1.1473339796066284,1.8871716260910034,-1.8654149770736694
1772527291183455500,7.48445556640625,-1.115525484085083,1.3174171447753906,-1.7882148027420044
1772527291193437700,7.494437744140625,-1.1018460988998413,0.7184287309646606,-1.7163934707641602
1772527291203419400,7.50441943359375,-1.1197339296340942,0.1762775182723999,-1.6218218803405762
1772527291213401600,7.514401611328125,-1.1468349695205688,-0.2473723143339157,-1.4768706560134888
1772527291223383600,7.524383544921875,-1.1476554870605469,-0.5139456987380981,-1.267303228378296
1772527291233366500,7.534366455078125,-1.100441575050354,-0.6633013486862183,-1.0003196001052856
1772527291243348500,7.544348388671875,-0.9995504021644592,-0.7700475454330444,-0.7001635432243347
1772527291253330400,7.554330322265625,-0.858055830001831,-0.871184229850769,-0.3967757225036621
1772527291263312600,7.564312744140625,-0.697719395160675,-0.9514892101287842,-0.12468111515045166
1772527291273294300,7.57429443359375,-0.5360981822013855,-1.060990810394287,0.0848134458065033
1772527291283276500,7.584276611328125,-0.39523401856422424,-1.2561004161834717,0.20964404940605164
1772527291293258800,7.5942587890625,-0.31968724727630615,-1.5068562030792236,0.26852381229400635
1772527291303240400,7.604240478515625,-0.3241291344165802,-1.7276850938796997,0.3291671872138977
1772527291313222700,7.61422265625,-0.3772842586040497,-1.7834569215774536,0.43744921684265137
1772527291323204600,7.62420458984375,-0.44786256551742554,-1.6239650249481201,0.6016155481338501
1772527291333187600,7.6341875,-0.4791189432144165,-1.3970394134521484,0.7873477935791016
1772527291343169500,7.64416943359375,-0.4139319658279419,-1.310997486114502,0.9656983613967896
1772527291353151500,7.6541513671875,-0.30015286803245544,-1.464435338973999,1.106681227684021
1772527291363133700,7.6641337890625,-0.19421416521072388,-1.8405817747116089,1.1963865756988525
1772527291373115600,7.67411572265625,-0.13218578696250916,-2.1790242195129395,1.2632893323898315
1772527291383097600,7.68409765625,-0.17692743241786957,-2.222787618637085,1.304197907447815
1772527291393079600,7.69407958984375,-0.37089672684669495,-2.1254711151123047,1.211833119392395
1772527291403061500,7.7040615234375,-0.6073824763298035,-2.0372729301452637,0.9654739499092102
1772527291413043500,7.71404345703125,-0.7195835709571838,-2.1119885444641113,0.6084508299827576
1772527291423025700,7.724025634765625,-0.5760903358459473,-2.3537659645080566,0.2583596706390381
1772527291433008600,7.734008544921875,-0.200485497713089,-2.6349453926086426,-0.06804197281599045
1772527291442990600,7.743990478515625,0.22855134308338165,-2.758903741836548,-0.4500146508216858
1772527291452972500,7.75397265625,0.5833985805511475,-2.9381725788116455,-0.8131821155548096
1772527291462954500,7.76395458984375,0.8584661483764648,-2.8690664768218994,-1.0455667972564697
1772527291472936700,7.773936767578125,1.0354396104812622,-2.460639476776123,-1.2125157117843628
1772527291482918400,7.78391845703125,1.1629661321640015,-1.8518399000167847,-1.2905570268630981
1772527291492900600,7.793900634765625,1.3260736465454102,-1.1889386177062988,-1.1762182712554932
1772527291502882600,7.803882568359375,1.5400331020355225,-0.7386321425437927,-0.9361843466758728
1772527291512864500,7.813864501953125,1.7487658262252808,-0.5025137066841125,-0.653704047203064
1772527291522846500,7.823846435546875,1.9157434701919556,-0.28777429461479187,-0.33923953771591187
1772527291532828700,7.83382861328125,2.0342977046966553,-0.008312536403536797,0.00819891132414341
1772527291542811600,7.843811767578125,2.112882137298584,0.2893415093421936,0.3598269820213318
1772527291552793600,7.853793701171875,2.141033411026001,0.5342791080474854,0.685046374797821
1772527291562775600,7.863775634765625,2.076673746109009,0.7938222289085388,0.9255484342575073
1772527291572757500,7.873757568359375,1.8785887956619263,1.1321603059768677,1.019127607345581
1772527291582739700,7.88373974609375,1.552020788192749,1.5632644891738892,0.974217414855957
1772527291592721400,7.893721435546875,1.1485559940338135,2.040893077850342,0.8065450191497803
1772527291602703600,7.90370361328125,0.7179404497146606,2.456882953643799,0.5432435870170593
1772527291612685600,7.913685546875,0.31022894382476807,2.7688286304473877,0.22687408328056335
1772527291622667500,7.92366748046875,-0.0006527802906930447,3.0040676593780518,-0.04912314936518669
1772527291632649700,7.933649658203125,-0.19440536201000214,3.0236668586730957,-0.27207672595977783
1772527291642632400,7.943632568359375,-0.31616878509521484,2.7911429405212402,-0.44515103101730347
1772527291652614700,7.95361474609375,-0.37651950120925903,2.3561127185821533,-0.5354907512664795
1772527291662596400,7.963596435546875,-0.3647616505622864,1.8619128465652466,-0.4870462715625763
1772527291672578600,7.97357861328125,-0.2843947410583496,1.436470866203308,-0.2781622111797333
1772527291682560500,7.983560546875,-0.17400296032428741,1.0698676109313965,0.02465358003973961
1772527291692542500,7.99354248046875,-0.09478264302015305,0.6769856214523315,0.325292706489563
1772527291702524700,8.003524658203125,-0.019547544419765472,0.1866409331560135,0.6382506489753723
1772527291712506600,8.013506591796874,0.05354702100157738,-0.3007808327674866,0.9601457118988037
1772527291722488600,8.023488525390626,0.08845707029104233,-0.7157549262046814,1.2937886714935303
1772527291732470500,8.033470458984375,0.06852786988019943,-1.013742446899414,1.6406843662261963
1772527291742453500,8.04345361328125,-0.01047347392886877,-1.1750421524047852,1.9698491096496582
1772527291752435500,8.053435546875,-0.17895181477069855,-1.155174970626831,2.218247890472412
1772527291762417700,8.063417724609375,-0.3961975574493408,-0.9455565214157104,2.3447940349578857
1772527291772399600,8.073399658203124,-0.6128779649734497,-0.6050087809562683,2.3519325256347656
1772527291782381600,8.083381591796876,-0.7674707770347595,-0.21420352160930634,2.2705414295196533
1772527291792363500,8.093363525390625,-0.8586568236351013,0.14502555131912231,2.118541717529297
1772527291802345500,8.103345458984375,-0.9006870985031128,0.41829782724380493,1.9175708293914795
1772527291812327700,8.11332763671875,-0.9180653095245361,0.6136667728424072,1.7031421661376953
1772527291822309400,8.123309326171874,-0.9321500062942505,0.7809082269668579,1.4953796863555908
1772527291832291600,8.13329150390625,-0.9618256688117981,0.9429493546485901,1.281529188156128
1772527291842274600,8.143274658203126,-1.0060780048370361,1.0885629653930664,1.0691895484924316
1772527291852256500,8.153256591796875,-0.9868543744087219,1.1164451837539673,0.86710524559021
1772527291862238700,8.16323876953125,-0.8585989475250244,0.9307950735092163,0.6575224995613098
1772527291872220400,8.173220458984375,-0.6161972880363464,0.6070370078086853,0.43524283170700073
1772527291882202600,8.18320263671875,-0.3550189435482025,0.21894678473472595,0.2088368535041809
1772527291892184600,8.1931845703125,-0.18051618337631226,-0.23164711892604828,-0.04814054071903229
1772527291902166500,8.20316650390625,-0.10773545503616333,-0.7781772613525391,-0.32661157846450806
1772527291912148500,8.2131484375,-0.06182558834552765,-1.2342076301574707,-0.5607984066009521
1772527291922130700,8.223130615234375,-0.039896056056022644,-1.440752625465393,-0.7268028259277344
1772527291932112400,8.2331123046875,-0.10459399223327637,-1.3501957654953003,-0.8531166315078735
1772527291942094600,8.243094482421874,-0.20463857054710388,-0.9913697242736816,-0.9022567272186279
1772527291952077600,8.25307763671875,-0.18892629444599152,-0.503286600112915,-0.8327191472053528
1772527291962059500,8.2630595703125,-0.034453898668289185,-0.037742625921964645,-0.622749924659729
1772527291972041700,8.273041748046875,0.17309807240962982,0.3270398676395416,-0.316265732049942
1772527291982023400,8.2830234375,0.3201703429222107,0.3691343069076538,-0.07740148901939392
1772527291992005600,8.293005615234375,0.37686583399772644,0.08672424405813217,0.011714791879057884
1772527292001987600,8.302987548828124,0.4143010973930359,-0.25457343459129333,-0.012662185356020927
1772527292011969500,8.312969482421876,0.518832266330719,-0.4420281946659088,-0.06921644508838654
1772527292021951700,8.32295166015625,0.6659402251243591,-0.43733519315719604,-0.13213308155536652
1772527292031933400,8.332933349609375,0.793136477470398,-0.2279595285654068,-0.16019849479198456
1772527292041915600,8.34291552734375,0.8459773063659668,0.1355704665184021,-0.14247728884220123
1772527292051898400,8.3528984375,0.8365051746368408,0.5511312484741211,-0.09940062463283539
1772527292061880600,8.362880615234374,0.8090024590492249,0.9433898329734802,-0.05742308497428894
1772527292071862800,8.37286279296875,0.7538332939147949,1.2512340545654297,-0.05817900598049164
1772527292081844700,8.3828447265625,0.6601904630661011,1.4067565202713013,-0.10800515115261078
1772527292091826700,8.39282666015625,0.5305677652359009,1.3758991956710815,-0.17821358144283295
1772527292101809000,8.402808837890625,0.3981356918811798,1.1938670873641968,-0.22053706645965576
1772527292111790600,8.41279052734375,0.2784562110900879,0.9439414739608765,-0.21801351010799408
1772527292121772800,8.422772705078126,0.2032589614391327,0.6843740940093994,-0.15160758793354034
1772527292131754800,8.432754638671875,0.18367506563663483,0.43446293473243713,-0.014533031731843948
1772527292141736700,8.44273681640625,0.19327495992183685,0.19769379496574402,0.1690559685230255
1772527292151719000,8.452718994140625,0.21068863570690155,0.004159290809184313,0.3886359632015228
1772527292161701600,8.46270166015625,0.2170671820640564,-0.10830707103013992,0.6063085794448853
1772527292171683800,8.472683837890624,0.22134819626808167,-0.14050738513469696,0.8022956848144531
1772527292181665500,8.48266552734375,0.230961412191391,-0.11909238994121552,0.9607974886894226
1772527292191647700,8.492647705078125,0.24135616421699524,-0.09735459834337234,1.082538366317749
1772527292201630000,8.5026298828125,0.24400147795677185,-0.10713345557451248,1.175431489944458
1772527292211611600,8.512611572265625,0.22542592883110046,-0.1383827179670334,1.2580512762069702
1772527292221593900,8.52259375,0.17924432456493378,-0.17647816240787506,1.3338574171066284
1772527292231575800,8.532575927734374,0.11627936363220215,-0.23337309062480927,1.3952317237854004
1772527292241557800,8.542557861328126,0.0528402104973793,-0.3205985426902771,1.4383333921432495
1772527292251539700,8.552539794921875,-0.03403050824999809,-0.4318124055862427,1.4237985610961914
1772527292261522700,8.562522705078125,-0.13530918955802917,-0.5167717337608337,1.3214969635009766
1772527292271505000,8.5725048828125,-0.20013055205345154,-0.5210637450218201,1.1339484453201294
1772527292281486800,8.58248681640625,-0.18613962829113007,-0.39585980772972107,0.8865790963172913
1772527292291468800,8.59246875,-0.0636092871427536,-0.17476575076580048,0.647838294506073
1772527292301450800,8.60245068359375,0.15233099460601807,0.03212298825383186,0.44378021359443665
1772527292311433000,8.612432861328125,0.36858370900154114,0.14275452494621277,0.23273107409477234
1772527292321414700,8.62241455078125,0.49006351828575134,0.14419102668762207,-0.038727860897779465
1772527292331396900,8.63239697265625,0.4880582094192505,-0.05323231220245361,-0.36645281314849854
1772527292341378800,8.64237890625,0.361937016248703,-0.5787739157676697,-0.764982283115387
1772527292351360800,8.65236083984375,0.17377719283103943,-1.1510589122772217,-1.1734951734542847
1772527292361342700,8.6623427734375,0.0009287213906645775,-1.099127173423767,-1.3978747129440308
1772527292371325700,8.67232568359375,-0.14653252065181732,-0.31204646825790405,-1.3807436227798462
1772527292381308000,8.682307861328125,-0.27666550874710083,0.7391953468322754,-1.251787543296814
1772527292391289600,8.69228955078125,-0.3862273097038269,1.3898203372955322,-1.2493751049041748
1772527292401271800,8.702271728515624,-0.4309404492378235,1.3309727907180786,-1.4532837867736816
1772527292411253800,8.712253662109376,-0.32352736592292786,0.7846042513847351,-1.7417371273040771
1772527292421235700,8.722235595703125,-0.0739995464682579,0.13799911737442017,-1.9803049564361572
1772527292431217700,8.7322177734375,0.2383134514093399,-0.29182636737823486,-2.0798115730285645
1772527292441199900,8.742199951171875,0.5087491869926453,-0.3183855414390564,-2.0534956455230713
1772527292451181600,8.752181640625,0.6871182918548584,-0.056635983288288116,-1.9662472009658813
1772527292461163800,8.762163818359374,0.7658879160881042,0.28568223118782043,-1.850015640258789
1772527292471146000,8.77214599609375,0.7982567548751831,0.6959436535835266,-1.6759260892868042
1772527292481128700,8.782128662109375,0.8279416561126709,1.0777027606964111,-1.4097663164138794
1772527292491111000,8.79211083984375,0.8709015250205994,1.4330421686172485,-1.0351637601852417
1772527292501092600,8.802092529296875,0.7785681486129761,1.619499683380127,-0.2886659502983093
1772527292511074800,8.81207470703125,0.5535475611686707,1.2164208889007568,0.5057286620140076
1772527292521056800,8.822056884765624,0.4713144600391388,0.6226946115493774,1.2456696033477783
1772527292531038700,8.832038818359376,0.5399072170257568,-0.13906288146972656,1.8108017444610596
1772527292541021000,8.84202099609375,0.572615921497345,-0.7537345886230469,2.1403825283050537
1772527292551002600,8.852002685546875,0.5121275186538696,-1.1720086336135864,2.232739210128784
1772527292560984800,8.86198486328125,0.41701748967170715,-1.344488501548767,2.100210666656494
1772527292570966800,8.871966796875,0.3271227478981018,-1.2284741401672363,1.7906122207641602
1772527292580948700,8.88194873046875,0.26826316118240356,-0.8808128833770752,1.354124665260315
1772527292590931700,8.891931640625,0.3127732574939728,-0.39271700382232666,0.9186086654663086
1772527292600913700,8.90191357421875,0.29492899775505066,0.023568907752633095,0.5523825287818909
