time,seconds_elapsed,z,y,x
1772526259903655200,0.0916552734375,-1.0172767623692751,-0.9993348629653453,-2.421698446629941
1772526259913637000,0.10163720703125,-0.6888619696050882,-1.0533689432308078,-2.3307145457603036
1772526259923620000,0.1116201171875,-0.37834991327822204,-0.9869774856954813,-2.1805717689573765
1772526259933603000,0.12160302734375,-0.1124164188683033,-0.8211743445545434,-1.9575524103835225
1772526259943585300,0.131585205078125,0.11668868936002254,-0.6436845650121569,-1.7349876637093722
1772526259953568300,0.141568359375,0.2834486928343773,-0.5188523166850209,-1.4999305152088402
1772526259963551000,0.151551025390625,0.4514683409810066,-0.47560588015466926,-1.3309465520747006
1772526259973533200,0.161533203125,0.6729506992459297,-0.5386491963058709,-1.2523388793058692
1772526259983516200,0.17151611328125,0.9395008642494678,-0.6498305204212665,-1.24314318093732
1772526259993499100,0.1814990234375,1.2215531342893837,-0.7979983438894153,-1.3054888702131806
1772526260003481000,0.191481201171875,1.3709873244315385,-0.9656740009039639,-1.420229055853933
1772526260013464300,0.20146435546875,1.4112047685295344,-1.112873271600902,-1.5894855523191391
1772526260023447000,0.211447021484375,1.4275024078577756,-1.1925620176047087,-1.814711188765615
1772526260033429200,0.22142919921875,1.4779589218974112,-1.240311026251316,-1.9891811820954084
1772526260043412200,0.231412109375,1.5955694022774696,-1.3460665259256959,-2.059095991451293
1772526260053395000,0.24139501953125,1.6985867091596125,-1.4867860792145131,-1.9767643297232687
1772526260063377200,0.251377197265625,1.690195312911272,-1.5770049870610237,-1.8283210503146052
1772526260073360100,0.261360107421875,1.597957758718729,-1.6212345894098281,-1.6432620045617221
1772526260083343000,0.271343017578125,1.4200795643806456,-1.6356816324353216,-1.4889078936740756
1772526260093325000,0.281324951171875,1.2491793923616408,-1.52676825325191,-1.3897212509959935
1772526260103308300,0.291308349609375,1.14649350939095,-1.3697750260323285,-1.2902151671051978
1772526260113291000,0.301291015625,1.097360352909565,-1.2524044918879866,-1.0868060795389116
1772526260123274000,0.31127392578125,0.8490694826960563,-1.2999062477752565,-0.8433563657462596
1772526260133256200,0.321256103515625,0.6542278785973787,-1.293702132438123,-0.5666380040802061
1772526260143239000,0.331239013671875,0.5488742377221584,-1.3308502520933747,-0.2425945582680404
1772526260153222100,0.34122216796875,0.2916998038291931,-1.5228148394510148,0.06577303337603807
1772526260163204000,0.3512041015625,-0.05911328322589397,-1.7823422662109136,0.35611499285548925
1772526260173187000,0.36118701171875,-0.3368067735344171,-1.9009256832763552,0.5838485204696655
1772526260183170000,0.371170166015625,-0.5370014290988445,-1.8024544953912496,0.6989103392802178
1772526260193152300,0.38115234375,-0.6739940708190202,-1.5878259485438466,0.8126469008363782
1772526260203135000,0.391135009765625,-0.7811679128587246,-1.4146782898589967,0.9292245310373604
1772526260213118000,0.401117919921875,-0.8656319104403257,-1.2845605023443698,1.0361429370112716
1772526260223100200,0.41110009765625,-1.1181208168655634,-1.2680994891479611,1.0576156408898532
1772526260233083100,0.421083251953125,-1.4965835428684948,-1.330791799904406,0.9965256507635116
1772526260243066000,0.431066162109375,-1.7909633795619009,-1.2926178443327545,0.8750403747767209
1772526260253048000,0.441048095703125,-1.9400199685633182,-1.1524272833541036,0.8381766250208019
1772526260263031000,0.451031005859375,-1.9664806899875402,-1.263891808325052,1.0857705990113318
1772526260273014000,0.461013916015625,-1.737390779328346,-1.5033108052968978,1.3446397079929708
1772526260282996200,0.470996337890625,-1.415605049315095,-1.628349682112038,1.2870491042897105
1772526260292979200,0.480979248046875,-1.112405361828208,-1.6833105218335984,0.9296879107654095
1772526260302962200,0.490962158203125,-0.9278063348025083,-1.809225304700434,0.43276802442520856
1772526260312944000,0.500944091796875,-0.9095376876622437,-1.9556682040721176,-0.07871127927377819
1772526260322927400,0.51092724609375,-1.0075503181248904,-1.964175627915561,-0.5117411695055664
1772526260332910000,0.52091015625,-1.1490005237758159,-1.799906272213161,-0.8039692349925637
1772526260342892300,0.530892333984375,-1.3465946414530277,-1.4763003410354256,-0.9422991166658699
1772526260352875300,0.540875244140625,-1.5284072526305914,-1.0312056267395615,-0.9589607670009136
1772526260362858000,0.55085791015625,-1.6155232260257004,-0.5080632116451859,-0.9187753254763782
1772526260372840200,0.560840087890625,-1.5774574070036411,0.04042670293450355,-0.8956694674380123
1772526260382823200,0.5708232421875,-1.3222633332729339,0.5706318960219622,-0.8974585428118705
1772526260392806100,0.58080615234375,-0.8777233302503824,1.0071692098528147,-0.8427588382445276
1772526260402789000,0.5907890625,-0.5033031576365232,1.204459960669279,-0.7047174181237816
1772526260412771300,0.600771240234375,-0.27523908289372917,1.1919202125698327,-0.5804182537600397
1772526260422754000,0.610754150390625,-0.09745382753610611,1.1287231671616433,-0.5690764832735061
1772526260432737000,0.620737060546875,-0.045886721906065936,1.0883137076228857,-0.6772776225343347
1772526260442719200,0.63071923828125,-0.14539631292819977,1.0848188512444497,-0.8667870718248188
1772526260452702000,0.640701904296875,-0.22553543304800985,1.0648062830463052,-1.0649557745195926
1772526260462685200,0.650685302734375,-0.09959083956480026,1.0523089127838612,-1.2689268798828124
1772526260472667100,0.660667236328125,0.23814824638366697,1.045854037556052,-1.4691341026678681
1772526260482650000,0.670650146484375,0.761558372503519,1.0183952450051903,-1.584460856024921
1772526260492633000,0.680633056640625,1.310954003751278,0.9108686440050602,-1.5705910283654927
1772526260502615300,0.690615234375,1.740134525078535,0.6790452167287468,-1.4421467270210384
1772526260512598000,0.700597900390625,1.9451064780473708,0.3732639883160591,-1.275933689904958
1772526260522581000,0.7105810546875,1.9651848049581049,0.1378492585495114,-1.160269375156611
1772526260532563200,0.720563232421875,1.8519634994477032,0.006342939285933971,-1.0999873404122888
1772526260542546000,0.7305458984375,1.556908539971709,-0.10439502497613429,-1.168518440324813
1772526260552529200,0.740529052734375,1.1952964110046624,-0.1641936601176858,-1.362927644355595
1772526260562511000,0.750510986328125,0.8412912499099969,-0.180922384339571,-1.63137180641219
1772526260572494000,0.760494140625,0.5403881489276886,-0.1402937290921807,-1.8766423058912156
1772526260582477000,0.77047705078125,0.27959260192811486,-0.07202478724718094,-2.092479644006491
1772526260592459300,0.780459228515625,-0.0025075989067554474,-0.01732230620086193,-2.2649147705078123
1772526260602442000,0.79044189453125,-0.3033709524005651,0.0280418531358242,-2.3738591293513776
1772526260612425500,0.800425537109375,-0.5790291374891996,0.11310498565435409,-2.4264788127742705
1772526260622407700,0.81040771484375,-0.7632511478960513,0.2817559174418449,-2.4832062237769366
1772526260632390700,0.820390625,-0.8152081296265125,0.5022191617920995,-2.4400875052794815
1772526260642373600,0.83037353515625,-0.7388608030050993,0.7232225043684244,-2.2560187857382
1772526260652355600,0.84035546875,-0.5066191503167152,0.8809615815192461,-1.9536309991560876
1772526260662338800,0.8503388671875,-0.1979185273259878,0.9544953120246529,-1.610919239361584
1772526260672321500,0.860321533203125,0.20202011742591858,0.9817217571243643,-1.3357267720885575
1772526260682303700,0.8703037109375,0.60347851909101,0.9620517187535762,-1.132131222039461
1772526260692286700,0.88028662109375,0.9363847780555486,0.8919456246092915,-1.0174871902495621
1772526260702269400,0.89026953125,1.2027601710140705,0.8258151560977101,-0.9969845004469156
1772526260712251600,0.900251708984375,1.3701660711765289,0.7848977470368147,-1.0418348650425673
1772526260722234600,0.910234619140625,1.5017916329056025,0.7743848285898566,-1.0923996617622673
1772526260732217600,0.920217529296875,1.6284265467405319,0.756798903016746,-1.0591643316365777
1772526260742199600,0.930199462890625,1.746997981107235,0.6992986079454422,-0.9728975224167108
1772526260752182800,0.940182861328125,1.8022364687263965,0.5935168047860264,-0.851106541481614
1772526260762165500,0.95016552734375,1.7473060241430998,0.44327012921720743,-0.6847269156269729
1772526260772147700,0.960147705078125,1.5991747332930564,0.31577246107310053,-0.5177078228250146
1772526260782130700,0.970130615234375,1.3489841669380664,0.2598714178919792,-0.40479704456850885
1772526260792113700,0.98011376953125,1.0261012893378734,0.23513649734705686,-0.36584392131790516
1772526260802095600,0.990095703125,0.721949415692687,0.19563567708581686,-0.32687691567242144
1772526260812078600,1.00007861328125,0.37407647374272346,0.14952683686167,-0.35159824608340856
1772526260822061600,1.0100615234375,0.029851532906293866,0.12070260117650031,-0.44111616605371234
1772526260832043500,1.02004345703125,-0.4311550362706184,0.08704963016062975,-0.4860134385310113
1772526260842026800,1.03002685546875,-1.0380857416421174,0.08956745820045471,-0.48271278955042357
1772526260852009500,1.040009521484375,-1.7290578352689743,0.13094605503231285,-0.47809214401245115
1772526260861991700,1.04999169921875,-2.4183166952371598,0.21701398067921399,-0.48420507393479345
1772526260871974700,1.059974609375,-3.0381799474179743,0.19829232907444239,-0.390345763759315
1772526260881957600,1.06995751953125,-3.494118711811304,0.0063452773734927175,-0.22048457939922808
1772526260891939600,1.079939697265625,-3.695663612940907,-0.12006985623091458,-0.11144260540008544
1772526260901922800,1.0899228515625,-3.578451776489615,-0.09950754519551992,-0.2187766064375639
1772526260911905500,1.099905517578125,-3.186187319627404,-0.015145838944613932,-0.4514194603379816
1772526260921887700,1.1098876953125,-2.675272517943382,-0.0022337504014372823,-0.6201866389162838
1772526260931870700,1.11987060546875,-2.143833983668685,-0.0764098704636097,-0.7357327341124414
1772526260941853400,1.129853515625,-1.6304267806470394,-0.12096212889552116,-0.862752701742202
1772526260951835600,1.139835693359375,-1.232032442727685,-0.08504413555711507,-0.9828286223877221
1772526260961818600,1.149818603515625,-1.0174532879799605,-0.009264964212477207,-1.077743067639321
1772526260971801600,1.159801513671875,-0.9914058235317468,0.16534283015280962,-1.10673199236691
1772526260981783600,1.169783447265625,-1.1091846462160349,0.5138076005160809,-1.0890877607353031
1772526260991766800,1.179766845703125,-1.2955816625744103,0.9757280696675181,-1.0296691378872842
1772526261001749500,1.18974951171875,-1.4836761305004358,1.4060051540598273,-0.8620758984591811
1772526261011731700,1.199731689453125,-1.592431688773632,1.6952935128331184,-0.5837599288707599
1772526261021714700,1.209714599609375,-1.5599071372658013,1.8385934380039572,-0.1921465928610414
1772526261031697400,1.219697509765625,-1.367629246175289,1.8474296554103493,0.19670166234951464
1772526261041679600,1.2296796875,-1.0094278024345635,1.7879446162626147,0.5105793591845781
1772526261051662600,1.23966259765625,-0.5325964721381664,1.6416829186767339,0.7502876214265823
1772526261061645600,1.2496455078125,-0.14827508323490618,1.3981187847241758,0.9285443667534738
1772526261071627500,1.25962744140625,0.14178455217182637,1.1557304165527225,1.0933386231128126
1772526261081610800,1.26961083984375,0.3635819677352905,0.9795856218785047,1.1807299793832002
1772526261091593500,1.279593505859375,0.5197527726560831,0.8467711426258087,1.1390893706142902
1772526261101576400,1.289576416015625,0.6301227803885936,0.7108043368220329,0.9642876611120998
1772526261111558700,1.29955859375,0.664479223498702,0.5383288783103227,0.6728691584423184
1772526261121541600,1.309541748046875,0.6441928067952394,0.3144152012452483,0.316947496201843
1772526261131524600,1.319524658203125,0.5740630395144224,0.036514497926831244,-0.06210070153884589
1772526261141506600,1.329506591796875,0.4964677586585283,-0.2591205995246768,-0.5030561240728945
1772526261151489800,1.33948974609375,0.4508399799495935,-0.5177689053624868,-0.9381390743769705
1772526261161472500,1.349472412109375,0.4340180244863033,-0.6940288508489728,-1.2839271728768944
1772526261171454700,1.359454833984375,0.4512006299555301,-0.7983239225819706,-1.4922617341466247
1772526261181437700,1.369437744140625,0.4963847565501928,-0.8653905028998852,-1.5709864574238657
1772526261191420700,1.379420654296875,0.5499333913862705,-0.9464534598663449,-1.5350496132545173
1772526261201402600,1.389402587890625,0.6364455536693334,-1.0073498271167278,-1.414286367931962
1772526261211385600,1.399385498046875,0.7683183681577443,-1.033429732529819,-1.241268619237095
1772526261221368600,1.40936865234375,0.940835912245512,-1.0255550536319613,-1.049498823799193
1772526261231350800,1.419350830078125,1.1512936031490564,-0.9882529124587773,-0.8563746911428868
1772526261241333800,1.429333740234375,1.3675246167570352,-0.9461158984750508,-0.6408041872702539
1772526261251315700,1.439315673828125,1.53902158562541,-0.9130494951754808,-0.44290191695932296
1772526261261298700,1.449298583984375,1.591974592655897,-0.9035501376852393,-0.24929588253758847
1772526261271281700,1.45928173828125,1.5429332061111927,-0.9142603322699665,-0.09883125336915254
1772526261281264600,1.4692646484375,1.4648621244370936,-0.9047767568707465,-0.0132290455378592
1772526261291246600,1.47924658203125,1.3455734817117453,-0.8617103530824184,0.008015183347091078
1772526261301229800,1.489229736328125,1.217725684955716,-0.8174751977756619,0.010731894959881902
1772526261311212500,1.499212646484375,1.1416893239796162,-0.7691960277751088,0.003122004478052258
1772526261321194800,1.50919482421875,1.05279581951797,-0.7332423786014318,-0.026720176078006624
1772526261331177700,1.519177734375,0.9989578463464974,-0.6871271086364984,-0.06328516208305955
1772526261341159700,1.52915966796875,0.9762129305750131,-0.6650301353797317,-0.07410948456674814
1772526261351142700,1.539142578125,0.9734048874169587,-0.642466713654995,-0.05669979234337806
1772526261361125600,1.549125732421875,0.9515209723889827,-0.5777008114948868,-0.06961407284364104
1772526261371108600,1.559108642578125,0.8706196357250213,-0.4410091985478997,-0.09661839962527155
1772526261381090600,1.569090576171875,0.6669833152741194,-0.23670944575220346,-0.14355105038769542
1772526261391073800,1.57907373046875,0.3674287062913179,0.02146364378929138,-0.11556026985198259
1772526261401056500,1.589056396484375,0.046910219734907145,0.19498568874448538,0.04665273784250021
1772526261411038700,1.599038818359375,-0.2188929262936115,0.2090513312369585,0.32329365035817026
1772526261421021700,1.609021728515625,-0.3426204282492399,0.08791121542602777,0.6601596067339182
1772526261431003600,1.619003662109375,-0.32039339887201784,-0.08993336890339851,0.9385100265812129
1772526261440986600,1.628986572265625,-0.20739362715780735,-0.3494146184340119,1.2086831313222646
1772526261450969600,1.638969482421875,-0.0731722037166357,-0.6249407015755772,1.4170627007775007
1772526261460952600,1.64895263671875,-0.01637070456445217,-0.8274950720086693,1.464439807371795
1772526261470934500,1.6589345703125,0.036170214533805846,-0.9312816096976398,1.3064768583372235
1772526261480917800,1.668917724609375,0.057173255074024196,-1.0052321043103933,1.054041727925837
1772526261490900500,1.678900390625,0.0738864894658327,-1.0872156832531095,0.7808578239962458
1772526261500882700,1.688882568359375,0.10477613324820995,-1.1029404911294578,0.46477249758169054
1772526261510865700,1.69886572265625,0.06367196944355964,-1.0635296872392297,0.14242840303331614
1772526261520848600,1.7088486328125,-0.07370119602680206,-0.9723866502851247,-0.15633271748423574
1772526261530830600,1.71883056640625,-0.3399871571362018,-0.8376441255792975,-0.4294489630050957
1772526261540813600,1.7288134765625,-0.724637047341466,-0.6236980080381035,-0.632222090755403
1772526261550796500,1.738796630859375,-1.1750164240419865,-0.383180402174592,-0.7841153644874691
1772526261560778500,1.748778564453125,-1.6672645191788673,-0.10767185468971728,-0.8666638838365673
1772526261570761700,1.75876171875,-2.130672304278612,0.18710604141056536,-0.8840434731826186
1772526261580743400,1.768743408203125,-2.5130197627604005,0.4905249246060848,-0.7884227062925696
1772526261590726700,1.7787265625,-2.6962013242036105,0.7798401713863015,-0.6266499897114932
1772526261600709600,1.788709716796875,-2.5950556564122436,1.0940993052870034,-0.45514995210319753
1772526261610691300,1.79869140625,-2.2824971889495846,1.3305135674849151,-0.2296361463651061
1772526261620674000,1.808674072265625,-1.8511480914115905,1.3755448416054248,0.10369169901236891
1772526261630657300,1.8186572265625,-1.3342881175875663,1.2799886643841862,0.4295753658637404
1772526261640639200,1.82863916015625,-0.7826958530783653,1.1881146828070281,0.5947573063664138
1772526261650622200,1.838622314453125,-0.18417057248055935,1.108921611365676,0.6085594756171107
1772526261660605200,1.848605224609375,0.38201018935143943,1.0000374582767486,0.5151214595936239
1772526261670587400,1.85858740234375,0.7801479221612214,0.7818602790370583,0.3904787424892187
1772526261680570400,1.8685703125,1.1018874749451875,0.5270470213174819,0.27214345496594905
1772526261690553000,1.878552978515625,1.3710486992299555,0.2701671864569187,0.1461485926002264
1772526261700535300,1.888535400390625,1.586720909911394,-0.027901860143244264,-0.01652224186435342
1772526261710518300,1.898518310546875,1.7805372626155613,-0.30070114866942166,-0.28657676172703506
1772526261720501200,1.908501220703125,1.9930565622240304,-0.4240992725402117,-0.6605335546128451
1772526261730483200,1.918483154296875,2.1569161680817603,-0.42330929120630023,-1.002890948011726
1772526261740466400,1.928466552734375,2.1308125895321366,-0.45627720256745813,-1.1479651893787086
1772526261750449200,1.93844921875,1.8683768741101026,-0.5067100434705615,-1.0826597735144197
1772526261760431400,1.948431396484375,1.4416536828070878,-0.4178817131996155,-0.9457296756364405
1772526261770414300,1.958414306640625,0.943126069009304,-0.18659779962748288,-0.8489370884880423
1772526261780397000,1.96839697265625,0.40726328855156896,0.06064356153309345,-0.7508272812612354
1772526261790379300,1.978379150390625,-0.16519582289755344,0.25771336307525633,-0.6624915568128228
1772526261800362200,1.9883623046875,-0.7447282337337732,0.383225118099153,-0.5819271970182657
1772526261810345200,1.99834521484375,-1.2208768424630165,0.5395356237515807,-0.5369380084738135
1772526261820327200,2.0083271484375,-1.5336849007725715,0.6836734610512852,-0.45760815891027445
1772526261830310400,2.018310302734375,-1.6888474054336546,0.7855582567721605,-0.31242884973362084
1772526261840293000,2.028293212890625,-1.5802128431916236,0.8476046708405017,-0.14905118217393756
1772526261850275300,2.038275390625,-1.2886229294776916,0.8700517727091908,-0.007379150465875863
1772526261860258300,2.04825830078125,-0.8737970967173576,0.8458969901397824,0.13629896036759018
1772526261870241300,2.0582412109375,-0.3877899417966604,0.8230185111165046,0.2553825820401311
1772526261880223200,2.06822314453125,0.09482172546684742,0.8043497587427496,0.3352778104014694
1772526261890206500,2.07820654296875,0.5338567013323307,0.7718406970649957,0.380772756510973
1772526261900189200,2.088189208984375,0.8665893572956324,0.7226131402984262,0.37635026389360426
1772526261910171400,2.09817138671875,1.1118991658717394,0.6772603791385888,0.3321301600255072
1772526261920154400,2.108154296875,1.2661369569033383,0.6230661398753523,0.27770605752915145
1772526261930137000,2.11813720703125,1.341603409036994,0.5504179600328206,0.20849311283230781
1772526261940119300,2.128119384765625,1.3691092555999755,0.5200131771579385,0.10218260962367057
1772526261950102300,2.138102294921875,1.3595932392358778,0.47358051180690525,-0.019225363343209026
1772526261960085200,2.148085205078125,1.342753748115897,0.3806581902205944,-0.10093217117115855
1772526261970067200,2.158067138671875,1.3225006491601465,0.2523199795991182,-0.1478013282433152
1772526261980050400,2.168050537109375,1.2645832977205513,0.11247574784010649,-0.20926979629322887
1772526261990033200,2.178033203125,1.142177984279394,-0.024300328519940375,-0.35567908565625544
1772526262000015400,2.188015380859375,0.950972106334567,-0.08604717511981726,-0.5367902705661952
1772526262009998300,2.197998291015625,0.6771253545820712,-0.06335077466517687,-0.7512056130543351
1772526262019981000,2.20798095703125,0.3992354649186134,0.01384235513061285,-0.9024525517068803
1772526262029963300,2.21796337890625,0.14542787711024283,0.08061638224273919,-0.9205315214939415
1772526262039946200,2.2279462890625,-0.0908791253209114,0.08900017970651387,-0.8866196072809398
1772526262049929200,2.23792919921875,-0.33042730163037776,0.05076017316132784,-0.8554932321332395
1772526262059911200,2.2479111328125,-0.49770285341143605,0.033684827458858486,-0.8454866557732224
1772526262069894400,2.257894287109375,-0.5911643964409827,-0.11528437552005052,-0.6906584976330399
1772526262079877000,2.267877197265625,-0.5258680406659841,-0.5960910391882062,-0.35208223020806906
1772526262089859300,2.277859375,-0.29706980642974373,-0.9698512865886092,-0.26486601130887866
1772526262099842300,2.28784228515625,-0.09082184217572212,-1.01372403832376,-0.47501522078514097
1772526262109825000,2.297824951171875,-0.01751227581501007,-0.9937538479626178,-0.7802272710077464
1772526262119807200,2.30780712890625,-0.10936989077925681,-1.1439043696805835,-0.9745435360580682
1772526262129790200,2.317790283203125,-0.22638123622238635,-1.3249623630985616,-1.0868053488865494
1772526262139773200,2.327773193359375,-0.34285891318023204,-1.3980115249574183,-1.1840863040737808
1772526262149755100,2.337755126953125,-0.48948096851110456,-1.3127891102239488,-1.2408709982216357
1772526262159738400,2.34773828125,-0.6909329306602477,-1.0692547868877649,-1.2143611769586802
1772526262169721300,2.357721435546875,-0.8860609504848718,-0.7087931431300938,-1.0371746181465684
1772526262179703300,2.367703369140625,-1.0613467902421951,-0.2964692101880908,-0.7868129330083727
1772526262189686300,2.377686279296875,-1.2544114477962254,0.13743468639925122,-0.5402348580621182
1772526262199669200,2.387669189453125,-1.4968804799884556,0.5331641890235245,-0.31445290290713307
1772526262209651200,2.397651123046875,-1.6984370715558528,0.8770620898626744,-0.019134908580780027
1772526262219634200,2.40763427734375,-1.7805553827941416,1.1334475653350353,0.35441856420114637
1772526262229617400,2.417617431640625,-1.6600392441004514,1.224901421803981,0.7711585600197315
1772526262239599000,2.42759912109375,-1.3630822503954172,1.1605527221426366,1.09414796673432
1772526262249582300,2.437582275390625,-0.9179273303449154,1.0619038396030664,1.1916544012404977
1772526262259565300,2.4475654296875,-0.3545318153172731,1.0232099518105386,1.013847372442484
1772526262269547300,2.45754736328125,0.09531330837607384,0.914534619166702,0.7934813048563897
1772526262279530200,2.4675302734375,0.39073300951123235,0.5919290972031652,0.6936698082782328
1772526262289512200,2.47751220703125,0.5795423477083445,0.11977058102339505,0.672280544899404
1772526262299495200,2.4874951171875,0.6885211933434009,-0.32917350217700003,0.6421072326928376
1772526262309478400,2.497478515625,0.6934206558227539,-0.678502195893228,0.5193829894956201
1772526262319460000,2.507460205078125,0.554134350207448,-0.9105202689588069,0.2449627487041056
1772526262329443300,2.517443359375,0.29812896009385587,-1.0222677025243638,-0.13870032242089508
1772526262339426300,2.52742626953125,-0.048099721780419345,-1.0291823042184114,-0.5746305372040719
1772526262349408300,2.537408203125,-0.33117724321484565,-0.9355836908057331,-0.9141006847288459
1772526262359391200,2.54739111328125,-0.5230658427268267,-0.7997595083430409,-1.0623270334511994
1772526262369374200,2.557374267578125,-0.6641437079340219,-0.691323975804448,-1.0125476149555295
1772526262379356200,2.567356201171875,-0.6658458356767892,-0.5518313339620828,-0.8377841185718774
1772526262389339100,2.577339111328125,-0.472844306486845,-0.36039632343649863,-0.6545381135903299
1772526262399322400,2.587322265625,-0.16012217289507388,-0.12580693857818842,-0.4724949085272848
1772526262409304000,2.597303955078125,0.2380342646151781,0.07092442478984594,-0.2881743331167847
1772526262419287300,2.607287353515625,0.6213321556895971,0.2034671013638377,-0.1002946039199829
1772526262429270300,2.617270263671875,0.9045938015192747,0.2760094827443361,0.0751313018951565
1772526262439252200,2.627252197265625,1.1099515389353036,0.3190180188655853,0.22715960018374023
1772526262449235200,2.637235107421875,1.2446148609250782,0.3446206621557474,0.2812571741394698
1772526262459218200,2.64721826171875,1.333712363526225,0.32856530715078114,0.2675502088915557
1772526262469200100,2.6572001953125,1.4026286633640528,0.2669827112019062,0.21802688404880463
1772526262479183000,2.66718310546875,1.4619991362214089,0.16174422113895415,0.10453896349146961
1772526262489166300,2.677166259765625,1.5403677395373583,0.04809212299585342,-0.014435060326755046
1772526262499148000,2.68714794921875,1.5776257493078707,-0.09588613982796669,-0.1164109683971852
1772526262509131300,2.69713134765625,1.5583680911302566,-0.21994477343410251,-0.23279387974366544
1772526262519114200,2.7071142578125,1.440152046072483,-0.30565409490168094,-0.3491860703751445
1772526262529096400,2.717096435546875,1.2058137133657931,-0.34089521189183,-0.4651964220821857
1772526262539079200,2.7270791015625,0.825406867557764,-0.33833412923216816,-0.6072572339121252
1772526262549062100,2.737062255859375,0.378905793595314,-0.283219852514565,-0.7105754965022206
1772526262559044400,2.74704443359375,0.00010989011526107787,-0.14644991363435983,-0.7575773400433361
1772526262569027000,2.757027099609375,-0.28725802198946476,0.031055647999048232,-0.7856712156273424
1772526262579010300,2.76701025390625,-0.5297907670676708,0.18061989426165817,-0.7598452119100838
1772526262588992300,2.7769921875,-0.7409405318886041,0.22378946616351603,-0.7576500399533659
1772526262598975200,2.786975341796875,-1.0520324339300393,0.09571078326106071,-0.8206673448804765
1772526262608958200,2.796958251953125,-1.3709317948520183,-0.09808072726279496,-0.9278647139262407
1772526262618941000,2.80694091796875,-1.5962836880266666,-0.344041400963068,-1.0418130916021764
1772526262628924000,2.816923828125,-1.6916028416216373,-0.7916127345055342,-0.8818143989562988
1772526262638907000,2.826906982421875,-1.489289294207096,-1.2767349232852458,-0.5184702220322563
1772526262648888800,2.836888916015625,-1.1129045435220002,-1.4016300077155233,-0.2359679432025179
1772526262658871800,2.846871826171875,-0.7008066744208336,-1.3464409121960401,-0.03655921385139227
1772526262668855000,2.85685498046875,-0.3818921159297228,-1.2200617266878484,0.057164596843533214
1772526262678836700,2.866836669921875,-0.16637714163661002,-1.1267653110921383,0.15338037048466502
1772526262688820000,2.876820068359375,0.03927577933371067,-1.0097940053984522,0.21979119030758737
1772526262698801700,2.8868017578125,0.21643793435692785,-0.7241516019120812,0.19539737481791525
1772526262708785000,2.896784912109375,0.27125381264984605,-0.30510698241293427,0.058481963052414355
1772526262718767900,2.906767822265625,0.0862608178704977,0.13409867384433746,-0.0904848653063178
1772526262728750000,2.91675,-0.3895324015498161,0.41898470600545407,-0.18542985182665286
1772526262738732800,2.92673291015625,-1.0857950028002261,0.5616787742376327,-0.25389533915705975
1772526262748715800,2.9367158203125,-1.9128449613898992,0.6874868818596005,-0.33672793614454566
1772526262758698000,2.946697998046875,-2.7115035227537154,0.8003799783289433,-0.4784301437951624
1772526262768680700,2.9566806640625,-3.125671768388152,0.9056362963095307,-0.6708334148310124
1772526262778664000,2.966663818359375,-3.048413756662607,1.0308718647405504,-0.9454986433595418
1772526262788646000,2.97664599609375,-2.543046067711711,1.0248603493660688,-1.2760327663652598
1772526262798628900,2.98662890625,-1.6518705506920814,0.7650175730466843,-1.5876047070086001
1772526262808611800,2.99661181640625,-0.49401335124373436,0.311588453386724,-1.7731359003178775
1772526262818594000,3.006593994140625,0.83298636290133,-0.14825579401254654,-1.8751582048133015
1772526262828576800,3.01657666015625,1.9561159478396175,-0.4407341809988022,-1.826434213654697
1772526262838559700,3.026559814453125,2.7660610423713923,-0.5187833431020379,-1.5905325771540402
1772526262848542000,3.0365419921875,3.298516644734144,-0.4997764448150992,-1.263331982485205
1772526262858524700,3.046524658203125,3.6271950568705793,-0.4945543262526393,-1.039737015980482
1772526262868508000,3.0565078125,3.700997959706187,-0.5757154828965664,-0.8887170179516076
1772526262878489900,3.06648974609375,3.4117940643459557,-0.7039134082645178,-0.6653426353950053
1772526262888472800,3.076472900390625,2.8140970512658354,-0.7331392104879021,-0.42321496398635206
1772526262898455800,3.086455810546875,1.9500942033320665,-0.5895502392426133,-0.28409539324007926
1772526262908438000,3.09643798828125,1.0314379741907118,-0.27611849607676264,-0.18257828005412594
1772526262918420700,3.106420654296875,0.3485615087360143,0.1593938586205244,-0.10167612140625715
1772526262928404000,3.116404052734375,-0.07826689650714397,0.5270318237483501,-0.09273854425093159
1772526262938386000,3.126385986328125,-0.26251754848659037,0.7439329917028545,-0.21370299296770243
1772526262948369000,3.136368896484375,-0.3181073337614536,0.909861805050075,-0.37250641141440716
1772526262958352000,3.146351806640625,-0.3610778759598732,1.0181555910304187,-0.5316784439777955
1772526262968334000,3.156333984375,-0.4866495444774627,1.0164327127605677,-0.6814859609443694
1772526262978316800,3.16631689453125,-0.7112637710273265,0.9875079393103718,-0.7932379245545714
1772526262988299000,3.176299072265625,-1.004648751464486,0.9992574138149618,-0.895461742971465
1772526262998282000,3.186281982421875,-1.1410890199989079,1.078454576909542,-0.9298317031502723
1772526263008264700,3.1962646484375,-1.0518722749322653,1.2276575886443257,-0.8436774874594062
1772526263018247000,3.206246826171875,-0.7334598207443952,1.2838733968630431,-0.6842611247461289
1772526263028230000,3.21622998046875,-0.23031623758375644,1.196706862324476,-0.4919149176597595
1772526263038212900,3.226212890625,0.37639702564477917,1.0617372508645058,-0.2551820910319686
1772526263048194800,3.23619482421875,1.1202122361868618,0.9319237069934606,-0.06893693163390271
1772526263058178000,3.246177978515625,1.6865104869186878,0.8187672834128141,0.20121481065871194
1772526263068160800,3.256160888671875,2.0142145010650157,0.756946202532947,0.4778344429243356
1772526263078143000,3.26614306640625,2.2087252657741305,0.7601353539630771,0.7242171414289623
1772526263088126000,3.2761259765625,2.316518116495013,0.7591872594580054,0.9292663243524729
1772526263098108700,3.286108642578125,2.3383470864653586,0.7472045607194304,1.050644340572506
1772526263108091000,3.2960908203125,2.285492279112339,0.6967015771895647,1.1804533543989062
1772526263118073900,3.306073974609375,2.0680355231016874,0.5567424868792296,1.2537785567201674
1772526263128056800,3.316056884765625,1.6911042444497346,0.4188984890267253,1.2673615302622319
1772526263138038800,3.326038818359375,1.222086218252778,0.41918665831834073,1.2310730961762368
1772526263148022000,3.33602197265625,0.6625239977777004,0.5026213128522038,1.1777028135817498
1772526263158004700,3.346004638671875,0.03087152360379696,0.6250640356943011,1.1955690904662013
1772526263167987000,3.355987060546875,-0.6078589261323213,0.7556345354124904,1.2655405984453856
1772526263177970000,3.365969970703125,-1.1837702238619328,0.9280880743533372,1.2718245010204612
1772526263187952600,3.37595263671875,-1.6360352681785821,1.0685299797445535,1.1723382178086788
1772526263197934800,3.385934814453125,-1.909092915380001,1.1595660491928457,1.039759154747054
1772526263207917800,3.395917724609375,-2.0766724185436964,1.3168579670980571,0.8272475269883871
1772526263217901000,3.405901123046875,-2.1911147902816532,1.28151075938493,0.6323644218355416
1772526263227882800,3.4158828125,-2.289712527155876,0.9716220956534146,0.6500367105178535
1772526263237866000,3.425865966796875,-2.1761451846867796,0.35956893270164725,0.7902984370365739
1772526263247849000,3.435848876953125,-1.9372592716783283,0.08188800961375237,0.5965064150560647
1772526263257831000,3.445830810546875,-1.8900871861368416,0.18640519966483116,0.2642741098303348
1772526263267814000,3.45581396484375,-2.0795628792881966,0.3418172951728105,0.07888568599261343
1772526263277795800,3.4657958984375,-2.492346977087855,0.5250198994040489,-0.045651817171648144
1772526263287778800,3.47577880859375,-2.980322801733017,0.8340341183885931,-0.3480763555675745
1772526263297761800,3.48576171875,-3.3418864153832195,1.1865437802284955,-0.7472730959109961
1772526263307743700,3.49574365234375,-3.561477260813117,1.48897394464761,-1.0763219487950204
1772526263317727000,3.50572705078125,-3.7006408168315885,1.7180919123575091,-1.2348048300504684
1772526263327710000,3.5157099609375,-3.7793636404126882,1.8767276460871098,-1.2064195703044533
1772526263337692000,3.52569189453125,-3.668526599690318,1.952724551835656,-1.0064705600641668
1772526263347675000,3.5356748046875,-3.3549726914495226,1.8551541121825574,-0.6538001547046005
1772526263357657900,3.545657958984375,-2.736911520254612,1.5982545497082172,-0.22785759238526224
1772526263367639800,3.555639892578125,-1.8366998793423175,1.3395888543441892,0.11875943121947348
1772526263377622800,3.565622802734375,-0.8071276990234851,1.2262334010601044,0.35363128628097473
1772526263387606000,3.57560595703125,0.16933949857354164,1.1339470392897724,0.5392205664530396
1772526263397587700,3.585587646484375,1.0241507397919893,0.9428840769469737,0.7503546222481876
1772526263407571000,3.595571044921875,1.695267793869972,0.6107376964390278,0.9787801507145166
1772526263417554000,3.605553955078125,2.1355127300471066,0.1982803463757038,1.1805103452831507
1772526263427536000,3.615535888671875,2.3316736000508067,-0.23155250138044356,1.3449424903318286
1772526263437518800,3.625518798828125,2.2960510825276375,-0.5863932365164161,1.3894059014365077
1772526263447501800,3.635501708984375,1.9654712206840514,-0.8065957841038703,1.2581900895521043
1772526263457483800,3.64548388671875,1.4199158982515334,-0.8909317713916302,0.9462472697697579
1772526263467466800,3.655466796875,0.9740192199230193,-0.9580959668651222,0.4225478418471291
1772526263477450000,3.665449951171875,0.5287929882019758,-1.0489312530443071,-0.12937712521515785
1772526263487431700,3.675431640625,0.17769114733338354,-1.1965925882950423,-0.6228619956053794
1772526263497415000,3.685414794921875,0.13566402346491813,-1.185552723364532,-1.2495306900173424
1772526263507396900,3.69539697265625,0.2290501631706953,-1.0324109108760953,-1.8263623174622654
1772526263517379800,3.7053798828125,0.2748036140859127,-0.8527388188585638,-2.128242446783185
1772526263527362800,3.71536279296875,0.17177169415652752,-0.586902355082333,-2.0432595398940143
1772526263537345000,3.725344970703125,-0.029831074640154838,-0.23759178154468535,-1.5267909034751355
1772526263547327700,3.73532763671875,-0.2711900997638702,0.17913199379146097,-0.7370835641995072
1772526263557310700,3.745310791015625,-0.46529988245666026,0.4997001647084951,0.2187692999139428
1772526263567293000,3.75529296875,-0.5502455260753631,0.7140861349716782,1.1070648775830865
1772526263577276000,3.76527587890625,-0.4817202713817358,0.8951298076033591,1.6754134849734603
1772526263587259000,3.7752587890625,-0.30234160935282706,1.0335852153524756,1.8545006167098879
1772526263597240800,3.78524072265625,-0.0058066404521465295,0.9589619360446929,1.7584373667493463
1772526263607224000,3.79522412109375,0.2666331671118736,0.7419193137928843,1.5569010873176157
1772526263617206000,3.8052060546875,0.5711456907629966,0.5129492301210761,1.306272567936778
1772526263627188000,3.81518798828125,0.8866682687282562,0.3327124899581074,1.0371686267971991
1772526263637171000,3.8251708984375,1.1178951914161444,0.2155497533455491,0.8491901864662766
1772526263647154200,3.835154296875,1.249485097309947,0.10972031165212393,0.7295441086053848
1772526263657135900,3.845135986328125,1.3268512455850838,0.023364801235496998,0.6695746469415724
1772526263667119000,3.855119140625,1.405203482288122,-0.03090396456867456,0.607845628259331
1772526263677102000,3.86510205078125,1.4806950688630343,-0.04932955583631992,0.6201083129830658
1772526263687084000,3.875083984375,1.628549296337366,-0.05362871433496475,0.7974369106143713
1772526263697067000,3.88506689453125,1.7758283542722462,-0.08365063537210225,1.1050086757056414
1772526263707049200,3.89504931640625,1.872089172631502,-0.1283364570558071,1.3334480135016142
1772526263717032000,3.905031982421875,1.8641829295516013,-0.18202566940635442,1.4100078138299286
1772526263727015000,3.915014892578125,1.6776999884754418,-0.2216188441261649,1.3286053957760333
1772526263736997000,3.9249970703125,1.2784867353886364,-0.2605275437131524,1.1083077172510325
1772526263746979800,3.934979736328125,0.6116589029371738,-0.3628346564993262,0.7011391212455927
1772526263756963000,3.944963134765625,-0.33712416892051694,-0.6047174132362008,0.12247910932973026
1772526263766945000,3.954945068359375,-1.3630050935059785,-0.9380597255304455,-0.5463595514874905
1772526263776928000,3.964927978515625,-2.120143896001577,-1.1245543570443988,-1.2401160882011055
1772526263786911000,3.974910888671875,-2.3903631049066782,-1.1411574090600014,-1.8647991617538033
1772526263796893200,3.98489306640625,-2.217042427742481,-1.0335305625557898,-2.3062997970804573
1772526263806876000,3.9948759765625,-1.8472586827576158,-0.9759063488438725,-2.5042297225832937
1772526263816859000,4.00485888671875,-1.4087310718923807,-1.051076448379457,-2.3351333851158618
1772526263826841000,4.014841064453125,-0.837919143128395,-1.0555682068407535,-1.92082543874979
1772526263836824000,4.024823974609375,-0.2839092960834503,-0.9284440481841564,-1.4334928804442286
1772526263846807000,4.03480712890625,0.13433365164399147,-0.8019611100405454,-0.8348463115543127
1772526263856789000,4.0447890625,0.3935772930264473,-0.6789379569619893,-0.15002174423914402
1772526263866772000,4.05477197265625,0.48640346076190466,-0.49302434020638464,0.5030576584428549
1772526263876755000,4.0647548828125,0.41589200068712234,-0.24599662179648873,0.9008749271266162
1772526263886737200,4.074737060546875,0.19053543133735656,0.032467268362641334,0.9625595952104776
1772526263896720000,4.084719970703125,-0.18226561564207075,0.3051011371940374,0.8004670720905065
1772526263906702000,4.0947021484375,-0.6043079556524753,0.5389285977691411,0.6277466258417814
1772526263916685000,4.10468505859375,-0.9578361468851566,0.7842594491332769,0.5589577152432873
1772526263926668000,4.11466796875,-1.1829857954859733,1.0348480748951434,0.5509674836743623
1772526263936650000,4.12464990234375,-1.271736092084646,1.312643272012472,0.5655318694692105
1772526263946633200,4.13463330078125,-1.1662801598787307,1.6446645648360252,0.5938729978125542
1772526263956616000,4.144615966796875,-0.9894202026724814,1.921398270201683,0.677778192467615
1772526263966598100,4.15459814453125,-0.806605720975995,2.100105316579342,0.8617357797846198
1772526263976581000,4.1645810546875,-0.5621545750558375,2.2188953621327876,1.1524132548287511
1772526263986563800,4.174563720703125,-0.2686158653616905,2.3606787452608344,1.495351516855508
1772526263996546000,4.184546142578125,-0.03771802849769592,2.504706692445278,1.8662410311251878
1772526264006529000,4.194529052734375,0.14753274043500422,2.5968413707852362,2.269236725360155
1772526264016512300,4.20451220703125,0.20216566337645053,2.5911586489737033,2.6174402144387363
1772526264026494000,4.214493896484375,0.12454057190418243,2.4203929169893263,2.9384783409550783
1772526264036477200,4.224477294921875,-0.05554653065502643,2.1652023503899573,3.1482395740270612
1772526264046460200,4.234460205078125,-0.32656185837388035,1.9038339719384907,3.1531708929494022
1772526264056442000,4.244442138671875,-0.5833861636549234,1.6638672779560089,3.0229014220044017
1772526264066425000,4.254425048828125,-0.8092232099980116,1.4688497327685355,2.834719275794923
1772526264076407000,4.264406982421875,-0.9940116221159696,1.3258078740119934,2.647266320642829
1772526264086390000,4.27439013671875,-1.1897194876551627,1.1975158406198023,2.485570614820719
1772526264096373000,4.284373046875,-1.437854290524125,1.06389296759367,2.302808740094304
1772526264106355000,4.29435498046875,-1.7633657630622386,0.9937252063900232,2.075293385275453
1772526264116338000,4.304337890625,-2.170939432737231,1.0245756872057914,1.8891674409434198
1772526264126321200,4.314321044921875,-2.50496388207674,1.1587141085386277,1.6745041150435804
1772526264136302800,4.324302734375,-2.6650141587793827,1.3866829062134027,1.491675458691269
1772526264146286000,4.3342861328125,-2.6626170345097777,1.5734487558841705,1.395536513146013
1772526264156269000,4.34426904296875,-2.576466106754541,1.697851380622387,1.3701146332502365
1772526264166251000,4.3542509765625,-2.3458330583065745,1.7555249864339828,1.365952837395668
1772526264176234000,4.36423388671875,-2.0080138928592204,1.7825304822593926,1.3809180590763688
1772526264186217000,4.374217041015625,-1.659265921640396,1.76783910908401,1.3856753366060555
1772526264196199000,4.384198974609375,-1.2606249154835938,1.72477621242702,1.3749066898323594
1772526264206182000,4.394181884765625,-0.873770208710432,1.6826859601944684,1.3697221268013118
1772526264216165000,4.4041650390625,-0.47952422264218325,1.6089420940697192,1.284259765832126
1772526264226146800,4.414146728515625,-0.11535130327641964,1.498379194113612,1.165952389229089
1772526264236130000,4.424130126953125,0.18892799614071845,1.4032126007318495,1.0679922926712782
1772526264246112000,4.434112060546875,0.3626508243650198,1.2952180899590253,1.0520371101051569
1772526264256095000,4.444094970703125,0.3975602251827717,1.1594260562002658,1.0090393876388668
1772526264266078000,4.454077880859375,0.43825814627408977,1.0820511400967836,0.908266864008829
1772526264276060200,4.46406005859375,0.503150597423315,1.0332798026651144,0.8224604388423263
1772526264286043000,4.47404296875,0.5406242957711219,0.9168559017211199,0.8052832402005791
1772526264296026000,4.484026123046875,0.46177229285240173,0.6901905878603458,0.8220946742698549
1772526264306008000,4.494008056640625,0.31793548432588575,0.39796646789610385,0.8093480784866959
1772526264315991000,4.503990966796875,0.16314356654286383,0.11963292611837387,0.7795338819161057
1772526264325974000,4.51397412109375,-0.025645897909998893,-0.11188333490490912,0.7319165368251502
1772526264335956200,4.523956298828125,-0.19123744212687013,-0.2734697351336479,0.6450042693085968
1772526264345939000,4.53393896484375,-0.3122948480904102,-0.3791010239064693,0.5532112440131605
1772526264355922000,4.543921875,-0.3893190510600805,-0.4924602765828371,0.474698117659986
1772526264365904100,4.553904052734375,-0.41152503764927384,-0.6657990739256143,0.42925161380209026
1772526264375887000,4.56388720703125,-0.435986109688878,-0.9077455435484647,0.42730610575750466
1772526264385870000,4.5738701171875,-0.3904793270111084,-1.0616618475407362,0.3536801669239998
1772526264395852000,4.58385205078125,-0.2659364170193672,-1.0298907447487116,0.15464483746252952
1772526264405835300,4.593835205078125,-0.24921675288677214,-0.9985492655456065,-0.01572794968150556
1772526264415817000,4.60381689453125,-0.5255348631888628,-1.0032073204845189,-0.021310937445610762
1772526264425800200,4.61380029296875,-1.0226058484375475,-0.7832254299104213,-0.010875906540453433
1772526264435783200,4.623783203125,-1.6832850951313971,-0.2425344986438751,-0.1355956344038248
1772526264445765000,4.63376513671875,-2.326811546972394,0.478607107797265,-0.28186149670816957
1772526264455748000,4.643748046875,-2.777040117025375,1.207305997750163,-0.19868783119805156
1772526264465731000,4.65373095703125,-2.9399218177616593,1.9774603491634128,0.02692410115227103
1772526264475713000,4.663713134765625,-2.7734114051342007,2.6997067019760608,0.2119778131429106
1772526264485696000,4.673696044921875,-2.3257044625133276,3.122993489089608,0.4757883240494877
1772526264495679200,4.68367919921875,-1.6525959423571823,3.2002474091619253,0.8892601118523626
1772526264505661000,4.693660888671875,-0.8908136979699134,3.0869886942505835,1.2854974909335375
1772526264515644200,4.70364404296875,-0.14136369641125202,2.9371652125298975,1.6615186690032482
1772526264525627100,4.713627197265625,0.4705214164972305,2.7574218088418245,2.0494465579658745
1772526264535609000,4.723609130859375,0.9787404032260179,2.5356419289350507,2.406565759427845
1772526264545592000,4.733592041015625,1.3791349750518798,2.3394039020419117,2.7094179486513137
1772526264555574000,4.743573974609375,1.6454355492085218,2.220893842473626,2.9645997474223376
1772526264565557000,4.753556884765625,1.8251403744518755,2.219448319840431,3.1480642174601554
1772526264575540000,4.7635400390625,1.8730746765375137,2.293335978350043,3.1807825379744172
1772526264585522000,4.77352197265625,1.6997826409459114,2.3480752842754122,3.00126037582159
1772526264595505000,4.7835048828125,1.343514795616269,2.4592723904818294,2.5853116765111683
1772526264605488000,4.793488037109375,0.9363502912640571,2.581953598254919,2.090530555765331
1772526264615470300,4.80347021484375,0.5610322930276394,2.567652101179957,1.691861638688296
1772526264625453600,4.81345361328125,0.2214648226082325,2.4882716904729603,1.386584268144518
1772526264635436300,4.823436279296875,-0.07765081043541432,2.42898305068016,1.0711867778636515
1772526264645418500,4.83341845703125,-0.3198334269016981,2.4456226353138684,0.8031723855264484
1772526264655401500,4.8434013671875,-0.49040100596547126,2.462595397424698,0.630178017707169
1772526264665384400,4.853384521484375,-0.5814946508198976,2.4142729728043077,0.5648135651320219
1772526264675366400,4.863366455078125,-0.6350584832251072,2.3011364229679105,0.5957109538294375
1772526264685349400,4.873349365234375,-0.671090750592947,2.122533421486616,0.6590399550542235
1772526264695331300,4.883331298828125,-0.7301531804144382,1.88033619197309,0.7251599021717906
1772526264705314300,4.893314208984375,-0.7522410935819148,1.6222838062018154,0.7930299078270793
1772526264715297500,4.903297607421875,-0.6830664350688457,1.4270359593898057,0.8700348215743899
1772526264725279200,4.913279296875,-0.6073544837415218,1.2670622550547121,0.964817968596518
1772526264735262500,4.923262451171875,-0.5266051227688789,1.1158785908967257,1.0825605509236453
1772526264745245400,4.933245361328125,-0.43350890592038627,0.9907961672008037,1.2130801972374319
1772526264755227400,4.943227294921875,-0.34653029516935346,0.9361761037409305,1.3450304608762262
1772526264765210400,4.95321044921875,-0.2623720025360584,0.9339718716949224,1.4697782457903026
1772526264775193300,4.963193359375,-0.17136077526807783,0.960296984040737,1.6110919655799865
1772526264785175300,4.97317529296875,-0.0907832637310028,0.9900561624884605,1.7736732220649718
1772526264795158300,4.983158203125,-0.031000702941417692,0.9739549225151538,1.9096558099597691
1772526264805141500,4.9931416015625,-0.007633271357417106,0.897246945887804,1.9493290641784666
1772526264815123200,5.003123291015625,-0.07495674904584884,0.6523375348061323,1.7476257576167582
1772526264825106400,5.0131064453125,-0.21362872215509413,0.1797504179507494,1.2762696438610552
1772526264835089400,5.02308935546875,-0.2867471498578787,-0.3521668397516012,0.7089964106172323
1772526264845071400,5.0330712890625,-0.18170915080308914,-0.740252549624443,0.2484536595597863
1772526264855054300,5.043054443359375,0.07668518027365208,-0.8727075479149818,-0.09481734155267477
1772526264865036500,5.05303662109375,0.27265374257564545,-0.8922399313807486,-0.3281774768769741
1772526264875019300,5.063019287109375,0.187574827966094,-1.0294014999270438,-0.3883955064743757
1772526264885002500,5.07300244140625,-0.27272973042130466,-1.2195213362008333,-0.24258126039505004
1772526264894984400,5.082984375,-0.9551596211522817,-1.2032675360143184,0.002264145539700985
1772526264904967400,5.092967529296875,-1.725874529057741,-0.8554887020885944,0.1907990507096052
1772526264914950400,5.102950439453125,-2.510396428519487,-0.3602238894790411,0.3045028790399432
1772526264924932400,5.112932373046875,-3.078134356665611,0.07074176169931888,0.3682210257127881
1772526264934915300,5.122915283203125,-3.3312510396003723,0.3278793707132339,0.4103258909925818
1772526264944898300,5.132898193359375,-3.319623145648837,0.34673195522129535,0.6070844346284866
1772526264954880500,5.142880615234375,-3.2631782048493623,0.12347031232416629,0.9955705419957637
1772526264964863200,5.15286328125,-3.2192841180652376,-0.1500911927461624,1.4969865707114338
1772526264974845400,5.162845458984375,-3.27994872238636,-0.28556232398748393,1.9754045856773852
1772526264984828400,5.172828369140625,-3.4792233404964206,-0.17693828313946722,2.2584277465760705
1772526264994811400,5.182811279296875,-3.7771436262756586,0.2533347095996141,2.22493347325325
1772526265004793300,5.19279345703125,-4.071082733464241,0.7944996881186962,2.008812934282422
1772526265014776600,5.202776611328125,-4.338046155443787,1.2514353545948862,1.8566236002132295
1772526265024759600,5.212759521484375,-4.490312354141474,1.6357599583685398,1.6911562668979168
1772526265034741500,5.222741455078125,-4.4291386312544345,1.995493141721189,1.504470496726036
1772526265044724500,5.232724365234375,-4.124173687660694,2.2983628666013476,1.306710959354043
1772526265054707500,5.24270751953125,-3.536553247436881,2.5421318754762408,1.1548092100545764
1772526265064689400,5.252689453125,-2.871408253505826,2.6423902390390634,1.1185822968974708
1772526265074672400,5.26267236328125,-2.2296002960205077,2.5828230745658276,1.1892775891065597
1772526265084655600,5.272655517578125,-1.598341789600253,2.424112522034347,1.3525021119311451
1772526265094637300,5.28263720703125,-1.036294182050228,2.2168515813454985,1.5208267343737185
1772526265104620500,5.29262060546875,-0.5982675064444541,2.0047952230736614,1.667873006466031
1772526265114602200,5.302602294921875,-0.3591489537239074,1.8386480908006428,1.7784987425252794
1772526265124585500,5.31258544921875,-0.3312450477540493,1.7363479922771452,1.8358116983309387
1772526265134568400,5.322568359375,-0.4757546409755945,1.7204992657601832,1.7669576500743627
1772526265144550400,5.33255029296875,-0.753594846278429,1.8006383858799933,1.5504212237790227
1772526265154533400,5.342533447265625,-1.0606582234561444,1.9124124151915312,1.2339938059285283
1772526265164516400,5.352516357421875,-1.3528379197567701,1.9931670368611811,0.9290776699125767
1772526265174498300,5.362498291015625,-1.635345532348752,2.005698601654172,0.7012409741848706
1772526265184481300,5.372481201171875,-1.8570009090930222,2.0325956686690447,0.5296241783291101
1772526265194464500,5.382464599609375,-1.9057909512251614,2.126455855627358,0.4139554796665907
1772526265204446200,5.3924462890625,-1.804396861630678,2.2766531390964984,0.3875006034612655
1772526265214429400,5.402429443359375,-1.6194471214711665,2.3819570956110954,0.4497057152226567
1772526265224411400,5.412411376953125,-1.3872627519279717,2.3591239170342684,0.600485182493925
1772526265234394400,5.422394287109375,-1.1262065081655979,2.255709719789028,0.751589936196804
1772526265244377300,5.43237744140625,-0.8348375437259674,2.1401938736006616,0.8113929552525282
1772526265254359600,5.442359619140625,-0.5504758276998997,2.007044463305175,0.7842685092225671
1772526265264342300,5.45234228515625,-0.2940413985192776,1.8746663296431303,0.7401373988121748
1772526265274325200,5.4623251953125,-0.07723053919672966,1.7260215363129972,0.6832745248615741
1772526265284307500,5.472307373046875,0.05199672921895981,1.5419059088900684,0.6134793963626026
1772526265294290400,5.48229052734375,0.12119769121706485,1.3280784492924809,0.5102750424757599
1772526265304273400,5.4922734375,0.1729746402055025,1.0921557700037956,0.3300833104982972
1772526265314255400,5.50225537109375,0.187819158115983,0.8606967921257018,0.11594546977728605
1772526265324238300,5.51223828125,0.050612581384181975,0.6823463041007518,-0.15493746373355388
1772526265334221300,5.52222119140625,-0.17944295943677424,0.5668360108703374,-0.43919484260231256
1772526265344203500,5.53220361328125,-0.37036359069943425,0.49975510976612564,-0.667191843458265
1772526265354186200,5.542186279296875,-0.5586895292937756,0.4400225255981087,-0.8628894798643887
1772526265364168400,5.55216845703125,-0.798850869065523,0.3367486136063933,-0.9813768892094492
1772526265374151400,5.5621513671875,-1.0951584589511156,0.2772299644500017,-0.9949392583549022
1772526265384134700,5.572134765625,-1.4302549214363098,0.30541853258013724,-0.9820480664692819
1772526265394116400,5.582116455078125,-1.5933879665851591,0.4252452277049422,-0.959351519884169
1772526265404099600,5.592099609375,-1.626264400270581,0.5873176578849554,-0.9465507827609777
1772526265414082600,5.60208251953125,-1.5880559579074383,0.699073274756968,-0.9319374432578682
1772526265424064500,5.612064453125,-1.4397224224835634,0.7391492645576596,-0.8872878619313239
1772526265434047500,5.622047607421875,-1.248492579141259,0.7439686475381254,-0.8247079255081713
1772526265444030500,5.632030517578125,-1.0885299807220696,0.7231731122687458,-0.8004300280157476
1772526265454012400,5.642012451171875,-0.9493670092254877,0.6810892897769808,-0.7716296846628189
1772526265463995400,5.651995361328125,-0.7869061642497778,0.6047957391694188,-0.7237007163394242
1772526265473978600,5.661978515625,-0.6428519135802984,0.5167676193654537,-0.7080661440297961
1772526265483960300,5.671960205078125,-0.47609191010594365,0.4480512260138988,-0.7812688159499317
1772526265493943600,5.681943603515625,-0.2899573440760374,0.39829993763417004,-0.9033949471235275
1772526265503925200,5.69192529296875,-0.12398761419653892,0.3540603984132409,-1.0462218479551375
1772526265513908500,5.701908447265625,0.03848024504184722,0.260740894202888,-1.1669912307575345
1772526265523891500,5.711891357421875,0.27644787416160105,0.1912871264874935,-1.2714571290127932
1772526265533873400,5.721873291015625,0.5496732791453599,0.15943945132791995,-1.380580936076492
1772526265543856400,5.7318564453125,0.8244739706218243,0.09101385761648416,-1.5058163583770394
1772526265553839400,5.74183935546875,1.1870499761849642,0.07784808657318353,-1.571241308967769
1772526265563821300,5.7518212890625,1.5582336510956287,0.1328150637745857,-1.5769716693133116
1772526265573804300,5.76180419921875,1.8515788840442895,0.2028095142379403,-1.516768252763152
1772526265583787500,5.77178759765625,2.0298007772535085,0.2517921563327312,-1.3337323834009467
1772526265593769200,5.781769287109375,2.1045897685170174,0.3103472211539745,-1.1144822411675006
1772526265603752400,5.79175244140625,2.056194863182306,0.44988896283507346,-0.910466200684011
1772526265613734400,5.801734375,1.9837205786019563,0.6511895338147878,-0.7539758084200322
1772526265623716900,5.811716796875,1.8684668904811144,0.7620268667981028,-0.5352779663071036
1772526265633699800,5.821699951171875,1.6745996843725441,0.7563900299549102,-0.3029609833601862
1772526265643681800,5.831681884765625,1.4438684362471104,0.6802203979879617,-0.1498283770915121
1772526265653664800,5.841664794921875,1.2481693385362624,0.5979895662859082,-0.07890658265016973
1772526265663648000,5.85164794921875,1.0648878238499164,0.5406108517676591,-0.08976027735881507
1772526265673629700,5.861629638671875,0.9287024068593979,0.49408057126104826,-0.14456030049547552
1772526265683613000,5.871613037109375,0.8461796064734458,0.436043977355957,-0.2279963432688266
1772526265693596000,5.881595947265625,0.8039157512396573,0.3484481114894151,-0.2612375916786492
1772526265703577900,5.891577880859375,0.786404059946537,0.2263330131664872,-0.2748315980713814
1772526265713560800,5.901560791015625,0.7219839024841785,0.09001607875078917,-0.3157976685795933
1772526265723543000,5.91154296875,0.5275134697854519,-0.018768997877836226,-0.4180136690162122
1772526265733526000,5.921526123046875,0.23209201508462426,-0.06734919665157794,-0.5928316720660776
1772526265743508700,5.9315087890625,-0.0727887573570013,-0.05756897639334201,-0.8047693723943083
1772526265753491000,5.941490966796875,-0.32634090909957886,-0.0357581266015768,-0.9792632580563425
1772526265763474000,5.951473876953125,-0.49056174948513503,-0.02736614583134651,-1.0709127832278609
1772526265773457000,5.961456787109375,-0.5738555342435836,-0.012734393888711929,-1.1080429288350044
1772526265783438800,5.97143896484375,-0.5698872151345015,-0.04979512752145528,-1.1285593549020587
1772526265793422000,5.981422119140625,-0.5226882415860891,-0.1313359311327338,-1.1368320201415567
1772526265803404800,5.99140478515625,-0.4391296684116125,-0.24968787752985952,-1.175522985324636
1772526265813387000,6.001386962890625,-0.294641117978096,-0.3624158465653658,-1.2283005627229808
1772526265823370000,6.011369873046875,-0.10119009145498276,-0.4435974614754319,-1.2890319486699997
1772526265833352000,6.02135205078125,0.11883563826084136,-0.5331552750647067,-1.2753960758969187
1772526265843335000,6.0313349609375,0.32713878147900105,-0.6479264403656124,-1.1770363855622707
1772526265853318000,6.04131787109375,0.476952910849452,-0.7572320337370038,-1.0382181358501315
1772526265863299800,6.0512998046875,0.5468845252096652,-0.8410130174905062,-0.8949646801695227
1772526265873282800,6.06128271484375,0.5548521430879831,-0.8936851617529987,-0.7810976241014898
1772526265883266000,6.07126611328125,0.4956769005417824,-0.9218737298831343,-0.7001395888142288
1772526265893247700,6.081247802734375,0.4118634758234024,-0.9227256705373525,-0.6436969130370765
1772526265903231000,6.09123095703125,0.3918278190106153,-0.894240457548201,-0.5935702520063146
1772526265913214000,6.1012138671875,0.4113654631733894,-0.8840107399567961,-0.5076409676451236
1772526265923196000,6.11119580078125,0.44976329062879083,-0.9234232974126935,-0.3937757016753778
1772526265933179000,6.121178955078125,0.4889736035108566,-1.0294675509005784,-0.24858749680621547
1772526265943160800,6.131160888671875,0.4052110321968794,-1.179614565487206,-0.09768304231525399
1772526265953143800,6.141143798828125,0.23245383413434026,-1.301902682289481,0.04209846293847076
1772526265963126800,6.151126708984375,0.027862989437580105,-1.3164265899434684,0.1413146879040636
1772526265973108700,6.161108642578125,-0.1549327875584364,-1.2579580343618988,0.21946650666417553
1772526265983091700,6.171091796875,-0.29017712430655956,-1.2135694420590997,0.37756270842328665
1772526265993075000,6.181074951171875,-0.3711415893346071,-1.2023267480328679,0.5521019675970077
1772526266003056600,6.191056640625,-0.4962403796434402,-1.2129594934672117,0.7670334429137409
1772526266013039900,6.201039794921875,-0.7213461891025305,-1.2243199686542152,0.9612740123793482
1772526266023022800,6.21102294921875,-1.047622216272354,-1.238910511803627,1.084678931317106
1772526266033004800,6.2210048828125,-1.4813228453725575,-1.3036845972701907,1.185399578629434
1772526266042987800,6.23098779296875,-1.7838181839823721,-1.4240283020064235,1.2618605947583914
1772526266052970000,6.240969970703125,-1.8369839569807052,-1.4122203753128646,1.1985845658298582
1772526266062952700,6.25095263671875,-1.6903677468687295,-1.305425595718622,1.0909197254028171
1772526266072936000,6.26093603515625,-1.466670635163784,-1.2032622753173112,1.0792938772778957
1772526266082918000,6.27091796875,-1.3206167351096867,-1.219913258127868,1.1992511399798094
1772526266092900900,6.28090087890625,-1.3536281933516263,-1.280852295476198,1.3216862640373408
1772526266102883800,6.2908837890625,-1.4651117152839899,-1.1982108371466398,1.2864683817923068
1772526266112866000,6.300865966796875,-1.6406787100702522,-1.013201768015325,1.1597134948395191
1772526266122849000,6.31084912109375,-1.8593541942209004,-0.7696043163150549,0.9899716990754007
1772526266132831000,6.3208310546875,-2.0464701725035903,-0.5470812168255448,0.8168024130806326
1772526266142814000,6.33081396484375,-2.2234084556430576,-0.34735768590420485,0.6493149721145629
1772526266152797000,6.340796875,-2.3218407728224992,-0.1902332335203886,0.44896980216354127
1772526266162779000,6.35077880859375,-2.342779515954852,-0.06436784275323153,0.2140127530366182
1772526266172761900,6.360761962890625,-2.342419450470805,0.043431145447492596,-0.052382659796625375
1772526266182745000,6.3707451171875,-2.302725153464079,0.17688889103978872,-0.31321532393619417
1772526266192726800,6.380726806640625,-2.1382886245012283,0.3653802493289113,-0.5095820917755365
1772526266202710000,6.3907099609375,-1.9104256252884864,0.5920335804909468,-0.6331099795058369
1772526266212693000,6.40069287109375,-1.6156261018782854,0.8069771846368908,-0.6527205427743494
1772526266222675000,6.410675048828125,-1.1431991440206766,1.010663481709361,-0.49361850670725105
1772526266232658000,6.420657958984375,-0.5187117391705512,1.1335910654589534,-0.24330986693054435
1772526266242640000,6.430639892578125,0.15739654732346534,1.1688844971582293,-0.05904504029527306
1772526266252622800,6.440622802734375,0.7862526687771082,1.061714454510808,0.10794665304310619
1772526266262605800,6.450605712890625,1.3319775025576353,0.8841536555588245,0.21010573566071689
1772526266272587800,6.460587890625,1.737521712231636,0.6639008390888571,0.2815167018584907
1772526266282570800,6.47057080078125,2.032002671211958,0.35006723712384696,0.3058519555613398
1772526266292554000,6.480553955078125,2.1479659689068793,-0.015971476113796235,0.26605927621405573
1772526266302535700,6.49053564453125,2.1101216836810113,-0.39342181020379063,0.17628533565606921
1772526266312519000,6.500518798828125,1.9090917463362216,-0.6852820652917027,0.05787530239615589
1772526266322502000,6.510501953125,1.4837462731271982,-0.8688833134517073,-0.11412057417137547
1772526266332483800,6.52048388671875,0.8270674942463636,-0.9635314359173178,-0.41287382190972566
1772526266342466800,6.530466796875,0.07896013946831226,-0.9621110477253794,-0.7578734734456986
1772526266352449000,6.540448974609375,-0.5783411552250385,-0.8800523577198386,-1.0031154774826019
1772526266362431700,6.550431640625,-1.0766945814996958,-0.6307558175951242,-1.2139235161937771
1772526266372414700,6.560414794921875,-1.4318945053368806,-0.26464520816504955,-1.4065927446894346
1772526266382397000,6.57039697265625,-1.629752242386341,0.09520283373892306,-1.5091409727551042
1772526266392379600,6.580379638671875,-1.664271767103672,0.4255564856112003,-1.4836375520557163
1772526266402363000,6.59036279296875,-1.5045885701477526,0.7587438996046781,-1.395576406764984
1772526266412344800,6.6003447265625,-1.1321265458643435,1.0728647940784692,-1.2413215184681117
1772526266422327800,6.610327880859375,-0.6208867500096559,1.2564400310143828,-0.9892242417089641
1772526266432309800,6.620309814453125,-0.016360183170437814,1.3397986977025866,-0.7368078890632838
1772526266442293000,6.63029296875,0.6254495278805494,1.3936124132156371,-0.5876134259611367
1772526266452276000,6.64027587890625,1.2507219456285237,1.4311623916700482,-0.5270752975638956
1772526266462258000,6.6502578125,1.7877590305626392,1.4389792029008268,-0.5032989198528229
1772526266472241000,6.660240966796875,2.2530618356287477,1.424637081554532,-0.49542979391291736
1772526266482223900,6.670223876953125,2.6492630474179983,1.3827595952898264,-0.535162011777237
1772526266492205800,6.680205810546875,2.939509145307541,1.3118620585069058,-0.5960745264448225
1772526266502188800,6.690188720703125,3.1698475947231053,1.2258490779176354,-0.6601422172076999
1772526266512172000,6.700172119140625,3.302573226648569,1.1339400250270961,-0.699586192715168
1772526266522153700,6.71015380859375,3.328677389720082,1.0387538501620293,-0.7492318287633359
1772526266532137000,6.720136962890625,3.2694998090863225,0.9447682832583785,-0.7679393787775188
1772526266542119000,6.730118896484375,3.0601077015876768,0.8271352987855672,-0.7348836430024355
1772526266552102000,6.740101806640625,2.7446219485014676,0.7020651500493288,-0.6811398509204387
1772526266562084900,6.7500849609375,2.2492209422916174,0.6036471536561846,-0.6454133615661413
1772526266572066800,6.76006689453125,1.6308727708488702,0.6050944298550486,-0.6906894042279571
1772526266582049800,6.7700498046875,1.0238093790084124,0.7071162959590553,-0.8462471918169409
1772526266592033000,6.780032958984375,0.4387491446614265,0.8171303298607469,-0.9885437851641327
1772526266602014700,6.7900146484375,-0.04582067093253135,0.9008923166528343,-1.0288677583765238
1772526266611998000,6.799998046875,-0.48070203424990177,0.939636473327875,-1.0227548284541814
1772526266621980700,6.809980712890625,-0.9219406576395034,0.8011053699940442,-0.8930423338048159
1772526266631963600,6.819963623046875,-1.1976502806544302,0.4613476376995444,-0.5979589519519358
1772526266641947000,6.82994677734375,-1.2322680050492285,0.15827128433138132,-0.380271967381984
1772526266651928600,6.839928466796875,-1.0913356857925653,-0.09095014473050832,-0.35045649216976016
1772526266661911800,6.849911865234375,-0.7716559881478547,-0.33619565589874983,-0.4574509590545669
1772526266671894800,6.859894775390625,-0.3904775734454393,-0.6216024970635772,-0.6201222684431821
1772526266681876700,6.869876708984375,-0.10929448745548724,-0.9730170571431517,-0.7133426231279969
1772526266691859700,6.879859619140625,-0.08227496310472487,-1.3438330677852033,-0.7148427985578775
1772526266701842700,6.8898427734375,-0.3626630993247032,-1.6712103341951965,-0.657027592318505
1772526266711824600,6.89982470703125,-0.8007716079950332,-1.7455267395108938,-0.6745161219317466
1772526266721807600,6.9098076171875,-1.3382576057404278,-1.5211708716362713,-0.7418909644812345
1772526266731789800,6.919789794921875,-1.898031423139572,-1.1841489940464496,-0.7180862374585122
1772526266741772500,6.9297724609375,-2.450297056865692,-0.7876613665312528,-0.5496581546414643
1772526266751755800,6.939755859375,-2.8774112933129072,-0.3373506711527705,-0.3138845284346491
1772526266761737700,6.94973779296875,-3.1619875288724897,0.049776422820985315,-0.0042308790354058145
1772526266771720700,6.959720703125,-3.246813345503807,0.30786446442753074,0.31872619631215926
1772526266781703700,6.96970361328125,-3.0399621546596287,0.42752457081377504,0.6239724410653114
1772526266791686000,6.979685791015625,-2.5383342367589474,0.4450625655919313,0.8316720654323697
1772526266801668600,6.989668701171875,-1.8139771754026413,0.3669882690474391,0.8789783718127757
1772526266811650800,6.99965087890625,-1.0745312659859656,0.2765177245274186,0.8426140960115939
1772526266821633800,7.0096337890625,-0.38052141209840773,0.19471534737050533,0.7744710455685854
1772526266831616800,7.01961669921875,0.15682020874023436,0.06633183630257844,0.7330800276465713
1772526266841598700,7.0295986328125,0.5985878244400024,-0.09157616767436265,0.6716388859950005
1772526266851581700,7.039581787109375,0.9619517655104398,-0.21252982100248335,0.5633368436429649
1772526266861564700,7.049564697265625,1.2246236277759075,-0.27808424319177866,0.4137945534838363
1772526266871546600,7.059546630859375,1.344497376912832,-0.343547187705338,0.1788996280740015
1772526266881529900,7.06952978515625,1.3347107269138097,-0.3844692729413509,-0.12090400550011544
1772526266891511600,7.079511474609375,1.2833096255004406,-0.2892129554495215,-0.4180881590245291
1772526266901494800,7.089494873046875,1.2147417007088661,-0.07772533697634935,-0.6947988853733986
1772526266911477800,7.099477783203125,1.2073778939425945,0.20486732355058193,-0.8620393658410758
1772526266921459700,7.109459716796875,1.2917594739377498,0.4367991796374321,-0.8383338614091277
1772526266931442700,7.119442626953125,1.4550748899161814,0.6336170522451401,-0.6415203727155924
1772526266941426000,7.129426025390625,1.6487147170096634,0.7534229968428612,-0.36382322914525866
1772526266951407600,7.13940771484375,1.856525692796707,0.8480784258320927,-0.08332573253298178
1772526266961390800,7.149390869140625,2.060096546795964,0.9664233579665422,0.16992153624519704
1772526266971373800,7.159373779296875,2.2647207092404362,1.0670900100693106,0.44572720351312306
1772526266981355800,7.169355712890625,2.435220483765006,1.0906588094443082,0.7418803700219839
1772526266991338800,7.1793388671875,2.555259068074822,1.0064256980091333,1.035400375015661
1772526267001321000,7.189321044921875,2.6049369989573954,0.8927721385613083,1.2831069425351918
1772526267011303700,7.1993037109375,2.5785189476311206,0.7782043868780135,1.4548111244134605
1772526267021286700,7.20928662109375,2.4439269373118875,0.6292746391266584,1.6190291883200405
1772526267031268900,7.219268798828125,2.2510224387556312,0.44161651679128405,1.773677459848672
1772526267041251600,7.22925146484375,1.9952368288725613,0.27701778300404545,1.9282168641753494
1772526267051234800,7.23923486328125,1.6926462131947277,0.13989333159774542,2.0065125483855604
1772526267061216800,7.249216796875,1.3439917654782534,0.01130348430275917,2.023147164583206
1772526267071199700,7.25919970703125,0.9099667267292737,-0.09893851313591003,1.9959139974817632
1772526267081181700,7.269181640625,0.4997223765403032,-0.1926461398810148,1.8912040613375602
1772526267091165000,7.2791650390625,0.20401684420108793,-0.25183190382122994,1.7562090231753884
1772526267101147600,7.289147705078125,-0.02198737540245056,-0.32327801439762116,1.5870736688718199
1772526267111129900,7.2991298828125,-0.19802198770046234,-0.43382279417514796,1.4163361400686203
1772526267121112800,7.30911279296875,-0.3384697383105755,-0.4761369182914495,1.2678408382117747
1772526267131095600,7.319095458984375,-0.4987357035905122,-0.4479568257287144,1.1353670621555298
1772526267141077800,7.329077880859375,-0.785152598580718,-0.42587651134580373,0.9917729763437062
1772526267151060700,7.339060791015625,-1.2265122180014847,-0.46176703215539455,0.8892238714952021
1772526267161042700,7.349042724609375,-1.7479647803127765,-0.5053571675568819,0.7732835893496871
1772526267171025700,7.359025634765625,-2.250419212165475,-0.5290367338299751,0.6919594972290098
1772526267181009000,7.3690087890625,-2.6125083109945058,-0.6616913463458418,0.7868975425519049
1772526267190990600,7.378990478515625,-2.607496620312333,-0.8529778883114456,0.9401221379529684
1772526267200973800,7.388973876953125,-2.250364851629734,-0.8497808458358049,0.8595758252717554
1772526267210956800,7.398956787109375,-1.8995184468269346,-0.8046233149871229,0.678398589388281
1772526267220938800,7.408938720703125,-1.6685317626357077,-0.8958353255242109,0.6237346867866814
1772526267230921700,7.418921630859375,-1.4249737661629915,-0.915341113243997,0.6069362583294511
1772526267240904000,7.428904052734375,-1.1000041454166174,-0.6816454623550177,0.3784135530989617
1772526267250886700,7.43888671875,-0.7637783866405486,-0.26283874326497314,0.023409772888384757
1772526267260869600,7.44886962890625,-0.4386585437685251,0.18823592222332952,-0.2563211049992591
1772526267270851800,7.458851806640625,-0.09661913027763366,0.6451712964385747,-0.3534641860857606
1772526267280834600,7.46883447265625,0.28435294819772244,1.0839517130210996,-0.3574981543095782
1772526267290817800,7.47881787109375,0.7007885542422533,1.4262851410225033,-0.3481007593564689
1772526267300799700,7.4887998046875,1.18797118268311,1.733522705723345,-0.39565504914857447
1772526267310782700,7.49878271484375,1.6430045226693153,2.0607596868798135,-0.5239082483677193
1772526267320764700,7.5087646484375,1.874856883779168,2.2654273962050677,-0.6081515158707276
1772526267330748000,7.518747802734375,1.7949124094486235,2.265765834379196,-0.45452166413702066
1772526267340730600,7.528730712890625,1.4086667744845152,2.069171833655238,-0.11903349892050027
1772526267350712800,7.538712890625,0.8900859682172536,1.8356652755975722,0.24606537618376312
1772526267360695800,7.54869580078125,0.4096189117670059,1.6893053783342242,0.48301944434680044
1772526267370678800,7.5586787109375,0.04019873939752579,1.5945809757620095,0.6090064156670123
1772526267380660700,7.56866064453125,-0.2070335616737604,1.457086229738593,0.6931091787207871
1772526267390643700,7.578643798828125,-0.3431394836872816,1.2096741881862283,0.7384266493715346
1772526267400625700,7.588625732421875,-0.47069443497657776,0.8309335220247507,0.66362735590972
1772526267410609000,7.59860888671875,-0.6182645848125219,0.3739978555485606,0.44472770761437713
1772526267420591900,7.608591796875,-0.8237959252297877,-0.08880816426575183,0.07880502197183668
1772526267430573800,7.61857373046875,-1.0745166529387236,-0.41468993142098187,-0.4177562601890415
1772526267440556800,7.628556884765625,-1.438164087125659,-0.5275637386679649,-0.9338907692827284
1772526267450539800,7.638539794921875,-1.9554770654141902,-0.5499208241656423,-1.3735183042138814
1772526267460521700,7.648521728515625,-2.474312723225355,-0.4299377694353461,-1.7031432034201919
1772526267470504700,7.658504638671875,-2.91819397007823,-0.11695815395116806,-1.923049982931465
1772526267480486700,7.668486572265625,-3.16640709888041,0.2080257875815034,-1.9725012654513119
1772526267490469600,7.6784697265625,-3.1665906387537714,0.5103884397223591,-1.8859847192540764
1772526267500452900,7.688452880859375,-2.9120506450176236,0.7742381135955453,-1.7065806305229663
1772526267510434800,7.698434814453125,-2.4356167896062133,0.9632055649638175,-1.4935074964240191
1772526267520417800,7.708417724609375,-1.7579314630538223,1.0164829816430807,-1.2279726459428668
1772526267530400800,7.71840087890625,-0.98179511462152,0.9329612333476542,-0.9350479764938354
1772526267540383000,7.728383056640625,-0.20667408071160315,0.7757628389447927,-0.705270302766189
1772526267550365700,7.73836572265625,0.4776227729350328,0.6408011185303331,-0.5593116797801106
1772526267560348000,7.748347900390625,1.0358639739394186,0.5263406266137958,-0.5067219531040639
1772526267570331000,7.758330810546875,1.4340782791167497,0.39164223331063985,-0.49675483197160064
1772526267580313600,7.768313720703125,1.7046330035865307,0.26517916891127824,-0.5522320237174629
1772526267590295800,7.7782958984375,1.8371973074704409,0.1226703941181302,-0.5903702138559892
1772526267600278800,7.78827880859375,1.8736732269525527,0.03231324684470892,-0.6192546187631786
1772526267610261800,7.79826171875,1.8423644809752702,-0.0040159576430916786,-0.653622167789191
1772526267620243200,7.8082431640625,1.7438310415089129,0.0013347557350993156,-0.7003853802688419
1772526267630226400,7.818226318359375,1.6238970866173505,0.03772182788997888,-0.7594923798844218
1772526267640208400,7.82820849609375,1.5009756403476,0.05912789627313614,-0.773848822017014
1772526267650191400,7.83819140625,1.3263491412818431,0.07021043130159378,-0.7580681923002004
1772526267660174300,7.84817431640625,1.087990467017889,0.06358136855065823,-0.6845144419200718
1772526267670156500,7.858156494140625,0.8291489766955376,0.04320084382295608,-0.6148210202299058
1772526267680139300,7.86813916015625,0.5779436803400516,0.06954524539113044,-0.5057863892870024
1772526267690122200,7.878122314453125,0.35759821715056894,0.09716770407110452,-0.42241698200907557
1772526267700104400,7.8881044921875,0.1711146915525198,0.10575549967437982,-0.39206371012572194
1772526267710087400,7.89808740234375,0.05956219603717327,0.08207213400900364,-0.42164084653742606
1772526267720069400,7.9080693359375,-0.046854105633497234,0.03374152608215809,-0.5264296931367367
1772526267730052400,7.91805224609375,-0.16676526417136192,-0.06651303808838128,-0.6060170976579189
1772526267740035300,7.928035400390625,-0.2803758612602949,-0.3833692027449608,-0.5119924043202773
1772526267750017300,7.938017333984375,-0.20672142698466778,-0.8767430870413779,-0.2666332036444917
1772526267760000500,7.94800048828125,-0.033040099814534186,-1.2286708573400973,-0.19900654175840318
1772526267769983200,7.957983154296875,0.15534312192499636,-1.3793494945853948,-0.408643344733119
1772526267779965400,7.96796533203125,0.3782984753519296,-1.35993430775851,-0.746745564905554
1772526267789948400,7.977948486328125,0.5120218861430883,-1.3712144111856817,-1.0337193631261588
1772526267799930400,7.987930419921875,0.5454506930142641,-1.4112024304419755,-1.1834819084398447
1772526267809913300,7.997913330078125,0.3996627504199743,-1.3096210015818477,-1.2034523910619317
1772526267819896600,8.007896484375,-0.08476268826723098,-0.9510092234745621,-1.0850886080965398
1772526267829878300,8.017878173828125,-0.7019611051529645,-0.4113391596883535,-0.8996673049025237
1772526267839861500,8.027861572265625,-1.3625468283444642,0.1629483362317085,-0.5555218225104734
1772526267849844500,8.037844482421875,-2.0194985789477826,0.7621987162336706,-0.1860995677817613
1772526267859826400,8.047826416015624,-2.5238071142345664,1.3246946520730851,0.21776914642807094
1772526267869809400,8.057809326171874,-2.8328590348809954,1.6879156775414943,0.5999233473600819
1772526267879791400,8.067791259765626,-2.9345149902820586,1.8037968499109147,0.9362855554647743
1772526267889774300,8.0777744140625,-2.891286673930287,1.7084949397116898,1.2595195845901965
1772526267899757300,8.08775732421875,-2.775271938309073,1.3937588359490036,1.553816711436212
1772526267909739300,8.0977392578125,-2.4862071591585875,1.108273961111903,1.651055288786441
1772526267919722200,8.10772216796875,-1.9439444485306738,0.9834650936603545,1.5182399327509104
1772526267929705500,8.11770556640625,-1.2384960857838392,0.9665539986088871,1.2810932646252213
1772526267939687400,8.1276875,-0.5391945552289485,0.8480956692278384,1.132273260858655
1772526267949670400,8.13767041015625,0.09191022193431854,0.5721022608354688,1.0977102623257786
1772526267959652400,8.14765234375,0.6024111821204423,0.2593096923559904,1.0713755784340202
1772526267969635600,8.157635498046876,1.0208084436267615,-0.021039865419268607,0.9941096756629645
1772526267979618300,8.167618408203126,1.3290098849236964,-0.20827742425501344,0.8109207346308976
1772526267989600500,8.1776005859375,1.444362941765785,-0.35156039829105135,0.5174926457043737
1772526267999583500,8.18758349609375,1.3108750932961701,-0.4355436266183853,0.19077227230053395
1772526268009566200,8.197566162109375,1.0405033241778612,-0.3675622695431113,-0.10090606861552223
1772526268019548400,8.20754833984375,0.6788309894561767,-0.17082710678279397,-0.34786289547998456
1772526268029531400,8.217531494140625,0.26143384490311145,0.15945932507216928,-0.5643783885851502
1772526268039513300,8.227513427734374,-0.12558102086782455,0.5575616943076253,-0.721014034538716
1772526268049496300,8.237496337890626,-0.42277825306952,0.9303943054690956,-0.7018474887106567
1772526268059479600,8.2474794921875,-0.5867483335644006,1.2300766324847936,-0.5254487192753702
1772526268069461200,8.257461181640625,-0.5956751518636941,1.4750997330740094,-0.27444953995123506
1772526268079444500,8.267444580078125,-0.42304245696365833,1.6276140613138674,0.011951646013185381
1772526268089427500,8.277427490234375,-0.0805091224759817,1.6827356445550918,0.30292065134979784
1772526268099409400,8.287409423828125,0.3808522514879703,1.6253794341295957,0.5677562675204127
1772526268109392400,8.297392333984375,0.905063172596693,1.4848574492394924,0.772351276935637
1772526268119374300,8.307374267578124,1.3948404937058687,1.298795948445797,0.8991740414928644
1772526268129357300,8.317357421875,1.8018588675856588,1.056751571406424,1.007471553800255
1772526268139340300,8.32734033203125,2.1316583927065134,0.8217161963462829,1.0675352696187794
1772526268149322200,8.337322265625,2.382708790761232,0.6140981127828359,1.0899247960813343
1772526268159305200,8.34730517578125,2.556225867280364,0.4113777381330728,1.119059924346581
1772526268169287400,8.357287353515625,2.6356904491394757,0.1744435437142849,1.1881318531375378
1772526268179270100,8.367270263671875,2.6805852373987435,-0.07606500254869461,1.2337170348137616
1772526268189253400,8.37725341796875,2.6343641689717767,-0.31611528316140175,1.244489334849268
1772526268199235300,8.3872353515625,2.4660423230081796,-0.4690627421215176,1.1871036060683429
1772526268209218300,8.39721826171875,2.168086381393671,-0.5012684369385242,1.068621968876943
1772526268219201300,8.407201171875,1.6812421911269426,-0.44479543908834457,0.9138174838732928
1772526268229183500,8.41718359375,1.1276929473310708,-0.24703385588973759,0.7230137569885701
1772526268239166200,8.427166259765626,0.6604770021200179,0.037032384321093556,0.5549201668228954
1772526268249148400,8.4371484375,0.2935392942160368,0.3718976683989167,0.3221450648449361
1772526268259131400,8.44713134765625,-0.01868248863816261,0.6720803461521864,0.05588643013387918
1772526268269114400,8.4571142578125,-0.38868016863465304,0.7848220514521003,-0.031247005852684376
1772526268279096300,8.467096435546875,-0.718086895045638,0.684738752195239,0.17650157222263513
1772526268289079600,8.47707958984375,-0.9269213686615229,0.3729027537882328,0.670650605610013
1772526268299062500,8.4870625,-0.962115431639552,-0.14432809917479753,1.2934582406796513
1772526268309044500,8.49704443359375,-0.7359633279979229,-0.676478581111133,1.7264114124134182
1772526268319027500,8.50702734375,-0.4243710752189159,-1.013916053764522,1.786024754115939
1772526268329009400,8.517009521484376,-0.2217208431959152,-1.237751989418268,1.614092754831165
1772526268338992400,8.526992431640625,-0.18377718924880027,-1.4859811925724147,1.2866665347129105
1772526268348975400,8.536975341796875,-0.337829102319479,-1.597916549925506,0.7666227432209998
1772526268358957300,8.546957275390625,-0.6182832895129918,-1.4438757427707314,0.21412045119479298
1772526268368940300,8.556940185546875,-0.9585983634293079,-1.1873360996499658,-0.11618132435977459
1772526268378923500,8.566923583984375,-1.3136854745417832,-0.8869263351425528,-0.14595876911655067
1772526268388905200,8.5769052734375,-1.5599591597139835,-0.45029958946257825,0.030256314314901826
1772526268398888400,8.586888427734374,-1.605705011844635,0.053448389331996436,0.27876966817267235
1772526268408870400,8.596870361328126,-1.5472019694715737,0.5250917955964803,0.5512327104818076
1772526268418853400,8.606853271484376,-1.4855045149713755,0.872183231779933,0.8357172491699457
1772526268428836400,8.61683642578125,-1.3975754716277122,1.067220066189766,1.1421214317865669
1772526268438818600,8.626818603515625,-1.1724614788621663,1.1891457794204354,1.3965247935310006
1772526268448801300,8.63680126953125,-0.7923322809517384,1.2630310998424887,1.5746008485287426
1772526268458783500,8.646783447265625,-0.18585107291340827,1.262163669358194,1.6411029268316923
1772526268468766500,8.656766357421875,0.6521078177034855,1.1454518913835285,1.6590324051454661
1772526268478749200,8.666749267578124,1.5122136581987142,0.8772828930065035,1.727890837316215
1772526268488731400,8.6767314453125,2.321674768605828,0.5887196336373687,1.7876009173914789
1772526268498714400,8.68671435546875,3.0158833599358794,0.38500411047041416,1.856570700982213
1772526268508697300,8.696697265625,3.4660172374427316,0.13594371718913317,2.0682687473356722
1772526268518679300,8.70667919921875,3.567503096973896,-0.17397972559481859,2.3290467586785555
1772526268528662500,8.71666259765625,3.4170050769925115,-0.42930034831464287,2.4976129347920417
1772526268538644200,8.726644287109375,3.0021511871814726,-0.5575833216175436,2.590211431251466
1772526268548627500,8.73662744140625,2.287413602563739,-0.4690378999412059,2.4806197144150732
1772526268558610400,8.7466103515625,1.4518617730885743,-0.2305927164375782,2.229235846622288
1772526268568592400,8.75659228515625,0.37880817843973635,0.01256751288920641,2.177342577777803
1772526268578575400,8.766575439453124,-1.058532317343354,0.2731663682729006,2.205371279171109
1772526268588558300,8.776558349609376,-2.473131989008188,0.650258390444517,1.923014765487611
1772526268598540300,8.786540283203125,-3.508573938143253,1.0026277670308947,1.5595181379482148
1772526268608523300,8.796523193359375,-4.072562742888927,1.3876269090652464,1.231181671117246
1772526268618505200,8.806505126953125,-4.167946778413653,1.819757220108807,0.930643604055047
1772526268628488200,8.81648828125,-3.95414796038866,2.0910066488444805,0.8159076561979949
1772526268638471400,8.826471435546875,-3.608590894165635,2.0924556786090136,0.9529549507148564
1772526268648453000,8.836453125,-3.28532047855258,1.839630672097206,1.0991213712327181
1772526268658436400,8.846436279296874,-2.875332148951292,1.542794382162392,1.1541833332411944
1772526268668418000,8.85641796875,-2.3060773865014315,1.367799342045188,1.1159116163834928
1772526268678401300,8.8664013671875,-1.639908894741535,1.2831179023206234,1.0142353488467633
1772526268688384300,8.87638427734375,-0.8446043199807405,1.2343676076769827,0.8964557955101132
1772526268698366200,8.8863662109375,-0.02358721181452274,1.1384805910661815,0.9025482671663164
1772526268708349200,8.89634912109375,0.653884179726243,0.9623059857755899,0.9944166957855224
1772526268718332400,8.90633251953125,1.1568325325757265,0.7670753823593258,1.1036137142159044
1772526268728314000,8.916314208984375,1.476850083872676,0.5820844334065913,1.1139411930933594
1772526268738297300,8.92629736328125,1.616070338514447,0.4646580774217844,1.0541967723570764
1772526268748279300,8.936279296875,1.5955127036541699,0.3417968369066715,0.9358964830819517
1772526268758262300,8.94626220703125,1.4303753329455853,0.21733371415287256,0.7897879302311688
1772526268768245200,8.956245361328126,1.1107125864356755,0.11934417230486868,0.6985381449669599
1772526268778227500,8.9662275390625,0.7115688914537429,0.06550415330678225,0.7011801839083432
1772526268788210200,8.976210205078125,0.3050456076145172,0.11551818427592515,0.7233763797558843
1772526268798192400,8.9861923828125,-0.1158843872398138,0.16426292596161365,0.6824578747164458
1772526268808175400,8.99617529296875,-0.6309498788625002,0.17342209171205758,0.6289086553584784
1772526268818158000,9.006157958984375,-1.0879834527552128,0.2082858998224139,0.45312553360350427
1772526268828140300,9.016140380859374,-1.405309865272045,0.13657207822054623,0.23009346167854963
1772526268838123300,9.026123291015624,-1.5670529173672199,-0.19826924045979977,0.18112959734946488
1772526268848106200,9.036106201171876,-1.5580045185148714,-0.5082040814206004,0.11604615367278456
1772526268858088200,9.046088134765625,-1.5512965453088283,-0.5950947216272354,-0.018297434843331576
1772526268868071400,9.056071533203125,-1.5519751752227544,-0.5879103630810976,-0.14937800297550857
1772526268878053000,9.06605322265625,-1.590465941658616,-0.42335663747936486,-0.15889533451385796
1772526268888036400,9.076036376953125,-1.6989356687277555,-0.11770049675107001,-0.2569794958427548
1772526268898019300,9.086019287109375,-1.8163824829787014,0.1873217299878597,-0.46424686627238987
1772526268908001300,9.096001220703124,-1.779099923288822,0.5064876328915358,-0.6023769875898957
1772526268917984300,9.105984375,-1.6268606125980614,0.7954825616762041,-0.6083394031256437
1772526268927967200,9.11596728515625,-1.353585523253679,0.972322645138204,-0.5814608946807682
1772526268937949200,9.12594921875,-1.0430255361318588,0.9892112360969185,-0.5358646070886403
1772526268947932200,9.13593212890625,-0.9684539870113134,0.6685314214989543,-0.5072125130999833
1772526268957914400,9.145914306640625,-1.150117545107007,0.3265659500271082,-0.45895533573552966
1772526268967897000,9.15589697265625,-1.4346359129995108,0.42989129994511605,-0.40666196165755386
1772526268977880300,9.16588037109375,-1.639782053491473,0.6937175929427146,-0.3953786433599889
1772526268987862300,9.1758623046875,-1.5605816755264996,0.6130149937212467,-0.37380942030437286
