time,seconds_elapsed,z,y,x
1772526259903655200,0.0916552734375,-0.8349881172180176,0.06562747806310654,-0.03515629097819328
1772526259913637000,0.10163720703125,-0.9185613989830017,0.1177181601524353,-0.03416150435805321
1772526259923620000,0.1116201171875,-0.9658612608909607,0.1571236252784729,-0.04686984419822693
1772526259933603000,0.12160302734375,-0.9843817949295044,0.14946402609348297,-0.06116269528865814
1772526259943585300,0.131585205078125,-0.9760346412658691,0.12934650480747223,-0.07298845797777176
1772526259953568300,0.141568359375,-0.931350588798523,0.11848371475934982,-0.07111667841672897
1772526259963551000,0.151551025390625,-0.8577642440795898,0.1285233050584793,-0.06927616894245148
1772526259973533200,0.161533203125,-0.7583655118942261,0.14028313755989075,-0.06858643144369125
1772526259983516200,0.17151611328125,-0.6599470973014832,0.13264919817447662,-0.07966997474431992
1772526259993499100,0.1814990234375,-0.576941728591919,0.0919632688164711,-0.10680029541254044
1772526260003481000,0.191481201171875,-0.5080907940864563,0.03917328640818596,-0.13422659039497375
1772526260013464300,0.20146435546875,-0.4637156128883362,-0.027702853083610535,-0.143242746591568
1772526260023447000,0.211447021484375,-0.4530925154685974,-0.11685136705636978,-0.14123472571372986
1772526260033429200,0.22142919921875,-0.4813883900642395,-0.21937356889247894,-0.1328618824481964
1772526260043412200,0.231412109375,-0.5247127413749695,-0.30671432614326477,-0.1211964413523674
1772526260053395000,0.24139501953125,-0.575334906578064,-0.3985167443752289,-0.10648805648088455
1772526260063377200,0.251377197265625,-0.6235982775688171,-0.5081908106803894,-0.09347478300333023
1772526260073360100,0.261360107421875,-0.6607167720794678,-0.5966262817382812,-0.08515556901693344
1772526260083343000,0.271343017578125,-0.6926208734512329,-0.6591340899467468,-0.07164135575294495
1772526260093325000,0.281324951171875,-0.7241271138191223,-0.6767209768295288,-0.05457419157028198
1772526260103308300,0.291308349609375,-0.7519132494926453,-0.6418532729148865,-0.032139457762241364
1772526260113291000,0.301291015625,-0.7788274884223938,-0.5661311745643616,0.044590286910533905
1772526260123274000,0.31127392578125,-0.791509211063385,-0.4774599075317383,0.16447888314723969
1772526260133256200,0.321256103515625,-0.7675501704216003,-0.39601531624794006,0.28573039174079895
1772526260143239000,0.331239013671875,-0.7237683534622192,-0.3290235102176666,0.3858271539211273
1772526260153222100,0.34122216796875,-0.6707874536514282,-0.3139357268810272,0.45897459983825684
1772526260163204000,0.3512041015625,-0.6181149482727051,-0.3083997964859009,0.5065301060676575
1772526260173187000,0.36118701171875,-0.5765998363494873,-0.30043449997901917,0.5465748310089111
1772526260183170000,0.371170166015625,-0.544857382774353,-0.28116947412490845,0.5885486602783203
1772526260193152300,0.38115234375,-0.5247567296028137,-0.25967976450920105,0.6047455668449402
1772526260203135000,0.391135009765625,-0.4970744848251343,-0.23272375762462616,0.5946282148361206
1772526260213118000,0.401117919921875,-0.4476751983165741,-0.20510005950927734,0.5640434622764587
1772526260223100200,0.41110009765625,-0.39385831356048584,-0.16705574095249176,0.5142543315887451
1772526260233083100,0.421083251953125,-0.3386837840080261,-0.048210348933935165,0.47924086451530457
1772526260243066000,0.431066162109375,-0.27359211444854736,0.14287997782230377,0.4587332010269165
1772526260253048000,0.441048095703125,-0.20341700315475464,0.3921884596347809,0.4523203372955322
1772526260263031000,0.451031005859375,-0.10544436424970627,0.6572153568267822,0.47341683506965637
1772526260273014000,0.461013916015625,0.021728314459323883,0.8219538927078247,0.5111933946609497
1772526260282996200,0.470996337890625,0.1387992799282074,0.8125638365745544,0.5535570979118347
1772526260292979200,0.480979248046875,0.19365544617176056,0.6881272196769714,0.5831754207611084
1772526260302962200,0.490962158203125,0.17446550726890564,0.49814239144325256,0.5966179966926575
1772526260312944000,0.500944091796875,0.08294852823019028,0.28493842482566833,0.5934621691703796
1772526260322927400,0.51092724609375,-0.07647069543600082,0.07122933864593506,0.5697946548461914
1772526260332910000,0.52091015625,-0.2620401084423065,-0.10684896260499954,0.5414904356002808
1772526260342892300,0.530892333984375,-0.43728381395339966,-0.21940293908119202,0.5309927463531494
1772526260352875300,0.540875244140625,-0.5669827461242676,-0.2579977512359619,0.5419591665267944
1772526260362858000,0.55085791015625,-0.6294945478439331,-0.2477613389492035,0.5800817608833313
1772526260372840200,0.560840087890625,-0.628290057182312,-0.2271750420331955,0.6280840039253235
1772526260382823200,0.5708232421875,-0.5884800553321838,-0.26033034920692444,0.6573169827461243
1772526260392806100,0.58080615234375,-0.5151553750038147,-0.34013456106185913,0.6593354344367981
1772526260402789000,0.5907890625,-0.4059732258319855,-0.41268330812454224,0.6451325416564941
1772526260412771300,0.600771240234375,-0.2818204164505005,-0.4833166301250458,0.6170428395271301
1772526260422754000,0.610754150390625,-0.16010381281375885,-0.5689799189567566,0.5751928687095642
1772526260432737000,0.620737060546875,-0.06419334560632706,-0.6527215838432312,0.5405093431472778
1772526260442719200,0.63071923828125,0.011564269661903381,-0.6469619870185852,0.5379185676574707
1772526260452702000,0.640701904296875,0.0573214516043663,-0.4961637556552887,0.5660172700881958
1772526260462685200,0.650685302734375,0.07869119197130203,-0.2805052399635315,0.606803834438324
1772526260472667100,0.660667236328125,0.07669737935066223,-0.0896160826086998,0.6145186424255371
1772526260482650000,0.670650146484375,0.062378890812397,0.028396576642990112,0.5578183531761169
1772526260492633000,0.680633056640625,0.05361318588256836,0.053316738456487656,0.44946861267089844
1772526260502615300,0.690615234375,0.05752110853791237,0.009507205337285995,0.30764997005462646
1772526260512598000,0.700597900390625,0.06719867885112762,-0.08862990885972977,0.15404343605041504
1772526260522581000,0.7105810546875,0.07364699244499207,-0.21304135024547577,0.006764775142073631
1772526260532563200,0.720563232421875,0.06651939451694489,-0.34459975361824036,-0.11005380004644394
1772526260542546000,0.7305458984375,0.04995746538043022,-0.4586600065231323,-0.18866659700870514
1772526260552529200,0.740529052734375,0.008511552587151527,-0.5490002632141113,-0.22587639093399048
1772526260562511000,0.750510986328125,-0.060103461146354675,-0.629201352596283,-0.23103174567222595
1772526260572494000,0.760494140625,-0.15573790669441223,-0.7141051292419434,-0.21836614608764648
1772526260582477000,0.77047705078125,-0.28124070167541504,-0.7994375824928284,-0.1966155767440796
1772526260592459300,0.780459228515625,-0.42386919260025024,-0.8664260506629944,-0.16423580050468445
1772526260602442000,0.79044189453125,-0.5711734890937805,-0.8995810747146606,-0.12494298815727234
1772526260612425500,0.800425537109375,-0.721904993057251,-0.8706381320953369,-0.07883055508136749
1772526260622407700,0.81040771484375,-0.8684284090995789,-0.7750484943389893,-0.03434937074780464
1772526260632390700,0.820390625,-0.9966943264007568,-0.6285449862480164,0.014358071610331535
1772526260642373600,0.83037353515625,-1.0917881727218628,-0.47699835896492004,0.05622109770774841
1772526260652355600,0.84035546875,-1.1442712545394897,-0.3369293212890625,0.09730114042758942
1772526260662338800,0.8503388671875,-1.1520072221755981,-0.22378037869930267,0.12630483508110046
1772526260672321500,0.860321533203125,-1.1382408142089844,-0.15544618666172028,0.133879154920578
1772526260682303700,0.8703037109375,-1.1155027151107788,-0.12623344361782074,0.12768571078777313
1772526260692286700,0.88028662109375,-1.0992802381515503,-0.12691587209701538,0.10687754303216934
1772526260702269400,0.89026953125,-1.1046044826507568,-0.14586186408996582,0.0788499042391777
1772526260712251600,0.900251708984375,-1.1209441423416138,-0.17119546234607697,0.04697629064321518
1772526260722234600,0.910234619140625,-1.1452124118804932,-0.19033586978912354,0.02159370295703411
1772526260732217600,0.920217529296875,-1.1701685190200806,-0.22727066278457642,-0.00738016702234745
1772526260742199600,0.930199462890625,-1.1867027282714844,-0.27939727902412415,-0.04298529773950577
1772526260752182800,0.940182861328125,-1.1900358200073242,-0.3650602698326111,-0.08590452373027802
1772526260762165500,0.95016552734375,-1.1878219842910767,-0.4724714159965515,-0.11493723839521408
1772526260772147700,0.960147705078125,-1.1756515502929688,-0.5964847803115845,-0.13382235169410706
1772526260782130700,0.970130615234375,-1.1544218063354492,-0.712548017501831,-0.13347268104553223
1772526260792113700,0.98011376953125,-1.1283087730407715,-0.7983390688896179,-0.12086847424507141
1772526260802095600,0.990095703125,-1.102033257484436,-0.8686688542366028,-0.1073145791888237
1772526260812078600,1.00007861328125,-1.0752595663070679,-0.9354637265205383,-0.10337354987859726
1772526260822061600,1.0100615234375,-1.04878830909729,-1.014388084411621,-0.11856954544782639
1772526260832043500,1.02004345703125,-1.015798568725586,-1.1033421754837036,-0.14390243589878082
1772526260842026800,1.03002685546875,-0.983375608921051,-1.1582800149917603,-0.14941304922103882
1772526260852009500,1.040009521484375,-0.9422221183776855,-1.1853713989257812,-0.12085611373186111
1772526260861991700,1.04999169921875,-0.9044920206069946,-1.167746901512146,-0.049914829432964325
1772526260871974700,1.059974609375,-0.8631736040115356,-1.0842887163162231,0.07214581966400146
1772526260881957600,1.06995751953125,-0.8165286183357239,-0.9758455753326416,0.22038055956363678
1772526260891939600,1.079939697265625,-0.7634541392326355,-0.874522864818573,0.38338086009025574
1772526260901922800,1.0899228515625,-0.7329478859901428,-0.8149186372756958,0.5325450301170349
1772526260911905500,1.099905517578125,-0.7305636405944824,-0.7875077128410339,0.6361897587776184
1772526260921887700,1.1098876953125,-0.7550513744354248,-0.808131217956543,0.6787241697311401
1772526260931870700,1.11987060546875,-0.8175983428955078,-0.8845053911209106,0.6532692909240723
1772526260941853400,1.129853515625,-0.9162780046463013,-1.0005531311035156,0.5639567375183105
1772526260951835600,1.139835693359375,-1.0532481670379639,-1.135680913925171,0.4094047248363495
1772526260961818600,1.149818603515625,-1.2106740474700928,-1.2450209856033325,0.2118287980556488
1772526260971801600,1.159801513671875,-1.3628593683242798,-1.277331829071045,0.0003769220784306526
1772526260981783600,1.169783447265625,-1.4896115064620972,-1.215613842010498,-0.18754957616329193
1772526260991766800,1.179766845703125,-1.5763155221939087,-1.0819807052612305,-0.33717092871665955
1772526261001749500,1.18974951171875,-1.6201170682907104,-0.8623031973838806,-0.4246208667755127
1772526261011731700,1.199731689453125,-1.6222970485687256,-0.5668224096298218,-0.4546266198158264
1772526261021714700,1.209714599609375,-1.5706894397735596,-0.2504788041114807,-0.422867089509964
1772526261031697400,1.219697509765625,-1.4835518598556519,0.021591797471046448,-0.3645645081996918
1772526261041679600,1.2296796875,-1.3787407875061035,0.18886467814445496,-0.29828667640686035
1772526261051662600,1.23966259765625,-1.2676050662994385,0.26921379566192627,-0.23551765084266663
1772526261061645600,1.2496455078125,-1.167963981628418,0.2666129469871521,-0.18702280521392822
1772526261071627500,1.25962744140625,-1.0642629861831665,0.192313089966774,-0.1354559063911438
1772526261081610800,1.26961083984375,-0.9429168105125427,0.0656006783246994,-0.0682731419801712
1772526261091593500,1.279593505859375,-0.8151466250419617,-0.12819959223270416,0.013810785487294197
1772526261101576400,1.289576416015625,-0.695414662361145,-0.3590485155582428,0.10084687918424606
1772526261111558700,1.29955859375,-0.6011006236076355,-0.5882142782211304,0.1895647943019867
1772526261121541600,1.309541748046875,-0.538964569568634,-0.7829070687294006,0.26640844345092773
1772526261131524600,1.319524658203125,-0.5286926031112671,-0.9158504009246826,0.3185572028160095
1772526261141506600,1.329506591796875,-0.5655084252357483,-0.9736846685409546,0.3389439582824707
1772526261151489800,1.33948974609375,-0.6428198218345642,-0.9592397809028625,0.3270419239997864
1772526261161472500,1.349472412109375,-0.7427091598510742,-0.8875080943107605,0.2924479842185974
1772526261171454700,1.359454833984375,-0.842047393321991,-0.7857202887535095,0.25017663836479187
1772526261181437700,1.369437744140625,-0.9275808930397034,-0.6544986367225647,0.20594285428524017
1772526261191420700,1.379420654296875,-1.0054877996444702,-0.5132918357849121,0.17112518846988678
1772526261201402600,1.389402587890625,-1.0691767930984497,-0.3770996332168579,0.1410948634147644
1772526261211385600,1.399385498046875,-1.1180791854858398,-0.24674969911575317,0.11957988888025284
1772526261221368600,1.40936865234375,-1.161564588546753,-0.11809986084699631,0.10403448343276978
1772526261231350800,1.419350830078125,-1.1894993782043457,-0.006669631227850914,0.08851072937250137
1772526261241333800,1.429333740234375,-1.190612554550171,0.058617230504751205,0.07673050463199615
1772526261251315700,1.439315673828125,-1.1716605424880981,0.06989343464374542,0.07196337729692459
1772526261261298700,1.449298583984375,-1.1411429643630981,0.03985058143734932,0.07480843365192413
1772526261271281700,1.45928173828125,-1.1069018840789795,-0.01649707928299904,0.10427747666835785
1772526261281264600,1.4692646484375,-1.0753530263900757,-0.08139005303382874,0.15643548965454102
1772526261291246600,1.47924658203125,-1.052532434463501,-0.14610935747623444,0.22177612781524658
1772526261301229800,1.489229736328125,-1.0342344045639038,-0.19640235602855682,0.29367855191230774
1772526261311212500,1.499212646484375,-1.0235718488693237,-0.23095034062862396,0.360149621963501
1772526261321194800,1.50919482421875,-1.009627342224121,-0.2374686896800995,0.41079071164131165
1772526261331177700,1.519177734375,-0.9989250302314758,-0.21493764221668243,0.4331085681915283
1772526261341159700,1.52915966796875,-0.9936410784721375,-0.17612792551517487,0.43627265095710754
1772526261351142700,1.539142578125,-0.9854123592376709,-0.13218149542808533,0.4087200164794922
1772526261361125600,1.549125732421875,-0.991607129573822,-0.10340258479118347,0.3599412739276886
1772526261371108600,1.559108642578125,-0.9976000189781189,-0.08872144669294357,0.30063989758491516
1772526261381090600,1.569090576171875,-0.9958604574203491,-0.0706138163805008,0.2386510819196701
1772526261391073800,1.57907373046875,-0.982239305973053,-0.004788259509950876,0.2018076479434967
1772526261401056500,1.589056396484375,-0.9468656182289124,0.11930013447999954,0.1965779960155487
1772526261411038700,1.599038818359375,-0.8893404006958008,0.265271931886673,0.22200796008110046
1772526261421021700,1.609021728515625,-0.8220295310020447,0.37862032651901245,0.25369104743003845
1772526261431003600,1.619003662109375,-0.7416049242019653,0.43890517950057983,0.2657686173915863
1772526261440986600,1.628986572265625,-0.6473205089569092,0.4562103748321533,0.2548970580101013
1772526261450969600,1.638969482421875,-0.540834367275238,0.4160563051700592,0.22878673672676086
1772526261460952600,1.64895263671875,-0.44586607813835144,0.33439233899116516,0.20524919033050537
1772526261470934500,1.6589345703125,-0.3774706721305847,0.22675150632858276,0.1779482364654541
1772526261480917800,1.668917724609375,-0.3484097421169281,0.10769808292388916,0.14782415330410004
1772526261490900500,1.678900390625,-0.3655552566051483,-0.01342739351093769,0.08900299668312073
1772526261500882700,1.688882568359375,-0.41567274928092957,-0.15383777022361755,-0.004705655388534069
1772526261510865700,1.69886572265625,-0.4826100468635559,-0.31921011209487915,-0.146530881524086
1772526261520848600,1.7088486328125,-0.5625853538513184,-0.4772644639015198,-0.3171124756336212
1772526261530830600,1.71883056640625,-0.6414890289306641,-0.5725335478782654,-0.5061097741127014
1772526261540813600,1.7288134765625,-0.7073311805725098,-0.5848994255065918,-0.6968040466308594
1772526261550796500,1.738796630859375,-0.7609705328941345,-0.5341219902038574,-0.8594884872436523
1772526261560778500,1.748778564453125,-0.8003346920013428,-0.41471782326698303,-0.97420334815979
1772526261570761700,1.75876171875,-0.8142485022544861,-0.2332378774881363,-1.0209838151931763
1772526261580743400,1.768743408203125,-0.7919629216194153,-0.013964898884296417,-0.9849005341529846
1772526261590726700,1.7787265625,-0.729733407497406,0.21011760830879211,-0.8816892504692078
1772526261600709600,1.788709716796875,-0.6449248194694519,0.36672186851501465,-0.7349040508270264
1772526261610691300,1.79869140625,-0.5383499264717102,0.46685823798179626,-0.5579482913017273
1772526261620674000,1.808674072265625,-0.4116465747356415,0.5206559896469116,-0.3656225800514221
1772526261630657300,1.8186572265625,-0.26011237502098083,0.5288408994674683,-0.16902974247932434
1772526261640639200,1.82863916015625,-0.10234538465738297,0.4968012571334839,0.003258149605244398
1772526261650622200,1.838622314453125,0.035607703030109406,0.4074905216693878,0.11940820515155792
1772526261660605200,1.848605224609375,0.1697620451450348,0.2985938787460327,0.1801578402519226
1772526261670587400,1.85858740234375,0.2888086438179016,0.2405482679605484,0.210191547870636
1772526261680570400,1.8685703125,0.3830738961696625,0.2417067438364029,0.20634834468364716
1772526261690553000,1.878552978515625,0.45537620782852173,0.293861985206604,0.17467783391475677
1772526261700535300,1.888535400390625,0.49185991287231445,0.4039751887321472,0.10819575190544128
1772526261710518300,1.898518310546875,0.48753806948661804,0.5313591957092285,-0.00167178176343441
1772526261720501200,1.908501220703125,0.42838525772094727,0.5733522176742554,-0.16070884466171265
1772526261730483200,1.918483154296875,0.3221072852611542,0.4640209972858429,-0.35807597637176514
1772526261740466400,1.928466552734375,0.2083740532398224,0.2571285367012024,-0.555402398109436
1772526261750449200,1.93844921875,0.1063631922006607,0.04419126734137535,-0.7093306183815002
1772526261760431400,1.948431396484375,0.02064136601984501,-0.14794808626174927,-0.8106550574302673
1772526261770414300,1.958414306640625,-0.047838110476732254,-0.340353399515152,-0.8534627556800842
1772526261780397000,1.96839697265625,-0.09347323328256607,-0.5002077221870422,-0.8450298309326172
1772526261790379300,1.978379150390625,-0.11966045200824738,-0.6247161030769348,-0.7755505442619324
1772526261800362200,1.9883623046875,-0.1347198188304901,-0.6651679277420044,-0.6478168368339539
1772526261810345200,1.99834521484375,-0.12977378070354462,-0.6385856866836548,-0.4756591320037842
1772526261820327200,2.0083271484375,-0.12083408236503601,-0.5601377487182617,-0.2744479775428772
1772526261830310400,2.018310302734375,-0.09842156618833542,-0.44504180550575256,-0.07429727166891098
1772526261840293000,2.028293212890625,-0.06887086480855942,-0.33364391326904297,0.1140044629573822
1772526261850275300,2.038275390625,-0.030412064865231514,-0.25195741653442383,0.2606081962585449
1772526261860258300,2.04825830078125,0.007892712950706482,-0.18783223628997803,0.3614674508571625
1772526261870241300,2.0582412109375,0.04572105407714844,-0.14580170810222626,0.41619807481765747
1772526261880223200,2.06822314453125,0.08206042647361755,-0.13238683342933655,0.4318806231021881
1772526261890206500,2.07820654296875,0.11496476829051971,-0.1380699872970581,0.41278159618377686
1772526261900189200,2.088189208984375,0.14635810256004333,-0.14530766010284424,0.38089290261268616
1772526261910171400,2.09817138671875,0.17386464774608612,-0.1437063366174698,0.3305787742137909
1772526261920154400,2.108154296875,0.19517739117145538,-0.13144780695438385,0.2751293480396271
1772526261930137000,2.11813720703125,0.20845699310302734,-0.10817243158817291,0.2133253961801529
1772526261940119300,2.128119384765625,0.21293510496616364,-0.07866167277097702,0.15103939175605774
1772526261950102300,2.138102294921875,0.20371894538402557,-0.02499409206211567,0.09313585609197617
1772526261960085200,2.148085205078125,0.18845610320568085,0.03205534815788269,0.02954702638089657
1772526261970067200,2.158067138671875,0.17058435082435608,0.07837361097335815,-0.0426277332007885
1772526261980050400,2.168050537109375,0.1359880268573761,0.12110722064971924,-0.13304710388183594
1772526261990033200,2.178033203125,0.07908504456281662,0.18048809468746185,-0.24200130999088287
1772526262000015400,2.188015380859375,0.0074492087587714195,0.2592465579509735,-0.35532280802726746
1772526262009998300,2.197998291015625,-0.06736385822296143,0.3733696937561035,-0.4555598497390747
1772526262019981000,2.20798095703125,-0.13490533828735352,0.5040217041969299,-0.5244736671447754
1772526262029963300,2.21796337890625,-0.18478712439537048,0.6115997433662415,-0.557313859462738
1772526262039946200,2.2279462890625,-0.22755110263824463,0.6938099265098572,-0.5585418343544006
1772526262049929200,2.23792919921875,-0.25887149572372437,0.7691715955734253,-0.5182448029518127
1772526262059911200,2.2479111328125,-0.2901095747947693,0.8480765223503113,-0.45326924324035645
1772526262069894400,2.257894287109375,-0.30122074484825134,0.960997462272644,-0.37191563844680786
1772526262079877000,2.267877197265625,-0.27965474128723145,1.0065577030181885,-0.29946887493133545
1772526262089859300,2.277859375,-0.25117960572242737,0.8809159398078918,-0.27321529388427734
1772526262099842300,2.28784228515625,-0.2683495581150055,0.6015189290046692,-0.2856578230857849
1772526262109825000,2.297824951171875,-0.3490975797176361,0.31457841396331787,-0.3051333427429199
1772526262119807200,2.30780712890625,-0.460805743932724,0.0774521604180336,-0.3095078766345978
1772526262129790200,2.317790283203125,-0.6009243726730347,-0.1686239242553711,-0.3127969205379486
1772526262139773200,2.327773193359375,-0.7780309319496155,-0.4092932641506195,-0.33174291253089905
1772526262149755100,2.337755126953125,-0.9592703580856323,-0.603501558303833,-0.35749348998069763
1772526262159738400,2.34773828125,-1.1113741397857666,-0.7481165528297424,-0.3758077919483185
1772526262169721300,2.357721435546875,-1.2112430334091187,-0.893287181854248,-0.38156142830848694
1772526262179703300,2.367703369140625,-1.2578856945037842,-1.0256589651107788,-0.3654828667640686
1772526262189686300,2.377686279296875,-1.2547316551208496,-1.139873743057251,-0.31746259331703186
1772526262199669200,2.387669189453125,-1.189546823501587,-1.1936134099960327,-0.22079330682754517
1772526262209651200,2.397651123046875,-1.0637742280960083,-1.1750049591064453,-0.05741928517818451
1772526262219634200,2.40763427734375,-0.8842299580574036,-1.0918573141098022,0.15091954171657562
1772526262229617400,2.417617431640625,-0.6493382453918457,-0.9484807252883911,0.3769703209400177
1772526262239599000,2.42759912109375,-0.39422765374183655,-0.8056570291519165,0.5793271660804749
1772526262249582300,2.437582275390625,-0.17050829529762268,-0.7263039946556091,0.7012647390365601
1772526262259565300,2.4475654296875,-0.0028210331220179796,-0.6921135187149048,0.7336692810058594
1772526262269547300,2.45754736328125,0.1330406665802002,-0.6473586559295654,0.7037841081619263
1772526262279530200,2.4675302734375,0.24770386517047882,-0.5692300200462341,0.6269098520278931
1772526262289512200,2.47751220703125,0.3489595353603363,-0.49754267930984497,0.5135495662689209
1772526262299495200,2.4874951171875,0.4329705536365509,-0.48299145698547363,0.38228604197502136
1772526262309478400,2.497478515625,0.478373646736145,-0.5200102925300598,0.24767877161502838
1772526262319460000,2.507460205078125,0.47677335143089294,-0.5739361047744751,0.12748712301254272
1772526262329443300,2.517443359375,0.41827166080474854,-0.6027268767356873,0.037839680910110474
1772526262339426300,2.52742626953125,0.31101471185684204,-0.5873266458511353,-0.01323655340820551
1772526262349408300,2.537408203125,0.17578965425491333,-0.5280008316040039,-0.022466739639639854
1772526262359391200,2.54739111328125,0.03979161009192467,-0.45992934703826904,0.009418221190571785
1772526262369374200,2.557374267578125,-0.0750051960349083,-0.39127764105796814,0.07079573720693588
1772526262379356200,2.567356201171875,-0.15512558817863464,-0.3152505159378052,0.15132039785385132
1772526262389339100,2.577339111328125,-0.205703467130661,-0.2629237771034241,0.23376913368701935
1772526262399322400,2.587322265625,-0.2308996319770813,-0.22635751962661743,0.2977060377597809
1772526262409304000,2.597303955078125,-0.2423650175333023,-0.2118424028158188,0.33559921383857727
1772526262419287300,2.607287353515625,-0.21847006678581238,-0.20619544386863708,0.3546147346496582
1772526262429270300,2.617270263671875,-0.17736150324344635,-0.19268794357776642,0.3605325520038605
1772526262439252200,2.627252197265625,-0.11753518879413605,-0.16833972930908203,0.3621163070201874
1772526262449235200,2.637235107421875,-0.05807726830244064,-0.1247386559844017,0.35892409086227417
1772526262459218200,2.64721826171875,0.004995440598577261,-0.06801412254571915,0.35603800415992737
1772526262469200100,2.6572001953125,0.05527042597532272,-0.002371057868003845,0.3513558506965637
1772526262479183000,2.66718310546875,0.08923132717609406,0.06468866765499115,0.3369087278842926
1772526262489166300,2.677166259765625,0.10785754770040512,0.11980330944061279,0.312030166387558
1772526262499148000,2.68714794921875,0.11011936515569687,0.13905157148838043,0.271495521068573
1772526262509131300,2.69713134765625,0.09281327575445175,0.11864591389894485,0.22340692579746246
1772526262519114200,2.7071142578125,0.061177317053079605,0.07211409509181976,0.16955888271331787
1772526262529096400,2.717096435546875,0.017605949193239212,0.0324244387447834,0.12657082080841064
1772526262539079200,2.7270791015625,-0.032560814172029495,0.0012137885205447674,0.10995057225227356
1772526262549062100,2.737062255859375,-0.07759147882461548,-0.006363136228173971,0.11878890544176102
1772526262559044400,2.74704443359375,-0.12042523175477982,-0.007453168276697397,0.15365874767303467
1772526262569027000,2.757027099609375,-0.14888527989387512,-0.03733788803219795,0.19782105088233948
1772526262579010300,2.76701025390625,-0.1700960248708725,-0.10721870511770248,0.24892018735408783
1772526262588992300,2.7769921875,-0.17762210965156555,-0.19527725875377655,0.31026691198349
1772526262598975200,2.786975341796875,-0.1788700670003891,-0.2962789535522461,0.3990316689014435
1772526262608958200,2.796958251953125,-0.19599613547325134,-0.39175358414649963,0.5343645811080933
1772526262618941000,2.80694091796875,-0.26691797375679016,-0.43646591901779175,0.7039040923118591
1772526262628924000,2.816923828125,-0.3753722310066223,-0.3939041793346405,0.8949918746948242
1772526262638907000,2.826906982421875,-0.4806666970252991,-0.39193210005760193,1.046829104423523
1772526262648888800,2.836888916015625,-0.5683523416519165,-0.47393763065338135,1.0932735204696655
1772526262658871800,2.846871826171875,-0.6220877170562744,-0.5374076962471008,1.034590244293213
1772526262668855000,2.85685498046875,-0.6482667922973633,-0.5159569978713989,0.8951182961463928
1772526262678836700,2.866836669921875,-0.6515957117080688,-0.41277170181274414,0.6848862171173096
1772526262688820000,2.876820068359375,-0.6473933458328247,-0.29489266872406006,0.41723039746284485
1772526262698801700,2.8868017578125,-0.6323097348213196,-0.2416994571685791,0.09049196541309357
1772526262708785000,2.896784912109375,-0.6031646132469177,-0.28236082196235657,-0.26034224033355713
1772526262718767900,2.906767822265625,-0.5498769283294678,-0.3902742266654968,-0.6008439064025879
1772526262728750000,2.91675,-0.4809741973876953,-0.48463502526283264,-0.8862544298171997
1772526262738732800,2.92673291015625,-0.38499096035957336,-0.5363218784332275,-1.063011646270752
1772526262748715800,2.9367158203125,-0.27913159132003784,-0.5128624439239502,-1.1099716424942017
1772526262758698000,2.946697998046875,-0.1655842810869217,-0.3739500939846039,-1.012821912765503
1772526262768680700,2.9566806640625,-0.04866582900285721,-0.16321587562561035,-0.8044890761375427
1772526262778664000,2.966663818359375,0.037470389157533646,0.06377440690994263,-0.5350014567375183
1772526262788646000,2.97664599609375,0.07413823902606964,0.28789567947387695,-0.23257263004779816
1772526262798628900,2.98662890625,0.03892645984888077,0.5012556314468384,0.058425381779670715
1772526262808611800,2.99661181640625,-0.07340099662542343,0.6065742373466492,0.30110812187194824
1772526262818594000,3.006593994140625,-0.24319268763065338,0.5554250478744507,0.45673075318336487
1772526262828576800,3.01657666015625,-0.44321855902671814,0.37139764428138733,0.5230059623718262
1772526262838559700,3.026559814453125,-0.6236009001731873,0.12893439829349518,0.5234389901161194
1772526262848542000,3.0365419921875,-0.7610313892364502,-0.14374813437461853,0.4687882959842682
1772526262858524700,3.046524658203125,-0.843614935874939,-0.44383737444877625,0.368379145860672
1772526262868508000,3.0565078125,-0.8854495882987976,-0.7745577096939087,0.24447113275527954
1772526262878489900,3.06648974609375,-0.9129586815834045,-1.0651758909225464,0.11790093034505844
1772526262888472800,3.076472900390625,-0.942201554775238,-1.2444111108779907,0.022101430222392082
1772526262898455800,3.086455810546875,-0.9603430032730103,-1.2998504638671875,-0.02058185078203678
1772526262908438000,3.09643798828125,-0.9472674131393433,-1.2225559949874878,-0.017028922215104103
1772526262918420700,3.106420654296875,-0.9054096937179565,-1.0837831497192383,0.000795348547399044
1772526262928404000,3.116404052734375,-0.8388659954071045,-0.9390847682952881,0.004662716761231422
1772526262938386000,3.126385986328125,-0.7605621814727783,-0.8177742958068848,-0.029212692752480507
1772526262948369000,3.136368896484375,-0.6905967593193054,-0.7489547729492188,-0.12136653065681458
1772526262958352000,3.146351806640625,-0.6445847749710083,-0.7008759379386902,-0.26055848598480225
1772526262968334000,3.156333984375,-0.6142829060554504,-0.6284453868865967,-0.41297590732574463
1772526262978316800,3.16631689453125,-0.5940881371498108,-0.5000655651092529,-0.5337986946105957
1772526262988299000,3.176299072265625,-0.5942944288253784,-0.3089616000652313,-0.5931994915008545
1772526262998282000,3.186281982421875,-0.6090789437294006,-0.09404902905225754,-0.5883997082710266
1772526263008264700,3.1962646484375,-0.6207055449485779,0.11779662221670151,-0.5379738807678223
1772526263018247000,3.206246826171875,-0.6311118602752686,0.291861355304718,-0.4615299701690674
1772526263028230000,3.21622998046875,-0.6449453830718994,0.3717108368873596,-0.3851531445980072
1772526263038212900,3.226212890625,-0.7135366797447205,0.36485373973846436,-0.3606534004211426
1772526263048194800,3.23619482421875,-0.7627769112586975,0.2913946807384491,-0.36518821120262146
1772526263058178000,3.246177978515625,-0.7486001253128052,0.18801899254322052,-0.3597223460674286
1772526263068160800,3.256160888671875,-0.7235842943191528,0.05823954567313194,-0.3600539565086365
1772526263078143000,3.26614306640625,-0.7058284282684326,-0.10150137543678284,-0.37221527099609375
1772526263088126000,3.2761259765625,-0.696864128112793,-0.2857554852962494,-0.3875517249107361
1772526263098108700,3.286108642578125,-0.6952483654022217,-0.4653913080692291,-0.41021546721458435
1772526263108091000,3.2960908203125,-0.694788932800293,-0.6350299119949341,-0.4263785481452942
1772526263118073900,3.306073974609375,-0.7124744653701782,-0.7744964957237244,-0.4386000633239746
1772526263128056800,3.316056884765625,-0.74882972240448,-0.8832792639732361,-0.4229956269264221
1772526263138038800,3.326038818359375,-0.7997770309448242,-1.0049899816513062,-0.3691209554672241
1772526263148022000,3.33602197265625,-0.8321961760520935,-1.137593150138855,-0.27596527338027954
1772526263158004700,3.346004638671875,-0.8336204290390015,-1.2417943477630615,-0.14040422439575195
1772526263167987000,3.355987060546875,-0.7882801294326782,-1.2655718326568604,0.025431718677282333
1772526263177970000,3.365969970703125,-0.7033830881118774,-1.2307510375976562,0.19836142659187317
1772526263187952600,3.37595263671875,-0.5923025012016296,-1.167029857635498,0.36570999026298523
1772526263197934800,3.385934814453125,-0.4794105887413025,-1.1036165952682495,0.4972509741783142
1772526263207917800,3.395917724609375,-0.3660990297794342,-1.0534063577651978,0.5697018504142761
1772526263217901000,3.405901123046875,-0.2725565433502197,-0.9724717736244202,0.5947000980377197
1772526263227882800,3.4158828125,-0.2087642401456833,-0.7759249806404114,0.5596268773078918
1772526263237866000,3.425865966796875,-0.20092841982841492,-0.5810335278511047,0.42877718806266785
1772526263247849000,3.435848876953125,-0.2151305228471756,-0.5625354647636414,0.1906948685646057
1772526263257831000,3.445830810546875,-0.23536229133605957,-0.6680349707603455,-0.12457359582185745
1772526263267814000,3.45581396484375,-0.20346492528915405,-0.7708005309104919,-0.43543633818626404
1772526263277795800,3.4657958984375,-0.12662315368652344,-0.7739758491516113,-0.6819337606430054
1772526263287778800,3.47577880859375,-0.05128566920757294,-0.6762257814407349,-0.8445796966552734
1772526263297761800,3.48576171875,-0.015159090980887413,-0.5149242877960205,-0.9252119660377502
1772526263307743700,3.49574365234375,-0.008375316858291626,-0.34898844361305237,-0.9410480856895447
1772526263317727000,3.50572705078125,-0.014665969647467136,-0.18093204498291016,-0.8928595185279846
1772526263327710000,3.5157099609375,-0.010847911238670349,0.017946382984519005,-0.7777025103569031
1772526263337692000,3.52569189453125,0.024215800687670708,0.26125624775886536,-0.5971159338951111
1772526263347675000,3.5356748046875,0.07766886055469513,0.5515430569648743,-0.36760327219963074
1772526263357657900,3.545657958984375,0.13496597111225128,0.8294974565505981,-0.11249348521232605
1772526263367639800,3.555639892578125,0.21806198358535767,1.0499813556671143,0.14928953349590302
1772526263377622800,3.565622802734375,0.3256206810474396,1.1730854511260986,0.39773955941200256
1772526263387606000,3.57560595703125,0.43686556816101074,1.1844007968902588,0.6043038964271545
1772526263397587700,3.585587646484375,0.5197516679763794,1.0802767276763916,0.7578678727149963
1772526263407571000,3.595571044921875,0.5656188130378723,0.8963583707809448,0.8658610582351685
1772526263417554000,3.605553955078125,0.6058858036994934,0.6830753684043884,0.9352657198905945
1772526263427536000,3.615535888671875,0.6448736190795898,0.4745270013809204,0.9929053783416748
1772526263437518800,3.625518798828125,0.6830995678901672,0.2999778389930725,1.038318395614624
1772526263447501800,3.635501708984375,0.7177584767341614,0.19117334485054016,1.0790506601333618
1772526263457483800,3.64548388671875,0.7128713130950928,0.21325865387916565,1.095082402229309
1772526263467466800,3.655466796875,0.6443833708763123,0.383307546377182,1.067713737487793
1772526263477450000,3.665449951171875,0.5290336012840271,0.6734378933906555,1.0302222967147827
1772526263487431700,3.675431640625,0.3701689541339874,0.9646808505058289,0.9689868688583374
1772526263497415000,3.685414794921875,0.1755233258008957,1.1401005983352661,0.8696885108947754
1772526263507396900,3.69539697265625,-0.060002390295267105,1.2450203895568848,0.72732013463974
1772526263517379800,3.7053798828125,-0.30597245693206787,1.3379993438720703,0.5517091751098633
1772526263527362800,3.71536279296875,-0.5163955092430115,1.4605804681777954,0.36113598942756653
1772526263537345000,3.725344970703125,-0.6511943340301514,1.572535514831543,0.17668598890304565
1772526263547327700,3.73532763671875,-0.6747365593910217,1.6210969686508179,-0.002149858046323061
1772526263557310700,3.745310791015625,-0.5875835418701172,1.6119129657745361,-0.150531604886055
1772526263567293000,3.75529296875,-0.41512706875801086,1.6133688688278198,-0.2618032395839691
1772526263577276000,3.76527587890625,-0.1887035220861435,1.6620293855667114,-0.31527605652809143
1772526263587259000,3.7752587890625,0.02456248551607132,1.7149066925048828,-0.3397913873195648
1772526263597240800,3.78524072265625,0.18176622688770294,1.7358381748199463,-0.3398113548755646
1772526263607224000,3.79522412109375,0.29924607276916504,1.7194737195968628,-0.3060857057571411
1772526263617206000,3.8052060546875,0.3557966947555542,1.6308711767196655,-0.2636690139770508
1772526263627188000,3.81518798828125,0.37319231033325195,1.494242548942566,-0.20794029533863068
1772526263637171000,3.8251708984375,0.3745664954185486,1.3251938819885254,-0.14042143523693085
1772526263647154200,3.835154296875,0.36683911085128784,1.15011465549469,-0.05789686739444733
1772526263657135900,3.845135986328125,0.3556607663631439,0.9967913031578064,0.03592389449477196
1772526263667119000,3.855119140625,0.35154226422309875,0.8405364155769348,0.13600406050682068
1772526263677102000,3.86510205078125,0.3619943857192993,0.6640399694442749,0.2406495213508606
1772526263687084000,3.875083984375,0.41716620326042175,0.4503065347671509,0.33058032393455505
1772526263697067000,3.88506689453125,0.5203405618667603,0.18578220903873444,0.39367246627807617
1772526263707049200,3.89504931640625,0.6564496755599976,-0.13613218069076538,0.4299015998840332
1772526263717032000,3.905031982421875,0.828949511051178,-0.5040372610092163,0.44065621495246887
1772526263727015000,3.915014892578125,1.0453802347183228,-0.8948972821235657,0.44620969891548157
1772526263736997000,3.9249970703125,1.278921365737915,-1.2472833395004272,0.4783724248409271
1772526263746979800,3.934979736328125,1.4892394542694092,-1.4945820569992065,0.5601824522018433
1772526263756963000,3.944963134765625,1.6282386779785156,-1.6234610080718994,0.7018724679946899
1772526263766945000,3.954945068359375,1.6775050163269043,-1.5890589952468872,0.9131472706794739
1772526263776928000,3.964927978515625,1.6405073404312134,-1.411853313446045,1.1586308479309082
1772526263786911000,3.974910888671875,1.5230141878128052,-1.1237943172454834,1.3938547372817993
1772526263796893200,3.98489306640625,1.345083236694336,-0.7807876467704773,1.5690734386444092
1772526263806876000,3.9948759765625,1.1323238611221313,-0.4689843952655792,1.654510736465454
1772526263816859000,4.00485888671875,0.9129447340965271,-0.19605006277561188,1.6336698532104492
1772526263826841000,4.014841064453125,0.7248141169548035,0.0004416222218424082,1.5077320337295532
1772526263836824000,4.024823974609375,0.5950164198875427,0.08472295105457306,1.2839887142181396
1772526263846807000,4.03480712890625,0.5277925133705139,0.07327386736869812,0.9992591738700867
1772526263856789000,4.0447890625,0.5460796356201172,0.04106612876057625,0.6937775611877441
1772526263866772000,4.05477197265625,0.6302979588508606,0.008495322428643703,0.39917856454849243
1772526263876755000,4.0647548828125,0.7353993058204651,-0.0270024836063385,0.14241787791252136
1772526263886737200,4.074737060546875,0.8100820183753967,-0.08619541674852371,-0.05532520264387131
1772526263896720000,4.084719970703125,0.837548553943634,-0.14645129442214966,-0.1733037829399109
1772526263906702000,4.0947021484375,0.8480923771858215,-0.16905006766319275,-0.20832370221614838
1772526263916685000,4.10468505859375,0.8580853939056396,-0.14831894636154175,-0.1677861362695694
1772526263926668000,4.11466796875,0.867445707321167,-0.11724649369716644,-0.07856407761573792
1772526263936650000,4.12464990234375,0.87895268201828,-0.08794666081666946,0.0366637147963047
1772526263946633200,4.13463330078125,0.8748172521591187,-0.04397748410701752,0.1706901490688324
1772526263956616000,4.144615966796875,0.8624223470687866,0.047791849821805954,0.3060336112976074
1772526263966598100,4.15459814453125,0.8533490300178528,0.19105999171733856,0.43537047505378723
1772526263976581000,4.1645810546875,0.8633300065994263,0.3724031448364258,0.5502448081970215
1772526263986563800,4.174563720703125,0.897368848323822,0.5433790683746338,0.6351102590560913
1772526263996546000,4.184546142578125,0.9668056964874268,0.6810122728347778,0.6812505722045898
1772526264006529000,4.194529052734375,1.078620433807373,0.7713958024978638,0.692131757736206
1772526264016512300,4.20451220703125,1.210194706916809,0.830994188785553,0.6760420203208923
1772526264026494000,4.214493896484375,1.344779133796692,0.8720928430557251,0.6340148448944092
1772526264036477200,4.224477294921875,1.4652317762374878,0.9135108590126038,0.5732356309890747
1772526264046460200,4.234460205078125,1.552385926246643,0.9372518062591553,0.497701495885849
1772526264056442000,4.244442138671875,1.6004546880722046,0.9374473094940186,0.4120537042617798
1772526264066425000,4.254425048828125,1.6115273237228394,0.8895894885063171,0.31038007140159607
1772526264076407000,4.264406982421875,1.5948822498321533,0.7950595021247864,0.20735621452331543
1772526264086390000,4.27439013671875,1.5619912147521973,0.656597375869751,0.11676419526338577
1772526264096373000,4.284373046875,1.513061285018921,0.48736146092414856,0.04177384451031685
1772526264106355000,4.29435498046875,1.4523717164993286,0.33882880210876465,-0.0021799462847411633
1772526264116338000,4.304337890625,1.3759595155715942,0.26517003774642944,0.003739994252100587
1772526264126321200,4.314321044921875,1.2977367639541626,0.28204140067100525,0.05078995227813721
1772526264136302800,4.324302734375,1.2325828075408936,0.3451351523399353,0.12549960613250732
1772526264146286000,4.3342861328125,1.1864452362060547,0.4364989697933197,0.22376634180545807
1772526264156269000,4.34426904296875,1.1557410955429077,0.5466457009315491,0.3166683316230774
1772526264166251000,4.3542509765625,1.1402397155761719,0.6664313673973083,0.40611743927001953
1772526264176234000,4.36423388671875,1.1399809122085571,0.7790915966033936,0.47778522968292236
1772526264186217000,4.374217041015625,1.1392050981521606,0.8674216866493225,0.5338481068611145
1772526264196199000,4.384198974609375,1.1409460306167603,0.9285460114479065,0.5681595206260681
1772526264206182000,4.394181884765625,1.1425375938415527,0.9905370473861694,0.5846754312515259
1772526264216165000,4.4041650390625,1.136601448059082,1.0345361232757568,0.5792868137359619
1772526264226146800,4.414146728515625,1.1244988441467285,1.0757200717926025,0.5617741942405701
1772526264236130000,4.424130126953125,1.1093688011169434,1.098474383354187,0.534128725528717
1772526264246112000,4.434112060546875,1.111896276473999,1.100152850151062,0.5034836530685425
1772526264256095000,4.444094970703125,1.1262807846069336,1.094527244567871,0.4855368435382843
1772526264266078000,4.454077880859375,1.1424105167388916,1.0807751417160034,0.4806441068649292
1772526264276060200,4.46406005859375,1.1654434204101562,1.0375925302505493,0.4880210757255554
1772526264286043000,4.47404296875,1.1967321634292603,0.9380123019218445,0.510233998298645
1772526264296026000,4.484026123046875,1.2343393564224243,0.8080663084983826,0.5507257580757141
1772526264306008000,4.494008056640625,1.2654463052749634,0.6638293862342834,0.61093670129776
1772526264315991000,4.503990966796875,1.2900140285491943,0.531457781791687,0.6858029365539551
1772526264325974000,4.51397412109375,1.2831002473831177,0.4203528165817261,0.7688249945640564
1772526264335956200,4.523956298828125,1.2530081272125244,0.3345305919647217,0.8550136685371399
1772526264345939000,4.53393896484375,1.194002389907837,0.2930758595466614,0.9318287968635559
1772526264355922000,4.543921875,1.1028908491134644,0.3213905692100525,0.9774724841117859
1772526264365904100,4.553904052734375,0.9930708408355713,0.4049243927001953,0.9855691194534302
1772526264375887000,4.56388720703125,0.8746762871742249,0.5516387224197388,0.9430722594261169
1772526264385870000,4.5738701171875,0.7725183963775635,0.672546923160553,0.8521474599838257
1772526264395852000,4.58385205078125,0.6795322299003601,0.6443866491317749,0.6846857666969299
1772526264405835300,4.593835205078125,0.5783282518386841,0.4304402768611908,0.44869670271873474
1772526264415817000,4.60381689453125,0.4783095121383667,0.16189484298229218,0.19507962465286255
1772526264425800200,4.61380029296875,0.40675005316734314,-0.02492479234933853,-0.018695952370762825
1772526264435783200,4.623783203125,0.34259581565856934,-0.04884610325098038,-0.16060702502727509
1772526264445765000,4.63376513671875,0.30657246708869934,0.10360212624073029,-0.2063416689634323
1772526264455748000,4.643748046875,0.31715771555900574,0.4016641676425934,-0.16333268582820892
1772526264465731000,4.65373095703125,0.36720922589302063,0.8039381504058838,-0.05599338188767433
1772526264475713000,4.663713134765625,0.443096786737442,1.2761245965957642,0.08918964862823486
1772526264485696000,4.673696044921875,0.5528452396392822,1.7545573711395264,0.24981039762496948
1772526264495679200,4.68367919921875,0.6828721761703491,2.137270212173462,0.39773085713386536
1772526264505661000,4.693660888671875,0.8366867303848267,2.343874931335449,0.5029014348983765
1772526264515644200,4.70364404296875,1.0176447629928589,2.3658287525177,0.5692676305770874
1772526264525627100,4.713627197265625,1.214274287223816,2.257887363433838,0.6037085056304932
1772526264535609000,4.723609130859375,1.4268784523010254,2.088350296020508,0.6249866485595703
1772526264545592000,4.733592041015625,1.6359994411468506,1.8642182350158691,0.6388640999794006
1772526264555574000,4.743573974609375,1.8282605409622192,1.5532519817352295,0.6444640755653381
1772526264565557000,4.753556884765625,1.9983717203140259,1.1487631797790527,0.6482180953025818
1772526264575540000,4.7635400390625,2.1434264183044434,0.6768891215324402,0.647675096988678
1772526264585522000,4.77352197265625,2.258810520172119,0.19597524404525757,0.65966796875
1772526264595505000,4.7835048828125,2.345288038253784,-0.2016775757074356,0.6782459020614624
1772526264605488000,4.793488037109375,2.398581027984619,-0.4783315062522888,0.6992900371551514
1772526264615470300,4.80347021484375,2.4212093353271484,-0.6273961067199707,0.7139701843261719
1772526264625453600,4.81345361328125,2.4223098754882812,-0.6610817909240723,0.720327615737915
1772526264635436300,4.823436279296875,2.4097278118133545,-0.6175897121429443,0.7158005237579346
1772526264645418500,4.83341845703125,2.3777835369110107,-0.509451150894165,0.6945200562477112
1772526264655401500,4.8434013671875,2.3323986530303955,-0.34525367617607117,0.6584989428520203
1772526264665384400,4.853384521484375,2.28932785987854,-0.11462590843439102,0.6020342707633972
1772526264675366400,4.863366455078125,2.2499427795410156,0.1535504311323166,0.5238087177276611
1772526264685349400,4.873349365234375,2.218876838684082,0.4159424901008606,0.42226696014404297
1772526264695331300,4.883331298828125,2.1926214694976807,0.6875987648963928,0.3039208948612213
1772526264705314300,4.893314208984375,2.162203550338745,0.9815555810928345,0.1815461367368698
1772526264715297500,4.903297607421875,2.1315512657165527,1.2692595720291138,0.055263567715883255
1772526264725279200,4.913279296875,2.0907533168792725,1.5104724168777466,-0.0608941949903965
1772526264735262500,4.923262451171875,2.0357632637023926,1.688269853591919,-0.16148950159549713
1772526264745245400,4.933245361328125,1.976525068283081,1.8165141344070435,-0.24219481647014618
1772526264755227400,4.943227294921875,1.9224799871444702,1.8935106992721558,-0.310853511095047
1772526264765210400,4.95321044921875,1.8852307796478271,1.9403882026672363,-0.35930120944976807
1772526264775193300,4.963193359375,1.8672819137573242,1.957309365272522,-0.39003223180770874
1772526264785175300,4.97317529296875,1.8750331401824951,1.9320878982543945,-0.4065200686454773
1772526264795158300,4.983158203125,1.9019896984100342,1.840445637702942,-0.4053424298763275
1772526264805141500,4.9931416015625,1.9563031196594238,1.6645946502685547,-0.384170264005661
1772526264815123200,5.003123291015625,2.0150489807128906,1.4328449964523315,-0.3363156318664551
1772526264825106400,5.0131064453125,2.0433592796325684,1.1863458156585693,-0.2525247037410736
1772526264835089400,5.02308935546875,2.0110301971435547,0.9785507917404175,-0.13209839165210724
1772526264845071400,5.0330712890625,1.8962397575378418,0.8357375860214233,-0.005694154649972916
1772526264855054300,5.043054443359375,1.6982251405715942,0.7409886717796326,0.08512336760759354
1772526264865036500,5.05303662109375,1.4479585886001587,0.6128454804420471,0.1095694750547409
1772526264875019300,5.063019287109375,1.194915771484375,0.4065871238708496,0.06942924857139587
1772526264885002500,5.07300244140625,0.9768375754356384,0.18466611206531525,-0.0011399337090551853
1772526264894984400,5.082984375,0.8188868165016174,0.09120965749025345,-0.07835882157087326
1772526264904967400,5.092967529296875,0.7411777377128601,0.23788297176361084,-0.12709690630435944
1772526264914950400,5.102950439453125,0.7351896166801453,0.6056602001190186,-0.16390472650527954
1772526264924932400,5.112932373046875,0.7732148170471191,1.102576732635498,-0.21195624768733978
1772526264934915300,5.122915283203125,0.8327574729919434,1.5943834781646729,-0.30834588408470154
1772526264944898300,5.132898193359375,0.9139847755432129,1.9842994213104248,-0.44739827513694763
1772526264954880500,5.142880615234375,1.0198674201965332,2.205709218978882,-0.6180738806724548
1772526264964863200,5.15286328125,1.1649091243743896,2.2331290245056152,-0.8025422692298889
1772526264974845400,5.162845458984375,1.3487082719802856,2.094512701034546,-0.9620027542114258
1772526264984828400,5.172828369140625,1.5446926355361938,1.9068576097488403,-1.0503841638565063
1772526264994811400,5.182811279296875,1.7294872999191284,1.7180688381195068,-1.052107810974121
1772526265004793300,5.19279345703125,1.8963474035263062,1.5313513278961182,-0.9707151055335999
1772526265014776600,5.202776611328125,2.0498883724212646,1.3992561101913452,-0.7939174175262451
1772526265024759600,5.212759521484375,2.184040069580078,1.3352411985397339,-0.5373697876930237
1772526265034741500,5.222741455078125,2.2842743396759033,1.3498501777648926,-0.22673390805721283
1772526265044724500,5.232724365234375,2.340280532836914,1.4334098100662231,0.10838964581489563
1772526265054707500,5.24270751953125,2.349799633026123,1.5512858629226685,0.43029817938804626
1772526265064689400,5.252689453125,2.3263773918151855,1.6386322975158691,0.7070415616035461
1772526265074672400,5.26267236328125,2.286134958267212,1.6392731666564941,0.9258372783660889
1772526265084655600,5.272655517578125,2.253898859024048,1.5281970500946045,1.0563651323318481
1772526265094637300,5.28263720703125,2.2446391582489014,1.328684687614441,1.1122515201568604
1772526265104620500,5.29262060546875,2.2475647926330566,1.077078938484192,1.1111247539520264
1772526265114602200,5.302602294921875,2.2685415744781494,0.810942530632019,1.0742461681365967
1772526265124585500,5.31258544921875,2.2939023971557617,0.554776668548584,1.0273125171661377
1772526265134568400,5.322568359375,2.3110694885253906,0.34691616892814636,0.9765258431434631
1772526265144550400,5.33255029296875,2.2891411781311035,0.2147030383348465,0.9361494183540344
1772526265154533400,5.342533447265625,2.2353408336639404,0.17418064177036285,0.9003639817237854
1772526265164516400,5.352516357421875,2.149794816970825,0.21209374070167542,0.8656657338142395
1772526265174498300,5.362498291015625,2.0567519664764404,0.32583972811698914,0.8349799513816833
1772526265184481300,5.372481201171875,1.9602442979812622,0.51009601354599,0.8138083219528198
1772526265194464500,5.382464599609375,1.8643372058868408,0.7296501994132996,0.7849228978157043
1772526265204446200,5.3924462890625,1.7778769731521606,0.9348313808441162,0.7560809850692749
1772526265214429400,5.402429443359375,1.7193241119384766,1.1103450059890747,0.7102575302124023
1772526265224411400,5.412411376953125,1.6962040662765503,1.2544264793395996,0.6515548229217529
1772526265234394400,5.422394287109375,1.693462610244751,1.381337285041809,0.5690175890922546
1772526265244377300,5.43237744140625,1.693562626838684,1.4709430932998657,0.46861931681632996
1772526265254359600,5.442359619140625,1.69257652759552,1.5342456102371216,0.3458001911640167
1772526265264342300,5.45234228515625,1.6920740604400635,1.5844594240188599,0.22576092183589935
1772526265274325200,5.4623251953125,1.6892285346984863,1.6181937456130981,0.09958460927009583
1772526265284307500,5.472307373046875,1.6814268827438354,1.6322507858276367,-0.018711498007178307
1772526265294290400,5.48229052734375,1.6573508977890015,1.6232717037200928,-0.131151482462883
1772526265304273400,5.4922734375,1.6070677042007446,1.6029279232025146,-0.24524801969528198
1772526265314255400,5.50225537109375,1.5250327587127686,1.5916709899902344,-0.36975452303886414
1772526265324238300,5.51223828125,1.4206435680389404,1.5965090990066528,-0.4870641827583313
1772526265334221300,5.52222119140625,1.30577552318573,1.6156628131866455,-0.5885369777679443
1772526265344203500,5.53220361328125,1.1894475221633911,1.6378440856933594,-0.6605567932128906
1772526265354186200,5.542186279296875,1.0622581243515015,1.625477910041809,-0.7226049900054932
1772526265364168400,5.55216845703125,0.9324285984039307,1.5857285261154175,-0.7689903974533081
1772526265374151400,5.5621513671875,0.812402606010437,1.5615919828414917,-0.7849816083908081
1772526265384134700,5.572134765625,0.7144890427589417,1.5791937112808228,-0.7612420916557312
1772526265394116400,5.582116455078125,0.6338605284690857,1.6486047506332397,-0.7100151181221008
1772526265404099600,5.592099609375,0.5711297392845154,1.7391539812088013,-0.6441801190376282
1772526265414082600,5.60208251953125,0.5282304286956787,1.820450782775879,-0.5706998109817505
1772526265424064500,5.612064453125,0.5078882575035095,1.8715994358062744,-0.4953324496746063
1772526265434047500,5.622047607421875,0.5091902613639832,1.8649522066116333,-0.41813594102859497
1772526265444030500,5.632030517578125,0.5222427248954773,1.8054594993591309,-0.3382589519023895
1772526265454012400,5.642012451171875,0.5419828295707703,1.730588674545288,-0.2449721395969391
1772526265463995400,5.651995361328125,0.5616405010223389,1.6467384099960327,-0.1493261754512787
1772526265473978600,5.661978515625,0.5761454105377197,1.5390046834945679,-0.05241747200489044
1772526265483960300,5.671960205078125,0.5795820355415344,1.3926180601119995,0.04069532826542854
1772526265493943600,5.681943603515625,0.575495183467865,1.2213507890701294,0.13273151218891144
1772526265503925200,5.69192529296875,0.5536555647850037,1.0559297800064087,0.21717563271522522
1772526265513908500,5.701908447265625,0.5067961812019348,0.9428383111953735,0.29331138730049133
1772526265523891500,5.711891357421875,0.435409814119339,0.880039632320404,0.34801363945007324
1772526265533873400,5.721873291015625,0.34201887249946594,0.8288310170173645,0.3809356391429901
1772526265543856400,5.7318564453125,0.22499147057533264,0.8016874194145203,0.3748123347759247
1772526265553839400,5.74183935546875,0.10084716230630875,0.7998194694519043,0.3156321048736572
1772526265563821300,5.7518212890625,-0.02067614533007145,0.7965273261070251,0.19260668754577637
1772526265573804300,5.76180419921875,-0.1299072951078415,0.8078316450119019,0.02342059463262558
1772526265583787500,5.77178759765625,-0.20437107980251312,0.8541796803474426,-0.16456221044063568
1772526265593769200,5.781769287109375,-0.2500549256801605,0.9301708340644836,-0.35786882042884827
1772526265603752400,5.79175244140625,-0.25780680775642395,1.0144360065460205,-0.5295496582984924
1772526265613734400,5.801734375,-0.23749248683452606,1.0902892351150513,-0.6698909997940063
1772526265623716900,5.811716796875,-0.19192399084568024,1.1327552795410156,-0.7692960500717163
1772526265633699800,5.821699951171875,-0.12418009340763092,1.1281025409698486,-0.8274845480918884
1772526265643681800,5.831681884765625,-0.04401849955320358,1.1026207208633423,-0.8503285050392151
1772526265653664800,5.841664794921875,0.040387194603681564,1.073805809020996,-0.8414228558540344
1772526265663648000,5.85164794921875,0.11972585320472717,1.0406219959259033,-0.8100257515907288
1772526265673629700,5.861629638671875,0.1979583352804184,0.9825035333633423,-0.7629082798957825
1772526265683613000,5.871613037109375,0.2748827636241913,0.8930059671401978,-0.7012391686439514
1772526265693596000,5.881595947265625,0.3471681475639343,0.7600758671760559,-0.6368891596794128
1772526265703577900,5.891577880859375,0.4058132767677307,0.5554288625717163,-0.5740241408348083
1772526265713560800,5.901560791015625,0.45475339889526367,0.27288079261779785,-0.5202988386154175
1772526265723543000,5.91154296875,0.48269006609916687,-0.022782012820243835,-0.47219768166542053
1772526265733526000,5.921526123046875,0.4902518689632416,-0.27652934193611145,-0.4231720566749573
1772526265743508700,5.9315087890625,0.49732670187950134,-0.44402557611465454,-0.36630070209503174
1772526265753491000,5.941490966796875,0.5051164627075195,-0.5244298577308655,-0.31698936223983765
1772526265763474000,5.951473876953125,0.5215275287628174,-0.5449156761169434,-0.272575706243515
1772526265773457000,5.961456787109375,0.5382692217826843,-0.5289515852928162,-0.24645303189754486
1772526265783438800,5.97143896484375,0.573267936706543,-0.49129194021224976,-0.23357683420181274
1772526265793422000,5.981422119140625,0.6074661016464233,-0.43426671624183655,-0.23428763449192047
1772526265803404800,5.99140478515625,0.6406318545341492,-0.3577863574028015,-0.24770794808864594
1772526265813387000,6.001386962890625,0.6662392020225525,-0.2654534876346588,-0.26906517148017883
1772526265823370000,6.011369873046875,0.6826900839805603,-0.19030073285102844,-0.2862103283405304
1772526265833352000,6.02135205078125,0.6930734515190125,-0.14364401996135712,-0.3035741150379181
1772526265843335000,6.0313349609375,0.7019383907318115,-0.13593249022960663,-0.31524261832237244
1772526265853318000,6.04131787109375,0.7139908075332642,-0.1734234094619751,-0.3098007142543793
1772526265863299800,6.0512998046875,0.732430636882782,-0.22408917546272278,-0.2829151451587677
1772526265873282800,6.06128271484375,0.7485515475273132,-0.27256378531455994,-0.22768355906009674
1772526265883266000,6.07126611328125,0.7690438032150269,-0.3171032965183258,-0.15093882381916046
1772526265893247700,6.081247802734375,0.787034273147583,-0.34625425934791565,-0.05599234253168106
1772526265903231000,6.09123095703125,0.808878481388092,-0.35954418778419495,0.04876279458403587
1772526265913214000,6.1012138671875,0.8400262594223022,-0.3643999397754669,0.15023642778396606
1772526265923196000,6.11119580078125,0.8693078756332397,-0.3823305070400238,0.24544048309326172
1772526265933179000,6.121178955078125,0.8951641917228699,-0.42514029145240784,0.32869622111320496
1772526265943160800,6.131160888671875,0.9007170796394348,-0.5079537034034729,0.4059089422225952
1772526265953143800,6.141143798828125,0.881650984287262,-0.603144109249115,0.48724454641342163
1772526265963126800,6.151126708984375,0.8473294377326965,-0.6643328070640564,0.5686661601066589
1772526265973108700,6.161108642578125,0.8109397292137146,-0.6958532333374023,0.6423949599266052
1772526265983091700,6.171091796875,0.7703140377998352,-0.7172159552574158,0.6995609998703003
1772526265993075000,6.181074951171875,0.7382665872573853,-0.7576081156730652,0.7437314391136169
1772526266003056600,6.191056640625,0.711026668548584,-0.8243261575698853,0.7717727422714233
1772526266013039900,6.201039794921875,0.6879527568817139,-0.9031834006309509,0.7984229922294617
1772526266023022800,6.21102294921875,0.6685646772384644,-0.9306769967079163,0.8456429243087769
1772526266033004800,6.2210048828125,0.648652970790863,-0.8692620992660522,0.9101526737213135
1772526266042987800,6.23098779296875,0.6168105006217957,-0.7557359933853149,0.9742730259895325
1772526266052970000,6.240969970703125,0.5725221037864685,-0.6726706624031067,1.001107096672058
1772526266062952700,6.25095263671875,0.5115034580230713,-0.6343346834182739,0.9603396654129028
1772526266072936000,6.26093603515625,0.4587806463241577,-0.6430988907814026,0.8618857860565186
1772526266082918000,6.27091796875,0.4234268069267273,-0.6756525039672852,0.7188336253166199
1772526266092900900,6.28090087890625,0.4107491075992584,-0.7135372757911682,0.5606793761253357
1772526266102883800,6.2908837890625,0.4117922782897949,-0.7482125163078308,0.40595537424087524
1772526266112866000,6.300865966796875,0.41430628299713135,-0.7623690962791443,0.26862573623657227
1772526266122849000,6.31084912109375,0.4213000237941742,-0.7255080342292786,0.15949605405330658
1772526266132831000,6.3208310546875,0.4349106252193451,-0.6300123929977417,0.08706127107143402
1772526266142814000,6.33081396484375,0.4454425573348999,-0.509343147277832,0.03139117360115051
1772526266152797000,6.340796875,0.4606180489063263,-0.3691290020942688,-0.012942733243107796
1772526266162779000,6.35077880859375,0.4755200445652008,-0.21588408946990967,-0.043904103338718414
1772526266172761900,6.360761962890625,0.488170325756073,-0.036736443638801575,-0.05957414582371712
1772526266182745000,6.3707451171875,0.4924156367778778,0.1551189124584198,-0.051853422075510025
1772526266192726800,6.380726806640625,0.49092984199523926,0.36141321063041687,-0.02143586054444313
1772526266202710000,6.3907099609375,0.47483134269714355,0.594213604927063,0.03557658568024635
1772526266212693000,6.40069287109375,0.46971940994262695,0.8789840936660767,0.12213731557130814
1772526266222675000,6.410675048828125,0.4723604619503021,1.2302093505859375,0.22872979938983917
1772526266232658000,6.420657958984375,0.48968377709388733,1.5767611265182495,0.3313952088356018
1772526266242640000,6.430639892578125,0.5265718102455139,1.8599733114242554,0.40836307406425476
1772526266252622800,6.440622802734375,0.5742613077163696,2.0485103130340576,0.4322071671485901
1772526266262605800,6.450605712890625,0.639090895652771,2.1200058460235596,0.3930865228176117
1772526266272587800,6.460587890625,0.7117089033126831,2.1028201580047607,0.2897162139415741
1772526266282570800,6.47057080078125,0.8037886619567871,2.006894111633301,0.12604278326034546
1772526266292554000,6.480553955078125,0.9002688527107239,1.8338351249694824,-0.07920970767736435
1772526266302535700,6.49053564453125,1.0002697706222534,1.6135088205337524,-0.2990589439868927
1772526266312519000,6.500518798828125,1.087872862815857,1.3336806297302246,-0.5009145736694336
1772526266322502000,6.510501953125,1.1645877361297607,1.0017361640930176,-0.6391915082931519
1772526266332483800,6.52048388671875,1.201582431793213,0.6512280106544495,-0.6928137540817261
1772526266342466800,6.530466796875,1.2049835920333862,0.32878372073173523,-0.6498114466667175
1772526266352449000,6.540448974609375,1.163169264793396,0.08405441045761108,-0.5109387636184692
1772526266362431700,6.550431640625,1.0786656141281128,-0.09747079014778137,-0.285662978887558
1772526266372414700,6.560414794921875,0.9515832662582397,-0.2317764014005661,-0.007886482402682304
1772526266382397000,6.57039697265625,0.8021368980407715,-0.2857380509376526,0.2982013523578644
1772526266392379600,6.580379638671875,0.6589843034744263,-0.2697204649448395,0.6160291433334351
1772526266402363000,6.59036279296875,0.5547919869422913,-0.21506571769714355,0.915697455406189
1772526266412344800,6.6003447265625,0.4995705783367157,-0.1642555296421051,1.1758525371551514
1772526266422327800,6.610327880859375,0.4897822439670563,-0.12394684553146362,1.3825243711471558
1772526266432309800,6.620309814453125,0.5036306381225586,-0.1102728545665741,1.5251654386520386
1772526266442293000,6.63029296875,0.5214905142784119,-0.1124849021434784,1.6048837900161743
1772526266452276000,6.64027587890625,0.530083179473877,-0.10748215019702911,1.6189026832580566
1772526266462258000,6.6502578125,0.5322094559669495,-0.08149454742670059,1.568786859512329
1772526266472241000,6.660240966796875,0.5156147480010986,-0.02691439539194107,1.4677119255065918
1772526266482223900,6.670223876953125,0.492179274559021,0.05137595534324646,1.3226127624511719
1772526266492205800,6.680205810546875,0.4576881527900696,0.1390637308359146,1.1373454332351685
1772526266502188800,6.690188720703125,0.4057735204696655,0.23766392469406128,0.9191733598709106
1772526266512172000,6.700172119140625,0.3515497148036957,0.32446086406707764,0.6826601624488831
1772526266522153700,6.71015380859375,0.2890475392341614,0.37796714901924133,0.44221261143684387
1772526266532137000,6.720136962890625,0.21405237913131714,0.38696998357772827,0.19482065737247467
1772526266542119000,6.730118896484375,0.13826128840446472,0.34822678565979004,-0.03648030757904053
1772526266552102000,6.740101806640625,0.06058407574892044,0.265323668718338,-0.25118276476860046
1772526266562084900,6.7500849609375,-0.007173836696892977,0.15974517166614532,-0.42524808645248413
1772526266572066800,6.76006689453125,-0.06907928735017776,0.06550522893667221,-0.5618866086006165
1772526266582049800,6.7700498046875,-0.12408047914505005,0.0022892612032592297,-0.6472026109695435
1772526266592033000,6.780032958984375,-0.17626114189624786,-0.017044221982359886,-0.6758321523666382
1772526266602014700,6.7900146484375,-0.22694048285484314,-0.007525056600570679,-0.65699303150177
1772526266611998000,6.799998046875,-0.2780774235725403,0.010522653348743916,-0.5928947329521179
1772526266621980700,6.809980712890625,-0.3182627558708191,0.06236382573843002,-0.4888031482696533
1772526266631963600,6.819963623046875,-0.3371048867702484,0.14170685410499573,-0.3564877212047577
1772526266641947000,6.82994677734375,-0.3615776300430298,0.19870203733444214,-0.23917098343372345
1772526266651928600,6.839928466796875,-0.39351746439933777,0.1996450573205948,-0.1685815006494522
1772526266661911800,6.849911865234375,-0.447451114654541,0.1739979237318039,-0.16346417367458344
1772526266671894800,6.859894775390625,-0.5194512605667114,0.08071378618478775,-0.23507817089557648
1772526266681876700,6.869876708984375,-0.6120941042900085,-0.09392882138490677,-0.37358200550079346
1772526266691859700,6.879859619140625,-0.7155262231826782,-0.3306103050708771,-0.5550583600997925
1772526266701842700,6.8898427734375,-0.8271805047988892,-0.5519672632217407,-0.7509474754333496
1772526266711824600,6.89982470703125,-0.9356158971786499,-0.6897839903831482,-0.9170419573783875
1772526266721807600,6.9098076171875,-1.024931788444519,-0.7064053416252136,-1.0258187055587769
1772526266731789800,6.919789794921875,-1.081335425376892,-0.6385091543197632,-1.0597434043884277
1772526266741772500,6.9297724609375,-1.0783026218414307,-0.5321800708770752,-1.0078479051589966
1772526266751755800,6.939755859375,-1.0047426223754883,-0.3904748857021332,-0.8654409646987915
1772526266761737700,6.94973779296875,-0.8652594685554504,-0.21003244817256927,-0.6346890330314636
1772526266771720700,6.959720703125,-0.6903744339942932,0.016105348244309425,-0.34868761897087097
1772526266781703700,6.96970361328125,-0.5013551712036133,0.2602141499519348,-0.03438122197985649
1772526266791686000,6.979685791015625,-0.339203804731369,0.48066583275794983,0.2665139138698578
1772526266801668600,6.989668701171875,-0.22273004055023193,0.613849937915802,0.5121215581893921
1772526266811650800,6.99965087890625,-0.13356421887874603,0.618474006652832,0.6888936758041382
1772526266821633800,7.0096337890625,-0.05996223911643028,0.5395035743713379,0.805496871471405
1772526266831616800,7.01961669921875,0.0060362182557582855,0.4205790162086487,0.8708279132843018
1772526266841598700,7.0295986328125,0.049915894865989685,0.27871307730674744,0.8872696757316589
1772526266851581700,7.039581787109375,0.07130027562379837,0.11524584889411926,0.8595008850097656
1772526266861564700,7.049564697265625,0.07048426568508148,-0.06292060017585754,0.7907777428627014
1772526266871546600,7.059546630859375,0.0393654964864254,-0.225767582654953,0.6857320070266724
1772526266881529900,7.06952978515625,-0.030943797901272774,-0.3300831615924835,0.5665231347084045
1772526266891511600,7.079511474609375,-0.11353268474340439,-0.3560559153556824,0.44925692677497864
1772526266901494800,7.089494873046875,-0.20853327214717865,-0.30862993001937866,0.3462551236152649
1772526266911477800,7.099477783203125,-0.30615702271461487,-0.21785344183444977,0.25695693492889404
1772526266921459700,7.109459716796875,-0.3984142541885376,-0.10409276187419891,0.17121033370494843
1772526266931442700,7.119442626953125,-0.4807911515235901,-0.004713713191449642,0.08305971324443817
1772526266941426000,7.129426025390625,-0.5394175052642822,0.08206085115671158,-0.012139389291405678
1772526266951407600,7.13940771484375,-0.5703128576278687,0.17596471309661865,-0.11334696412086487
1772526266961390800,7.149390869140625,-0.5774266719818115,0.29223179817199707,-0.21988995373249054
1772526266971373800,7.159373779296875,-0.5666313171386719,0.42787590622901917,-0.32577991485595703
1772526266981355800,7.169355712890625,-0.5277674198150635,0.5627930164337158,-0.42459654808044434
1772526266991338800,7.1793388671875,-0.47012996673583984,0.6593227386474609,-0.5128512978553772
1772526267001321000,7.189321044921875,-0.3926999866962433,0.7011885046958923,-0.5867504477500916
1772526267011303700,7.1993037109375,-0.30626362562179565,0.6684044599533081,-0.6423119902610779
1772526267021286700,7.20928662109375,-0.2137443721294403,0.5940645933151245,-0.6775097250938416
1772526267031268900,7.219268798828125,-0.11233732104301453,0.49709150195121765,-0.6779369115829468
1772526267041251600,7.22925146484375,-0.0131608285009861,0.37840139865875244,-0.649442195892334
1772526267051234800,7.23923486328125,0.08078670501708984,0.2554464638233185,-0.5917237401008606
1772526267061216800,7.249216796875,0.16605651378631592,0.14006555080413818,-0.5020456910133362
1772526267071199700,7.25919970703125,0.2437201589345932,0.04379680007696152,-0.3841899037361145
1772526267081181700,7.269181640625,0.30226069688796997,-0.016566628590226173,-0.24654337763786316
1772526267091165000,7.2791650390625,0.34510084986686707,-0.05431880056858063,-0.10850774496793747
1772526267101147600,7.289147705078125,0.36827751994132996,-0.10484562069177628,0.003390294499695301
1772526267111129900,7.2991298828125,0.38810035586357117,-0.16752594709396362,0.0831628292798996
1772526267121112800,7.30911279296875,0.40282925963401794,-0.23773452639579773,0.12252100557088852
1772526267131095600,7.319095458984375,0.411785751581192,-0.30351942777633667,0.1396552473306656
1772526267141077800,7.329077880859375,0.4257417619228363,-0.34473586082458496,0.14362365007400513
1772526267151060700,7.339060791015625,0.43136051297187805,-0.344841867685318,0.15480493009090424
1772526267161042700,7.349042724609375,0.44087058305740356,-0.2800848186016083,0.19932478666305542
1772526267171025700,7.359025634765625,0.4442804753780365,-0.11070617288351059,0.26406970620155334
1772526267181009000,7.3690087890625,0.4655214250087738,0.1571410596370697,0.3363233506679535
1772526267190990600,7.378990478515625,0.49631261825561523,0.36415815353393555,0.3764835298061371
1772526267200973800,7.388973876953125,0.5130993723869324,0.37274742126464844,0.3325482904911041
1772526267210956800,7.398956787109375,0.5329380035400391,0.290142297744751,0.2254551351070404
1772526267220938800,7.408938720703125,0.5600232481956482,0.26977863907814026,0.11145681887865067
1772526267230921700,7.418921630859375,0.588047981262207,0.32132333517074585,0.018907446414232254
1772526267240904000,7.428904052734375,0.5873032808303833,0.36540713906288147,-0.06086476147174835
1772526267250886700,7.43888671875,0.5473441481590271,0.3830958604812622,-0.13306118547916412
1772526267260869600,7.44886962890625,0.5065274238586426,0.4377131164073944,-0.1876232624053955
1772526267270851800,7.458851806640625,0.4776308238506317,0.5702980756759644,-0.22937177121639252
1772526267280834600,7.46883447265625,0.4716069996356964,0.769599974155426,-0.26233187317848206
1772526267290817800,7.47881787109375,0.4836956262588501,0.9926447868347168,-0.30378448963165283
1772526267300799700,7.4887998046875,0.49995550513267517,1.1629846096038818,-0.37451207637786865
1772526267310782700,7.49878271484375,0.5234181880950928,1.2043139934539795,-0.48226702213287354
1772526267320764700,7.5087646484375,0.5551121830940247,1.1038755178451538,-0.6081852316856384
1772526267330748000,7.518747802734375,0.6160994172096252,0.9349561333656311,-0.712365448474884
1772526267340730600,7.528730712890625,0.6994660496711731,0.8046330809593201,-0.7564184069633484
1772526267350712800,7.538712890625,0.7999327778816223,0.7328851222991943,-0.7264738082885742
1772526267360695800,7.54869580078125,0.9062904119491577,0.6764110922813416,-0.6431764960289001
1772526267370678800,7.5586787109375,1.0082225799560547,0.5948382019996643,-0.5299428701400757
1772526267380660700,7.56866064453125,1.1089471578598022,0.49338456988334656,-0.40102842450141907
1772526267390643700,7.578643798828125,1.1976886987686157,0.3624100387096405,-0.28924861550331116
1772526267400625700,7.588625732421875,1.2654718160629272,0.17279218137264252,-0.2077975869178772
1772526267410609000,7.59860888671875,1.2933697700500488,-0.07561415433883667,-0.1789691299200058
1772526267420591900,7.608591796875,1.2752375602722168,-0.3440217971801758,-0.18550050258636475
1772526267430573800,7.61857373046875,1.1961547136306763,-0.5868147611618042,-0.2077924907207489
1772526267440556800,7.628556884765625,1.0712822675704956,-0.8004056811332703,-0.22967854142189026
1772526267450539800,7.638539794921875,0.9106042385101318,-0.9303181171417236,-0.22682708501815796
1772526267460521700,7.648521728515625,0.7366101741790771,-0.9744100570678711,-0.18793781101703644
1772526267470504700,7.658504638671875,0.5772396922111511,-0.9149033427238464,-0.10510897636413574
1772526267480486700,7.668486572265625,0.4394121468067169,-0.7457424998283386,0.005971962586045265
1772526267490469600,7.6784697265625,0.3403095602989197,-0.49243438243865967,0.12708987295627594
1772526267500452900,7.688452880859375,0.2798220217227936,-0.18795466423034668,0.23889592289924622
1772526267510434800,7.698434814453125,0.2590309977531433,0.11832856386899948,0.3107312023639679
1772526267520417800,7.708417724609375,0.2746867537498474,0.38191112875938416,0.33123213052749634
1772526267530400800,7.71840087890625,0.31521713733673096,0.5849345326423645,0.2879866659641266
1772526267540383000,7.728383056640625,0.3699837028980255,0.7351264953613281,0.20637382566928864
1772526267550365700,7.73836572265625,0.41893818974494934,0.8265815377235413,0.09627369046211243
1772526267560348000,7.748347900390625,0.46242663264274597,0.8625376224517822,-0.020821597427129745
1772526267570331000,7.758330810546875,0.4953917860984802,0.8528540730476379,-0.1213117241859436
1772526267580313600,7.768313720703125,0.5151283144950867,0.8050965070724487,-0.2040247768163681
1772526267590295800,7.7782958984375,0.5191441178321838,0.7228855490684509,-0.26568812131881714
1772526267600278800,7.78827880859375,0.5142791271209717,0.6178062558174133,-0.29875990748405457
1772526267610261800,7.79826171875,0.5093991160392761,0.49913471937179565,-0.2929670214653015
1772526267620243200,7.8082431640625,0.4958343207836151,0.3758997917175293,-0.2598801255226135
1772526267630226400,7.818226318359375,0.47852590680122375,0.27513137459754944,-0.1952180564403534
1772526267640208400,7.82820849609375,0.45642992854118347,0.17652170360088348,-0.10892870277166367
1772526267650191400,7.83819140625,0.4328457713127136,0.07102643698453903,-0.010948080569505692
1772526267660174300,7.84817431640625,0.4138050675392151,-0.05017709732055664,0.11074818670749664
1772526267670156500,7.858156494140625,0.4015233516693115,-0.1774359792470932,0.23939192295074463
1772526267680139300,7.86813916015625,0.39613717794418335,-0.3130020797252655,0.37057700753211975
1772526267690122200,7.878122314453125,0.4067285656929016,-0.44187670946121216,0.49907025694847107
1772526267700104400,7.8881044921875,0.43417155742645264,-0.5347290635108948,0.6121990084648132
1772526267710087400,7.89808740234375,0.4545559287071228,-0.6065539717674255,0.6964358687400818
1772526267720069400,7.9080693359375,0.46130403876304626,-0.6425183415412903,0.7450908422470093
1772526267730052400,7.91805224609375,0.45347675681114197,-0.612718939781189,0.7659007906913757
1772526267740035300,7.928035400390625,0.43645912408828735,-0.4819498658180237,0.7646024823188782
1772526267750017300,7.938017333984375,0.40349557995796204,-0.3443800210952759,0.7251392006874084
1772526267760000500,7.94800048828125,0.3395863175392151,-0.26755261421203613,0.614331841468811
1772526267769983200,7.957983154296875,0.23663729429244995,-0.251125693321228,0.4350060522556305
1772526267779965400,7.96796533203125,0.08432594686746597,-0.26004019379615784,0.17622701823711395
1772526267789948400,7.977948486328125,-0.10642828792333603,-0.28456205129623413,-0.13871628046035767
1772526267799930400,7.987930419921875,-0.325823038816452,-0.3558827042579651,-0.4980138838291168
1772526267809913300,7.997913330078125,-0.5612283945083618,-0.4625686705112457,-0.8673432469367981
1772526267819896600,8.007896484375,-0.7519481778144836,-0.5075259208679199,-1.1942598819732666
1772526267829878300,8.017878173828125,-0.8813567161560059,-0.469145268201828,-1.4480159282684326
1772526267839861500,8.027861572265625,-0.938106894493103,-0.38528183102607727,-1.599288821220398
1772526267849844500,8.037844482421875,-0.8987498879432678,-0.2467881143093109,-1.6253036260604858
1772526267859826400,8.047826416015624,-0.7745099663734436,-0.048066385090351105,-1.538575291633606
1772526267869809400,8.057809326171874,-0.5881690979003906,0.1594790667295456,-1.3651942014694214
1772526267879791400,8.067791259765626,-0.3651144504547119,0.35527142882347107,-1.126025676727295
1772526267889774300,8.0777744140625,-0.12965558469295502,0.5154613256454468,-0.8307506442070007
1772526267899757300,8.08775732421875,0.10285959392786026,0.6447281241416931,-0.4826192259788513
1772526267909739300,8.0977392578125,0.2978226840496063,0.7232391834259033,-0.12522993981838226
1772526267919722200,8.10772216796875,0.4295792281627655,0.716350793838501,0.2050618976354599
1772526267929705500,8.11770556640625,0.5111957788467407,0.6430198550224304,0.4877527356147766
1772526267939687400,8.1276875,0.57222580909729,0.5165579319000244,0.7019701600074768
1772526267949670400,8.13767041015625,0.6364994049072266,0.3420095443725586,0.8466945886611938
1772526267959652400,8.14765234375,0.6888595819473267,0.13038212060928345,0.9116268754005432
1772526267969635600,8.157635498046876,0.7103323936462402,-0.1156926304101944,0.9067461490631104
1772526267979618300,8.167618408203126,0.6902404427528381,-0.4136970043182373,0.8355726599693298
1772526267989600500,8.1776005859375,0.6245413422584534,-0.7273241877555847,0.7197331190109253
1772526267999583500,8.18758349609375,0.5157934427261353,-0.979320228099823,0.5836994647979736
1772526268009566200,8.197566162109375,0.39144831895828247,-1.140846848487854,0.44242405891418457
1772526268019548400,8.20754833984375,0.27966782450675964,-1.2405544519424438,0.31862562894821167
1772526268029531400,8.217531494140625,0.17159436643123627,-1.2748212814331055,0.22996047139167786
1772526268039513300,8.227513427734374,0.07624208182096481,-1.2370659112930298,0.18368181586265564
1772526268049496300,8.237496337890626,0.00988702941685915,-1.1007994413375854,0.18205328285694122
1772526268059479600,8.2474794921875,-0.010723444633185863,-0.8802169561386108,0.21854285895824432
1772526268069461200,8.257461181640625,0.0041511086747050285,-0.6047624945640564,0.27829405665397644
1772526268079444500,8.267444580078125,0.06585444509983063,-0.3000413179397583,0.3439497947692871
1772526268089427500,8.277427490234375,0.15995776653289795,-0.00802732165902853,0.4041955769062042
1772526268099409400,8.287409423828125,0.2718107998371124,0.23669114708900452,0.438401460647583
1772526268109392400,8.297392333984375,0.3913406729698181,0.3824012279510498,0.4408257305622101
1772526268119374300,8.307374267578124,0.49726584553718567,0.4292064309120178,0.4300241470336914
1772526268129357300,8.317357421875,0.5908240079879761,0.43479666113853455,0.4099462926387787
1772526268139340300,8.32734033203125,0.6650082468986511,0.4249435067176819,0.38942956924438477
1772526268149322200,8.337322265625,0.7237719297409058,0.3943735957145691,0.37309932708740234
1772526268159305200,8.34730517578125,0.7821968197822571,0.3485628068447113,0.36038362979888916
1772526268169287400,8.357287353515625,0.8433036208152771,0.2915583550930023,0.35896363854408264
1772526268179270100,8.367270263671875,0.8960000872612,0.23436222970485687,0.35823601484298706
1772526268189253400,8.37725341796875,0.9403864741325378,0.19216950237751007,0.36540210247039795
1772526268199235300,8.3872353515625,0.9823084473609924,0.17575395107269287,0.3881091773509979
1772526268209218300,8.39721826171875,1.0023689270019531,0.1709086000919342,0.41886788606643677
1772526268219201300,8.407201171875,1.0143071413040161,0.1794106513261795,0.48669371008872986
1772526268229183500,8.41718359375,1.040324091911316,0.2359202653169632,0.5913791060447693
1772526268239166200,8.427166259765626,1.0570307970046997,0.3622193932533264,0.7363750338554382
1772526268249148400,8.4371484375,1.0425877571105957,0.5139234662055969,0.8847578167915344
1772526268259131400,8.44713134765625,0.9921051263809204,0.6566217541694641,1.0011824369430542
1772526268269114400,8.4571142578125,0.9154657125473022,0.8027920126914978,1.0669187307357788
1772526268279096300,8.467096435546875,0.8653910756111145,0.9729385375976562,1.0844155550003052
1772526268289079600,8.47707958984375,0.858696460723877,1.2025551795959473,1.0352479219436646
1772526268299062500,8.4870625,0.9100316762924194,1.3939454555511475,0.9042028188705444
1772526268309044500,8.49704443359375,0.9900884032249451,1.4093347787857056,0.6733373999595642
1772526268319027500,8.50702734375,1.0624420642852783,1.2026088237762451,0.35841870307922363
1772526268329009400,8.517009521484376,1.1031111478805542,0.9089069366455078,0.013623489998281002
1772526268338992400,8.526992431640625,1.0929665565490723,0.6665053367614746,-0.3087383806705475
1772526268348975400,8.536975341796875,1.0160807371139526,0.4492241442203522,-0.5824394226074219
1772526268358957300,8.546957275390625,0.8624415993690491,0.20144806802272797,-0.806016743183136
1772526268368940300,8.556940185546875,0.6682966351509094,-0.0476195365190506,-0.9759567379951477
1772526268378923500,8.566923583984375,0.47862693667411804,-0.21111318469047546,-1.068182349205017
1772526268388905200,8.5769052734375,0.3315570652484894,-0.2568865120410919,-1.087027668952942
1772526268398888400,8.586888427734374,0.23213592171669006,-0.20960906147956848,-1.0569347143173218
1772526268408870400,8.596870361328126,0.20238015055656433,-0.12766572833061218,-0.9926343560218811
1772526268418853400,8.606853271484376,0.23404718935489655,-0.004028607159852982,-0.8796403408050537
1772526268428836400,8.61683642578125,0.32438427209854126,0.19432255625724792,-0.7095322608947754
1772526268438818600,8.626818603515625,0.4518190920352936,0.45995837450027466,-0.4968864917755127
1772526268448801300,8.63680126953125,0.5996559262275696,0.7567785978317261,-0.25145357847213745
1772526268458783500,8.646783447265625,0.735692024230957,1.045150876045227,-0.0161988977342844
1772526268468766500,8.656766357421875,0.832089364528656,1.247037649154663,0.17191827297210693
1772526268478749200,8.666749267578124,0.8918992877006531,1.3358882665634155,0.2959020733833313
1772526268488731400,8.6767314453125,0.9135563969612122,1.3027013540267944,0.34256836771965027
1772526268498714400,8.68671435546875,0.888752281665802,1.136646032333374,0.3151668310165405
1772526268508697300,8.696697265625,0.8349601030349731,0.8381576538085938,0.2247048318386078
1772526268518679300,8.70667919921875,0.7563616037368774,0.43345823884010315,0.08817436546087265
1772526268528662500,8.71666259765625,0.6626348495483398,-0.026355968788266182,-0.0856458991765976
1772526268538644200,8.726644287109375,0.5600892901420593,-0.5075831413269043,-0.29111620783805847
1772526268548627500,8.73662744140625,0.4389580488204956,-0.9701758027076721,-0.5207949876785278
1772526268558610400,8.7466103515625,0.3240891098976135,-1.326486349105835,-0.7282131910324097
1772526268568592400,8.75659228515625,0.2523171603679657,-1.5816068649291992,-0.870833158493042
1772526268578575400,8.766575439453124,0.23588906228542328,-1.6935076713562012,-0.9015707969665527
1772526268588558300,8.776558349609376,0.25301238894462585,-1.5750443935394287,-0.8244081139564514
1772526268598540300,8.786540283203125,0.30518534779548645,-1.2540839910507202,-0.6656376123428345
1772526268608523300,8.796523193359375,0.37167248129844666,-0.8877460956573486,-0.46159449219703674
1772526268618505200,8.806505126953125,0.42302924394607544,-0.611442506313324,-0.2589495778083801
1772526268628488200,8.81648828125,0.4738410413265228,-0.3932683765888214,-0.06966858357191086
1772526268638471400,8.826471435546875,0.5397880673408508,-0.17344965040683746,0.10993775725364685
1772526268648453000,8.836453125,0.6175113320350647,0.056272756308317184,0.25765129923820496
1772526268658436400,8.846436279296874,0.690147340297699,0.3098565638065338,0.35957103967666626
1772526268668418000,8.85641796875,0.7762715220451355,0.5743654370307922,0.4144747853279114
1772526268678401300,8.8664013671875,0.8672522306442261,0.8151026368141174,0.429894357919693
1772526268688384300,8.87638427734375,0.9597603678703308,1.009763240814209,0.395151823759079
1772526268698366200,8.8863662109375,1.0531114339828491,1.1430299282073975,0.31559187173843384
1772526268708349200,8.89634912109375,1.1320565938949585,1.186608076095581,0.21219410002231598
1772526268718332400,8.90633251953125,1.1706644296646118,1.135217308998108,0.08413303643465042
1772526268728314000,8.916314208984375,1.180792212486267,1.0393251180648804,-0.04844311624765396
1772526268738297300,8.92629736328125,1.173296332359314,0.9337599277496338,-0.15553906559944153
1772526268748279300,8.936279296875,1.1331236362457275,0.808301568031311,-0.25878581404685974
1772526268758262300,8.94626220703125,1.0698909759521484,0.6745303273200989,-0.35022804141044617
1772526268768245200,8.956245361328126,1.0205894708633423,0.5678778886795044,-0.4123052656650543
1772526268778227500,8.9662275390625,1.0018415451049805,0.49463656544685364,-0.43054085969924927
1772526268788210200,8.976210205078125,1.0006955862045288,0.43197640776634216,-0.4163461923599243
1772526268798192400,8.9861923828125,1.0158636569976807,0.35171136260032654,-0.355409175157547
1772526268808175400,8.99617529296875,1.0446854829788208,0.29622334241867065,-0.2507517337799072
1772526268818158000,9.006157958984375,1.0672498941421509,0.27990221977233887,-0.11091464012861252
1772526268828140300,9.016140380859374,1.0500892400741577,0.3199779987335205,0.036341387778520584
1772526268838123300,9.026123291015624,0.9973331689834595,0.36927998065948486,0.17023862898349762
1772526268848106200,9.036106201171876,0.925868570804596,0.27786484360694885,0.2665584981441498
1772526268858088200,9.046088134765625,0.8293048143386841,0.011088591068983078,0.31446972489356995
1772526268868071400,9.056071533203125,0.7104460597038269,-0.31289321184158325,0.31776297092437744
1772526268878053000,9.06605322265625,0.6109094023704529,-0.5021748542785645,0.3044610619544983
1772526268888036400,9.076036376953125,0.5246824026107788,-0.4699500799179077,0.2679954767227173
1772526268898019300,9.086019287109375,0.43876248598098755,-0.22443059086799622,0.18769730627536774
1772526268908001300,9.096001220703124,0.40447455644607544,0.13520507514476776,0.06965455412864685
1772526268917984300,9.105984375,0.42795243859291077,0.5275206565856934,-0.07664140313863754
1772526268927967200,9.11596728515625,0.5008138418197632,0.8634917140007019,-0.24134060740470886
1772526268937949200,9.12594921875,0.5777366757392883,1.0997273921966553,-0.38355541229248047
1772526268947932200,9.13593212890625,0.5765630006790161,1.2300488948822021,-0.43300336599349976
1772526268957914400,9.145914306640625,0.5431349277496338,1.2720386981964111,-0.45739829540252686
1772526268967897000,9.15589697265625,0.570763111114502,1.3886334896087646,-0.4230336546897888
1772526268977880300,9.16588037109375,0.6261661052703857,1.5949254035949707,-0.2815505564212799
1772526268987862300,9.1758623046875,0.6623568534851074,1.7801657915115356,-0.06806650012731552
