time,seconds_elapsed,z,y,x
1772526363757372200,0.0883720703125,-0.6058896718859672,-0.4095765339300036,-0.5075963978510349
1772526363767355100,0.098355224609375,-0.5782400329381228,-0.46685061902999875,-0.5595179429419338
1772526363777337000,0.108337158203125,-0.5473083035796881,-0.44476855108141894,-0.5986109861198813
1772526363787319300,0.1183193359375,-0.555201102656126,-0.38759471148550506,-0.5861955950524658
1772526363797301000,0.128301025390625,-0.6220096165597438,-0.3522992339596152,-0.5540424341402947
1772526363807284200,0.1382841796875,-0.6467962672919034,-0.29484657742232084,-0.503971631482616
1772526363817266200,0.14826611328125,-0.6168687465399504,-0.22242723789960145,-0.5180079748153686
1772526363827248000,0.158248046875,-0.5612789612650871,-0.16665420501232145,-0.5475397742480039
1772526363837231000,0.168231201171875,-0.5648439602702856,-0.17078619025051592,-0.5889454052172601
1772526363847213000,0.178213134765625,-0.5518699124068022,-0.2240513319700956,-0.6098339525323361
1772526363857195300,0.1881953125,-0.4980903914242983,-0.2722039529815316,-0.5989031739994883
1772526363867178200,0.19817822265625,-0.38528935715258117,-0.24582798723131416,-0.5760031407315284
1772526363877160200,0.20816015625,-0.2540378894329071,-0.19654519314616917,-0.5560728439893573
1772526363887142100,0.21814208984375,-0.11797872917056083,-0.15123510208427904,-0.5275427689451724
1772526363897125000,0.228125,0.01645604476034641,-0.13773381547629832,-0.48786491161659357
1772526363907107000,0.238107177734375,0.16266075146198272,-0.11663315978050232,-0.4750383093997836
1772526363917089300,0.24808935546875,0.2596411162674427,-0.13999737649410962,-0.4979419228643179
1772526363927071000,0.258071044921875,0.3189005299657583,-0.15776216576546429,-0.5272928127720952
1772526363937054200,0.26805419921875,0.3911217165678739,-0.18272388080358504,-0.5285673627525568
1772526363947036000,0.278035888671875,0.4831044192165136,-0.22144816373437642,-0.4933587597925216
1772526363957018000,0.28801806640625,0.5845616371750831,-0.22313392486423253,-0.40236470285505055
1772526363967001000,0.2980009765625,0.6198866330564021,-0.11358341682106256,-0.3868744343869388
1772526363976983000,0.307983154296875,0.6130284377247095,-0.15649813717901706,-0.216328117306903
1772526363986965200,0.31796533203125,0.5533563515722751,-0.16659604508429765,-0.10726941136866808
1772526363996948000,0.327947998046875,0.4751975916147232,-0.11114829862862825,-0.08641367034465074
1772526364006930200,0.33793017578125,0.38350481182336804,-0.09802402863949537,-0.11233933504410087
1772526364016912100,0.347912109375,0.3097463326513767,-0.10760463467240333,-0.09830459914654492
1772526364026894000,0.35789404296875,0.2570809103906154,-0.10512129342406988,-0.14132789444550872
1772526364036877000,0.367876953125,0.21984511245191096,-0.1382642690911889,-0.14081227307356894
1772526364046859000,0.37785888671875,0.21470774956345556,-0.1361956461235881,-0.10858809275180101
1772526364056841200,0.38784130859375,0.23073358621299264,-0.13524872066229582,-0.10786328560858964
1772526364066824200,0.39782421875,0.27864216933548447,-0.13754647621065377,-0.1358162914171815
1772526364076806100,0.40780615234375,0.2698153042793274,-0.15821195535957813,-0.1963314042650163
1772526364086788000,0.4177880859375,0.2945692217856645,-0.17951982406526804,-0.2879452005360275
1772526364096771000,0.42777099609375,0.33826574017107486,-0.20873452037274837,-0.36642025990113614
1772526364106753000,0.4377529296875,0.3502233044683933,-0.24237930808216332,-0.39000104197487234
1772526364116734700,0.447734619140625,0.31853929543793197,-0.29960546238720415,-0.3200421012163162
1772526364126716700,0.457716552734375,0.2876712789654732,-0.321122297668457,-0.21634886783398685
1772526364136699600,0.46769970703125,0.26526304780244825,-0.30986411381214857,-0.12197474000416696
1772526364146681600,0.477681640625,0.2387520574957132,-0.25115152034163474,-0.05613543645888567
1772526364156663600,0.48766357421875,0.2071826147556305,-0.14883710103183984,-0.042464930763840676
1772526364166646800,0.497646728515625,0.18662790250480174,-0.11218027202486991,-0.036598961339890955
1772526364176628500,0.50762841796875,0.2266091997593641,-0.14788520713448525,-0.018395415325090286
1772526364186610700,0.517610595703125,0.3111982850253582,-0.18333412165641783,0.012635244363173842
1772526364196593700,0.52759375,0.3986217169344425,-0.21547698037028312,0.07107523143738508
1772526364206575600,0.53757568359375,0.44269466741681096,-0.24125936414152382,0.12445786205679177
1772526364216557800,0.547557861328125,0.353843833053112,-0.22592414010465145,0.1361965959716588
1772526364226539500,0.55753955078125,0.17950550327897072,-0.13972469703257084,0.11446312226504086
1772526364236522800,0.567522705078125,0.0069815294504165645,-0.06842793179899453,0.03481039742268622
1772526364246504400,0.57750439453125,-0.09604980595707893,-0.025042379058897495,-0.04245981619730591
1772526364256486700,0.587486572265625,-0.11715630687177181,-0.011322481264173984,-0.012583660306409
1772526364266469600,0.5974697265625,-0.14854630139172076,0.01779635345339775,0.07750161122307181
1772526364276451600,0.60745166015625,-0.26286300092339515,0.038160511568188664,0.13084800148531794
1772526364286433800,0.617433837890625,-0.5129290641158819,0.03580313478708267,0.06403408075422048
1772526364296416800,0.627416748046875,-0.6855360400527716,0.15306728594750166,-0.013217976154573262
1772526364306398700,0.637398681640625,-0.6984001978009938,0.3641895782396197,-0.10027352459933608
1772526364316380700,0.647380615234375,-0.6164899763554335,0.5531561528250575,-0.12662271194048225
1772526364326362600,0.657362548828125,-0.45440673252046104,0.6664850103631615,-0.0616653423288837
1772526364336345600,0.667345703125,-0.3200058608591556,0.6866302650302648,0.006393975353427231
1772526364346327600,0.67732763671875,-0.19616437713503837,0.6441445837393402,0.02477408351153135
1772526364356309800,0.687309814453125,-0.04547755658328533,0.6033706748023628,-0.04193739975839853
1772526364366292700,0.697292724609375,0.13505144452452658,0.5711673180729151,-0.12779266903530806
1772526364376274700,0.707274658203125,0.24401100093722342,0.4225713323205709,-0.18890549204796553
1772526364386256600,0.717256591796875,0.28516251101493834,0.19371581493914125,-0.24087810973897575
1772526364396240000,0.727239990234375,0.28470599941909314,-0.0027948914155364033,-0.2993918927017599
1772526364406221600,0.7372216796875,0.3033545857876539,-0.13274316758215426,-0.3924248715883121
1772526364416203800,0.747203857421875,0.31938217600286006,-0.22541239119023082,-0.4622348688628524
1772526364426186500,0.7571865234375,0.3621358605802059,-0.3192626412764191,-0.5169083064777776
1772526364436168700,0.767168701171875,0.42109775263667104,-0.3877791281417012,-0.5382584068899974
1772526364446150700,0.777150634765625,0.5018927063167095,-0.47074207351058717,-0.5177981314569712
1772526364456132600,0.787132568359375,0.5298807834386825,-0.5987555822223425,-0.4943946787115186
1772526364466115800,0.79711572265625,0.47984687872529025,-0.7058645423322916,-0.5219518901355564
1772526364476097500,0.80709765625,0.34886253750920293,-0.7407157832220196,-0.5396961480755359
1772526364486079700,0.817079833984375,0.24827041194736957,-0.7018015306770801,-0.5605719820395112
1772526364496062700,0.827062744140625,0.1724298658043146,-0.641603082562983,-0.5152412135157733
1772526364506044700,0.837044677734375,0.041539048090577124,-0.6349567764163017,-0.44619215414375063
1772526364516026600,0.847026611328125,-0.1199491524606943,-0.6534988336704671,-0.38140031382478773
1772526364526009600,0.857009521484375,-0.2557715813577175,-0.6422714833438397,-0.35237061869539316
1772526364535991600,0.866991455078125,-0.3474351350545883,-0.5949393849350512,-0.3177846046131104
1772526364545973500,0.876973388671875,-0.47430444216728207,-0.5633274182274938,-0.24688750622160732
1772526364555955700,0.886955810546875,-0.620672230476141,-0.5638749691076577,-0.1487098944555968
1772526364565938700,0.896938720703125,-0.7531056014567613,-0.5377439180292188,-0.0643771220382303
1772526364575920600,0.906920654296875,-0.7895283294469118,-0.4734342352040112,-0.0635616409368813
1772526364585902600,0.916902587890625,-0.7879436906039714,-0.417403282032907,-0.07380034555234015
1772526364595885800,0.9268857421875,-0.7483253814429044,-0.4343105776920914,-0.046035336596518754
1772526364605867500,0.936867431640625,-0.6734755999028682,-0.4984105632893741,0.02544328800998628
1772526364615849700,0.946849609375,-0.5517617758572101,-0.5576536103747785,0.13959266815073787
1772526364625831700,0.956831787109375,-0.4401175104051828,-0.4526728944651782,0.10995616623461246
1772526364635814700,0.966814697265625,-0.3988976112663746,-0.3769619660511613,0.1079318938653916
1772526364645796600,0.976796630859375,-0.40873219206035133,-0.31087694411650296,0.15651019294299184
1772526364655778600,0.986778564453125,-0.41216041294336314,-0.2305292958125472,0.16708170970939099
1772526364665761800,0.99676171875,-0.4189467120826244,-0.10991378839761018,0.14554565827101468
1772526364675743500,1.006743408203125,-0.40026948414146896,-0.019042554122209548,0.17300477961543947
1772526364685725700,1.0167255859375,-0.36103111420869827,0.06608458354324102,0.21957053329423068
1772526364695708700,1.026708740234375,-0.2916512885123491,0.15815964065045118,0.2533770143713802
1772526364705690600,1.036690673828125,-0.18808160844445226,0.232727536509186,0.23825539655257014
1772526364715672800,1.0466728515625,-0.1184808334738016,0.25069194000586864,0.24747593710143118
1772526364725654500,1.056654541015625,-0.06040624564588069,0.22872969904467463,0.2987411006428301
1772526364735637800,1.0666376953125,0.02248714161813259,0.19274828508123754,0.3654182067191228
1772526364745619500,1.076619384765625,0.1559083545923233,0.1900152068555355,0.43321817934550344
1772526364755601700,1.0866015625,0.2595703891187906,0.20146511389166116,0.4881143563330173
1772526364765584600,1.096584716796875,0.2829898431509733,0.22741291735768318,0.5780970442708582
1772526364775566600,1.106566650390625,0.25535364820659157,0.2809960389852524,0.6247885797537863
1772526364785548800,1.116548828125,0.21152736596167088,0.3486035943120718,0.5806978013537824
1772526364795531800,1.12653173828125,0.14641513458192348,0.3482864911869168,0.5277385472455993
1772526364805513700,1.136513671875,0.09670856212675571,0.28977234289795156,0.5299217365035787
1772526364815495700,1.14649560546875,0.07640928594172,0.2504895493015647,0.5018719557896256
1772526364825477600,1.1564775390625,0.05325228223800659,0.22233751378953456,0.43477910851929336
1772526364835460600,1.166460693359375,0.01883855598270893,0.21092589293718336,0.37865890616215764
1772526364845442600,1.176442626953125,0.002101356193423271,0.1982230632305145,0.3453920849196613
1772526364855424800,1.1864248046875,-0.01919920598864555,0.2110752382799983,0.29331279198378324
1772526364865407700,1.19640771484375,-0.0131757079154253,0.2489943423077464,0.2286162652654573
1772526364875389700,1.2063896484375,-0.020205168160796164,0.2702420052587986,0.2025320490034297
1772526364885371600,1.21637158203125,-0.0429255340129137,0.2220522671073675,0.18598123863171784
1772526364895354600,1.226354736328125,-0.04806289690136909,0.19210078095793723,0.1240273251524195
1772526364905336600,1.236336669921875,0.03601999240815639,0.18011252926141022,0.00834781283494085
1772526364915318800,1.24631884765625,0.17548048554658888,0.1715185961782932,-0.07281937169097363
1772526364925300500,1.256300537109375,0.36381460744738575,0.136995856590569,-0.13426745453998445
1772526364935283700,1.26628369140625,0.5474743077963591,0.08283931898921727,-0.1381609913798049
1772526364945265400,1.276265380859375,0.6760024880319834,0.0158335289478302,-0.09293909005802124
1772526364955247600,1.28624755859375,0.7762310409784317,-0.0154784318998456,-0.12075637719035148
1772526364965230600,1.296230712890625,0.8367997837096453,-0.014254150801897049,-0.10951616738215088
1772526364975212500,1.306212646484375,0.8780997623473406,0.0061859951585531234,-0.11101506417039782
1772526364985194800,1.31619482421875,0.9107540777146815,0.024158289700746533,-0.11413717824630439
1772526364995176400,1.326176513671875,0.9288906229078769,0.024675007051229474,-0.09425901355016976
1772526365005159700,1.33615966796875,0.9252864609360695,0.01728343549519777,-0.07044201156776397
1772526365015141600,1.3461416015625,0.8931108689963817,-0.00341331557482481,-0.03644183454941958
1772526365025123600,1.35612353515625,0.7972054399460554,-0.040080373714864254,0.00977601900715381
1772526365035106600,1.3661064453125,0.6531354071855545,-0.03010463088452816,0.0174854608733207
1772526365045088800,1.3760888671875,0.4554150327801704,0.010175941577553749,0.07186744126100093
1772526365055070700,1.38607080078125,0.2539940502911806,0.0589879032805562,0.11115757791362703
1772526365065053700,1.3960537109375,0.08479132983982562,0.13831044632047415,0.12343582553267478
1772526365075035600,1.40603564453125,-0.029499066206812856,0.1961822050526738,0.12183379716351628
1772526365085017600,1.416017578125,-0.07383622058331966,0.197293381164968,0.11731814636997878
1772526365094999600,1.42599951171875,-0.09310498467683792,0.17390052287876606,0.1117507945664227
1772526365104982500,1.435982421875,-0.12245792041122913,0.12899579774737358,0.09881685951761901
1772526365114964700,1.44596484375,-0.13192249884903431,0.11275018086731434,0.08138170405942946
1772526365124947000,1.455947021484375,-0.14808394457697868,0.09546732989400625,0.07144603751115501
1772526365134929700,1.4659296875,-0.13830313979685305,0.08261047866940498,0.1274191230151802
1772526365144912000,1.475911865234375,-0.10736381165385246,0.08188947091847658,0.20276541936788706
1772526365154893600,1.4858935546875,-0.08097381737828255,0.09342325684577225,0.2582981041606516
1772526365164876800,1.495876708984375,-0.05419511604607105,0.09169628692269324,0.2692578165270388
1772526365174858800,1.505858642578125,-0.052804538470506666,0.08227788571417331,0.2526918816514313
1772526365184840700,1.5158408203125,-0.0534434208959341,0.09305851518660783,0.23693598451707512
1772526365194823000,1.525822998046875,-0.0508989971101284,0.07729775921404361,0.24380510310158132
1772526365204806000,1.535805908203125,-0.08311725914776324,0.030709611040353774,0.2495655663244426
1772526365214787800,1.545787841796875,-0.07605798828601837,0.06795651489496231,0.23367435237262396
1772526365224769800,1.555769775390625,-0.08648293618857861,0.11914046642631292,0.20437599636968223
1772526365234752800,1.565752685546875,-0.130388128888607,0.12739713037908076,0.223305993495509
1772526365244734700,1.575734619140625,-0.10946516784727572,0.15478694934695958,0.15063717272374777
1772526365254716700,1.585716552734375,-0.08811959747970104,0.134051035310328,0.10937124248612672
1772526365264698600,1.59569873046875,-0.05825754317939281,0.10482435630410909,0.04603442328106612
1772526365274681900,1.605681884765625,-0.008177461236715316,0.08840367511808872,-0.0007966302704066038
1772526365284663600,1.61566357421875,-0.013595979154109953,0.06342822381556033,-0.013847761958092451
1772526365294645800,1.625645751953125,-0.00626022943854332,0.07576514281928538,-0.05617452636025846
1772526365304628700,1.635628662109375,0.02878478045761585,0.11176555374413728,-0.1365731741990894
1772526365314610700,1.645610595703125,0.0508686019718647,0.1338268711656332,-0.1668042810074985
1772526365324593000,1.655593017578125,0.08632745336592197,0.1386059221357107,-0.20495200615935028
1772526365334575600,1.66557568359375,0.10773790566325187,0.07944470811486244,-0.21831921805888413
1772526365344557800,1.675557861328125,0.13044424299001692,0.051147126652300354,-0.25729367635846134
1772526365354539500,1.68553955078125,0.14331366143524646,0.04395663062632084,-0.2805547980237752
1772526365364521700,1.695521728515625,0.17563012315034865,0.06895400149971247,-0.26786672749482093
1772526365374504700,1.705504638671875,0.19250176297426222,0.07924275580197572,-0.2332479071214795
1772526365384486700,1.715486572265625,0.16699731936156748,0.09575345335900783,-0.18436836007498203
1772526365394468900,1.72546875,0.15157938547730446,0.12587795798778534,-0.1853855742935091
1772526365404451800,1.735451904296875,0.11683248174488543,0.10941665253043174,-0.1972184892978519
1772526365414433800,1.745433837890625,0.05566811120808124,0.07830255234241486,-0.191564555189386
1772526365424415700,1.755415771484375,-0.009542904371023177,0.058790334881842134,-0.1879953184004873
1772526365434398700,1.765398681640625,-0.07871171766519545,0.05132131417542696,-0.1727437540590763
1772526365444380700,1.775380615234375,-0.13697744415104388,0.045944005051255225,-0.14354805471301077
1772526365454362600,1.785362548828125,-0.15595336277782917,0.03049436085447669,-0.11984357319436967
1772526365464344800,1.7953447265625,-0.19001345328986644,-0.005006868376582861,-0.11070420812293887
1772526365474327800,1.805327880859375,-0.18787001152038574,-0.02644903098642826,-0.10478278218470513
1772526365484309800,1.815309814453125,-0.15780746621191502,-0.05957286356166005,-0.0948405032325536
1772526365494291700,1.825291748046875,-0.12364625341296195,-0.08628931331261992,-0.1027728306017816
1772526365504275000,1.83527490234375,-0.10878536888957023,-0.11481617348641157,-0.09785846281424164
1772526365514256600,1.845256591796875,-0.10813596507012843,-0.13338365744277833,-0.09451744529064744
1772526365524238800,1.85523876953125,-0.11931085455715655,-0.14741627444848418,-0.10227105509210377
1772526365534220800,1.865220703125,-0.14296996256411074,-0.15365999114364384,-0.11420103726275264
1772526365544203800,1.875203857421875,-0.1903863782554865,-0.1612793801061809,-0.14168788686431943
1772526365554185700,1.885185791015625,-0.24571488224565982,-0.17302037904337048,-0.17317560613770036
1772526365564167700,1.895167724609375,-0.2753378670930862,-0.1733579404346645,-0.17774086822662502
1772526365574151000,1.90515087890625,-0.29077099854648114,-0.1536623292312026,-0.1726351425854489
1772526365584132600,1.915132568359375,-0.2714735928803682,-0.10785378712788224,-0.14799586443472654
1772526365594114800,1.92511474609375,-0.2649684487700462,-0.08118439138904214,-0.13609952880535273
1772526365604097800,1.935097900390625,-0.25363398480713367,-0.0410183852173388,-0.12916395738851277
1772526365614079700,1.945079833984375,-0.21038696375489233,0.004205050474405289,-0.12664273181520402
1772526365624061700,1.955061767578125,-0.17393910132348536,0.02771422861665487,-0.1386613055847585
1772526365634043600,1.965043701171875,-0.14119360054135321,0.030347499729692935,-0.1438499602690339
1772526365644027000,1.97502685546875,-0.07488134572207927,0.046052141600847245,-0.16090294800922272
1772526365654008600,1.985008544921875,0.004522445860505104,0.06792845784425736,-0.1952802877768874
1772526365663990800,1.99499072265625,0.051588148418068885,0.0866746593683958,-0.20453736094385383
1772526365673973800,2.004973876953125,0.11638882963061332,0.09889642755985259,-0.1952742233622819
1772526365683955700,2.014955810546875,0.19314590609669685,0.12342471961677073,-0.1949988404870033
1772526365693937700,2.024937744140625,0.2220002446591854,0.14402297874838113,-0.2333227989885956
1772526365703919600,2.034919677734375,0.22745675649940966,0.13450374751389027,-0.24271694253869353
1772526365713902600,2.044902587890625,0.2900105355679989,0.1118324815005064,-0.2534681997861713
1772526365723884800,2.054884765625,0.2994797901809215,0.07900777800232171,-0.23744119409285486
1772526365733866800,2.06486669921875,0.36285306893885133,0.06607289310544728,-0.24486907907128333
1772526365743849700,2.074849609375,0.38519875625967975,0.07034516359716654,-0.25178404609151184
1772526365753831700,2.084831787109375,0.38318215574026104,0.060874155418574806,-0.25040274780094623
1772526365763813600,2.094813720703125,0.35039983007907866,0.061898237769305704,-0.24382636508531866
1772526365773795800,2.1047958984375,0.3041273237258196,0.0729454092234373,-0.2818940838035196
1772526365783778600,2.114778564453125,0.24003216043412684,0.06433160239607096,-0.28800138770267364
1772526365793760800,2.1247607421875,0.1699766274333,0.04090250375270843,-0.2645620599262416
1772526365803742700,2.13474267578125,0.07917933517694473,0.021418343342840672,-0.22810206866562366
1772526365813725700,2.1447255859375,0.016557167047262192,0.03285334507077932,-0.1665929032791406
1772526365823708000,2.1547080078125,-0.03829261351525783,0.04835428106337786,-0.12926299731619656
1772526365833689600,2.164689697265625,-0.057579497787356375,0.07728285390585661,-0.06286686360575258
1772526365843672800,2.1746728515625,-0.06737082396149635,0.08810527669340372,0.004265621555224061
1772526365853654500,2.184654541015625,-0.08129588893949985,0.09142185389548539,0.05577149851731956
1772526365863636700,2.19463671875,-0.057663084417581556,0.09611439562588929,0.07070311018936336
1772526365873619000,2.204618896484375,-0.042596448189020156,0.07511807708740234,0.06945749404244124
1772526365883601700,2.2146015625,-0.033278000223636625,0.02265110000818968,0.06527933157496153
1772526365893584000,2.224583984375,-0.04333879098892212,-0.019410802912712095,0.04140095479413867
1772526365903565600,2.234565673828125,-0.08109890506267547,-0.045045010384917254,-0.007291691378131508
1772526365913548800,2.244548828125,-0.13440437879264355,-0.06807751092612743,-0.013787775399163364
1772526365923530800,2.25453076171875,-0.19266309101581572,-0.06650953095704316,-0.027640286597609517
1772526365933512700,2.2645126953125,-0.20788813267648218,-0.03647942661345005,-0.026919132716208695
1772526365943495000,2.274494873046875,-0.16958850489854813,-0.030263913099467753,0.005846753266826272
1772526365953477600,2.2844775390625,-0.12850012318491935,-0.018902853390574455,0.039791035379469396
1772526365963459800,2.2944599609375,-0.1020464160233736,0.0173585465580225,0.04674224275685847
1772526365973441800,2.30444189453125,-0.07269464933276176,0.04345627988874912,0.05656980928815901
1772526365983424800,2.3144248046875,-0.0547287845313549,0.05408142653852701,0.06509579170159994
1772526365993406700,2.32440673828125,-0.07481763283610343,0.13480886794030666,-0.06370667543075978
1772526366003388700,2.334388671875,-0.04746434648633003,0.05400310060530901,0.06063625500947237
1772526366013371600,2.34437158203125,0.02204699663519859,0.027295418682694434,0.1486363177627325
1772526366023353900,2.354353759765625,0.11144611253142356,0.11849164712876081,0.1151370760038495
1772526366033335800,2.364335693359375,0.189217918998003,0.14904402178078888,0.06116765847243368
1772526366043317800,2.37431787109375,0.2619318575531244,0.1652583667397499,0.027680764738470313
1772526366053300700,2.38430078125,0.29102585009038445,0.13795564153343437,0.05882774428278208
1772526366063282700,2.39428271484375,0.30012860947847364,0.09639584291577338,0.08372209317311644
1772526366073265000,2.404264892578125,0.23526070824861525,0.09802227507382631,0.09224639508612453
1772526366083247600,2.41424755859375,0.16946107912659644,0.12476678187549113,0.08463950027897954
1772526366093229800,2.424229736328125,0.11266776328086853,0.1583466876551509,0.05773059669584035
1772526366103211500,2.43421142578125,0.09053834905922413,0.1793055967926979,0.04530373438633978
1772526366113193700,2.44419384765625,0.08800678475499153,0.17027298003137112,0.010459946150705217
1772526366123176200,2.45417626953125,0.08499065180420876,0.1378247086301446,-0.013623378617689013
1772526366133158000,2.464157958984375,0.10049626397192478,0.0870540140748024,-0.024205855169519782
1772526366143140000,2.47414013671875,0.11413140609264373,0.05607610748708248,-0.04635989237576723
1772526366153123000,2.484123046875,0.11665654065608978,0.02948708350807428,-0.03922529125548899
1772526366163105000,2.49410498046875,0.10685352404415607,0.008151742273569107,-0.04159589284434914
1772526366173087200,2.504087158203125,0.07511690804362296,-0.010744096854329109,-0.047718540443107485
1772526366183069000,2.51406884765625,0.03996083898842334,-0.026558044318854807,-0.10147336537577212
1772526366193052200,2.52405224609375,0.024930443117022513,-0.03607347616106271,-0.15518975799418985
1772526366203033900,2.534033935546875,0.018125439277291298,-0.08593231656849384,-0.16604586385563014
1772526366213016000,2.54401611328125,-0.0007043488770723343,-0.11671820771545172,-0.1563977455444634
1772526366222999000,2.5539990234375,0.008984101444482803,-0.12371873412728308,-0.11383373832032084
1772526366232981000,2.56398095703125,0.019368717336654663,-0.1036585273951292,-0.06695669020265341
1772526366242963200,2.573963134765625,0.011930676290392874,-0.052041445143520826,-0.05368190582692623
1772526366252946200,2.5839462890625,0.0438274512887001,-0.004641396065056324,-0.049914077726006506
1772526366262928100,2.59392822265625,0.0612163929849863,-0.001580254928767681,-0.023484482092410323
1772526366272910000,2.60391015625,0.05210895742177963,-0.021570611295104025,0.008618263806775212
1772526366282892000,2.61389208984375,0.04489712634682655,-0.04459609757363796,0.012796864665672182
1772526366292875000,2.623875,0.01983633484840393,-0.06379062738716602,0.01610708519220352
1772526366302857000,2.63385693359375,0.042832010510563845,-0.07581862657219171,0.022902079094573854
1772526366312839000,2.6438388671875,0.08724398368895053,-0.07361848617941141,0.023687457318603992
1772526366322822100,2.653822265625,0.15381927335858345,-0.05748860463351011,0.04758614623509347
1772526366332803800,2.663803955078125,0.20939853723943233,-0.06082856271117925,0.08376790507622063
1772526366342786000,2.6737861328125,0.23810616080760955,-0.053879474225640295,0.11917356497831642
1772526366352768000,2.68376806640625,0.21988953611552714,-0.04204465952515602,0.14857618507333098
1772526366362751000,2.6937509765625,0.16373860982656477,-0.00839168850928545,0.1702930729713291
1772526366372733200,2.703733154296875,0.06838555396199227,0.03221241681873798,0.18087686469741165
1772526366382715000,2.71371484375,-0.027993337818980217,0.054366088698804375,0.18527758387438953
1772526366392698000,2.723697998046875,-0.08643266730606555,0.07985591926425695,0.17756335623525082
1772526366402679800,2.7336796875,-0.10585048448145389,0.09570435352027416,0.17559680540263653
1772526366412662000,2.743662109375,-0.11535071875452994,0.08590630534440279,0.22032040181346235
1772526366422644200,2.753644287109375,-0.09657178400456905,0.10123013120442628,0.2655531167902052
1772526366432627000,2.763626953125,-0.0807756644576788,0.1532666079118848,0.31671755990348754
1772526366442609200,2.773609130859375,-0.07508475933969021,0.22645225563198326,0.37742103493027385
1772526366452590800,2.7835908203125,-0.08951777383983135,0.2998120908752084,0.4141012448128313
1772526366462574000,2.793573974609375,-0.12523790651857852,0.33131022194474935,0.4515588688086718
1772526366472556000,2.80355615234375,-0.13384206873476504,0.32360680796056984,0.4284998455867171
1772526366482538000,2.8135380859375,-0.13668693677186966,0.29094664737433196,0.3258823516771197
1772526366492521000,2.82352099609375,-0.11628536925613879,0.21511925297379492,0.19353629365377126
1772526366502503000,2.8335029296875,-0.06531213786602019,0.13822685969024895,0.06056845047026872
1772526366512485000,2.843485107421875,-0.029682021558284758,0.057740533567965026,-0.036902109004929656
1772526366522467000,2.853467041015625,-0.026768179938197134,0.014614508546888828,-0.11614070008844136
1772526366532450000,2.863449951171875,-0.017329904985427854,-0.022102233953773975,-0.1795586947709322
1772526366542432000,2.873431884765625,-0.027433950370550155,-0.06564619212597608,-0.18736805334761739
1772526366552414000,2.8834140625,-0.06261632291078567,-0.13948095140457153,-0.17599881033226847
1772526366562397000,2.89339697265625,-0.15916238795220852,-0.1251318157956004,-0.290643061317876
1772526366572379100,2.903379150390625,-0.3244739461839199,-0.07846446490585804,-0.3329335122976452
1772526366582361000,2.913361083984375,-0.3243073574453592,-0.042110710498690605,-0.44463264974206684
1772526366592343000,2.923343017578125,-0.2744587461709976,-0.08622019359916448,-0.4533423181593418
1772526366602326000,2.933325927734375,-0.15983867977857588,-0.11886311078965663,-0.5071201586414128
1772526366612308000,2.943307861328125,-0.03559562951624393,-0.15285598128437994,-0.5128296953946352
1772526366622290200,2.953290283203125,0.028794132807850835,-0.21511457679867743,-0.5135553062554449
1772526366632273000,2.96327294921875,0.08177168975770473,-0.26018793649524447,-0.5719543037321418
1772526366642255000,2.973255126953125,0.10929565649926662,-0.27925241018831726,-0.632427623264864
1772526366652237000,2.983237060546875,0.18953648342788218,-0.26877865470796825,-0.6652068071208894
1772526366662219000,2.993218994140625,0.2878472200542688,-0.280437236058712,-0.6691304103054105
1772526366672202000,3.003201904296875,0.3677577921152115,-0.2964665798395872,-0.6295818784449249
1772526366682184000,3.013183837890625,0.41801966036558147,-0.29185528665184973,-0.5740634048406035
1772526366692166100,3.023166259765625,0.494765630915761,-0.30442893702089785,-0.5324664160177112
1772526366702148900,3.03314892578125,0.5670633898854255,-0.30731969002634285,-0.45217400503233074
1772526366712131000,3.043131103515625,0.5613935275554657,-0.3268821763694286,-0.34897257375493645
1772526366722113000,3.053113037109375,0.514676200044155,-0.31582945195734496,-0.28760500879622997
1772526366732095000,3.063094970703125,0.4361790019124746,-0.26214140865057706,-0.23082879021577535
1772526366742078000,3.073077880859375,0.3630073827177286,-0.21376842288672923,-0.18041728436164556
1772526366752060000,3.083059814453125,0.2749287017703056,-0.1949690298706293,-0.12489705719165503
1772526366762042000,3.0930419921875,0.19391396785974502,-0.17463702045977114,-0.07576886914633214
1772526366772025000,3.103025146484375,0.09413198963701724,-0.1503524740308523,-0.019153540216013787
1772526366782007000,3.113007080078125,-0.007615151178836822,-0.10472761793136597,0.006764817959815263
1772526366791989000,3.122989013671875,-0.09833236393630504,-0.03612491408735514,0.024051029933989047
1772526366801971000,3.132970947265625,-0.1431757142692804,0.03615793957412243,0.06004997955411672
1772526366811954000,3.142953857421875,-0.17335633299946784,0.07450082197189331,0.12517799302488564
1772526366821936000,3.15293603515625,-0.17444003658294677,0.09182400495558976,0.197160986956954
1772526366831918000,3.16291796875,-0.1542348684221506,0.10627893902659416,0.2644214093465358
1772526366841901000,3.172901123046875,-0.1600520302683115,0.13266133451759815,0.3048089493144303
1772526366851883000,3.182883056640625,-0.13896598761975765,0.18227233764380216,0.34427462519705293
1772526366861865000,3.192864990234375,-0.11784779626727103,0.22822277243584393,0.3735902245957404
1772526366871848200,3.20284814453125,-0.10629822824895381,0.2533364631652832,0.4009593661017716
1772526366881830000,3.212829833984375,-0.105178868830204,0.26538725870400665,0.43156566289812326
1772526366891812000,3.22281201171875,-0.13282733873426913,0.24401538485139607,0.433190999077633
1772526366901794000,3.2327939453125,-0.13917583097815514,0.23243892882615327,0.42446167611181734
1772526366911777000,3.242777099609375,-0.0812765997171402,0.2359340774655342,0.41737719774357973
1772526366921759200,3.25275927734375,-0.0035498014360666272,0.22918138833492993,0.41897191958911717
1772526366931741000,3.262740966796875,0.09716156659126281,0.20660452260673046,0.42303398139625786
1772526366941724200,3.27272412109375,0.1890565909564495,0.18491379206329583,0.4275304160326719
1772526366951705900,3.282705810546875,0.24308687182962893,0.16551994028538464,0.41124490553364157
1772526366961688000,3.29268798828125,0.24987609357833862,0.1708487340927124,0.38576851897165176
1772526366971670000,3.302669921875,0.2518780810505152,0.1883396748587489,0.34073534515500065
1772526366981653000,3.312653076171875,0.2336544420957565,0.18137772689163684,0.31822263070419426
1772526366991635200,3.32263525390625,0.16565116544961928,0.155106975081563,0.27486528114527464
1772526367001617000,3.332616943359375,0.128597738340497,0.14253975445330141,0.22874409289620815
1772526367011600100,3.34260009765625,0.1468202082514763,0.14082944340407846,0.16523637410365044
1772526367021582000,3.35258203125,0.20035598360598086,0.12600479923784733,0.16944705060124396
1772526367031564000,3.36256396484375,0.2572059980750084,0.11450959175527095,0.225892795118317
1772526367041546000,3.3725458984375,0.2772819868981838,0.11109364583194255,0.23144451096132396
1772526367051529000,3.382529052734375,0.26420798579156396,0.10641980880200862,0.1961193689495325
1772526367061511000,3.392510986328125,0.21500410216152666,0.07668868740499019,0.15665084352269767
1772526367071492900,3.402492919921875,0.1325327397018671,0.03267506589442491,0.12836962867304683
1772526367081476000,3.41247607421875,0.04986556240916252,0.0040104046851396555,0.07864837010540068
1772526367091458000,3.4224580078125,-0.06495733307898044,0.004864975687861442,0.013511004284396767
1772526367101440000,3.43243994140625,-0.15735446174740791,-0.0027852468043565747,-0.03229110807813704
1772526367111422000,3.442421875,-0.20134850177466868,0.007154840190708637,-0.04460011616162955
1772526367121406000,3.452406005859375,-0.17135493004918098,0.016422727012634277,-0.04241868046931922
1772526367131387600,3.4623876953125,-0.11624445272386073,0.013571136973798274,-0.03893675663769245
1772526367141369900,3.472369873046875,-0.0703226595044136,-0.0349587929174304,-0.059766267241910094
1772526367151352800,3.482352783203125,-0.04189385287761688,-0.07499591201245784,-0.10661145891658962
1772526367161334800,3.492334716796875,-0.04733341358304023,-0.0929793124705553,-0.1375994485069066
1772526367171316700,3.502316650390625,-0.06891454627215862,-0.09883739084899425,-0.17254421289898453
1772526367181298700,3.512298583984375,-0.08787643637359142,-0.10958616387844085,-0.20344393968395888
1772526367191282000,3.522281982421875,-0.11467910310328006,-0.08890344133377075,-0.22567644895389674
1772526367201263600,3.532263671875,-0.10434358704984187,-0.08030717016309499,-0.2573405111748725
1772526367211245800,3.542245849609375,-0.0950882674485445,-0.09139642719328403,-0.2857891915459186
1772526367221228800,3.552228759765625,-0.05847498532235622,-0.10559709424227476,-0.31239955057390034
1772526367231210800,3.562210693359375,0.015598551148176192,-0.110984632499516,-0.35018662571981546
1772526367241192700,3.572192626953125,0.07524199572801589,-0.11818038922250271,-0.36691301185414193
1772526367251174700,3.582174560546875,0.14445873981714247,-0.12405892586708069,-0.369091232676059
1772526367261157600,3.59215771484375,0.19464754283130167,-0.13757804039269686,-0.35123087407574055
1772526367271139800,3.602139892578125,0.23181027553379535,-0.14303659805953503,-0.30150033622309563
1772526367281121800,3.612121826171875,0.25980010622143745,-0.11507073276937008,-0.2715579101629555
1772526367291104800,3.622104736328125,0.26914018149673935,-0.07524579512029886,-0.25685623478926717
1772526367301086700,3.632086669921875,0.27132337075471874,-0.0709025052189827,-0.2349031269825995
1772526367311068700,3.642068603515625,0.24600655866861343,-0.049719139675796026,-0.2229298536594957
1772526367321052000,3.652052001953125,0.20842706185877322,-0.030620179191231726,-0.21629319212399423
1772526367331033600,3.66203369140625,0.19453531462848186,-0.028106150543689725,-0.18580767216309904
1772526367341015800,3.672015869140625,0.19413491713404654,-0.006739829649031162,-0.15226744080670176
1772526367350997800,3.681997802734375,0.1945470050662756,-0.005130933147668838,-0.09925408189110457
1772526367360980700,3.691980712890625,0.20099311246573923,-0.01578501363098621,-0.04291099403090775
1772526367370963000,3.701962890625,0.20415186875760555,-0.0008598316997289657,-0.022162951165065167
1772526367380944600,3.711944580078125,0.19304478380978107,0.026203531792759895,-0.0020871815375983712
1772526367390928000,3.721927978515625,0.14531331081986426,0.02472001523673534,0.016860387777537105
1772526367400909600,3.73190966796875,0.041816111466288566,0.025565526150166988,0.07155351647362113
1772526367410891800,3.741891845703125,-0.07280804657936096,0.052342181655764576,0.11329174039810895
1772526367420874000,3.7518740234375,-0.16356208421587942,0.09824322434812784,0.14202764021269976
1772526367430856700,3.761856689453125,-0.18957739996016024,0.14119389280229805,0.14030403129048644
1772526367440839000,3.7718388671875,-0.15599895548522472,0.14739333196431398,0.1319117582593113
1772526367450820600,3.781820556640625,-0.10902736095190048,0.137616911098361,0.14687120778635143
1772526367460803800,3.791803955078125,-0.06683247930109501,0.10889262865632772,0.15265285992771385
1772526367470785800,3.801785888671875,-0.06152911219596863,0.09058043463528155,0.14047894946597517
1772526367480767700,3.811767822265625,-0.07115151154398917,0.09389671957641839,0.12636939476653933
1772526367490750000,3.82175,-0.049663902357220645,0.11376929478198289,0.13080635430067777
1772526367500732700,3.831732666015625,-0.0027238720059394833,0.11675210998505353,0.15331979940384627
1772526367510715000,3.84171484375,0.07319675363600253,0.09307663536518812,0.16758490999117492
1772526367520696800,3.85169677734375,0.14589666366577148,0.09030307899862527,0.15424889694750307
1772526367530679800,3.8616796875,0.21574235330820082,0.08001637052297592,0.13358699799515306
1772526367540661800,3.871661865234375,0.22755203356742856,0.07548807944357394,0.11147153923362493
1772526367550643700,3.881643798828125,0.19803484718203543,0.07638532054424285,0.08752418886981904
1772526367560625700,3.891625732421875,0.10928922675848006,0.06886778452098369,0.04498129749894142
1772526367570609000,3.90160888671875,0.03056815674304962,0.0553194439008832,0.007118453703075647
1772526367580590800,3.9115908203125,-0.014590835410356521,0.037812721043825145,-0.04032835712656378
1772526367590572800,3.92157275390625,-0.03477437626123428,0.031523850032687185,-0.047871612112969156
1772526367600555800,3.9315556640625,-0.02862929763495922,0.02997428250312805,-0.04068053156509995
1772526367610537700,3.941537841796875,-0.023489012137055395,0.031059739652276038,-0.05096482888795435
1772526367620520000,3.95152001953125,-0.033358664244413375,0.03580108896046877,-0.07316599317155778
1772526367630501600,3.961501708984375,-0.030797873845696447,0.026551322317123413,-0.0786282771654427
1772526367640484900,3.97148486328125,0.0023076924204826353,0.019806524232029915,-0.07102963872998952
1772526367650466600,3.981466552734375,0.06871463978588581,-0.011126374170184136,-0.06312500308528542
1772526367660448800,3.99144873046875,0.09675941553115844,-0.04856646250933409,-0.054500236472487446
1772526367670431700,4.001431640625,0.10505904184281825,-0.08289046465456486,-0.051526846684888
1772526367680413700,4.01141357421875,0.08198445572555065,-0.08706628903448581,-0.08509060504734516
1772526367690396000,4.02139599609375,0.03768529527187347,-0.07214139936417341,-0.11152904157452284
1772526367700377600,4.031377685546875,0.012435703203082083,-0.048638358701765534,-0.09595964345559477
1772526367710360800,4.04136083984375,0.0011976853519678114,-0.05338438418507575,-0.07314948042817414
1772526367720342800,4.0513427734375,0.028718729484081267,-0.05780483097583055,-0.06474127917550504
1772526367730324700,4.06132470703125,0.05119418066442012,-0.05508943453729152,-0.07187880290523171
1772526367740307700,4.0713076171875,0.05203706122934818,-0.06414104826003313,-0.08234693236239254
1772526367750289700,4.08128955078125,0.04367196846604347,-0.07117284659296273,-0.0828536397755146
1772526367760272000,4.09127197265625,0.012889292189478874,-0.06473609154373407,-0.09530914365760981
1772526367770253600,4.101253662109375,-0.028074001839756963,-0.05665127702653408,-0.10836802026033401
1772526367780236800,4.11123681640625,-0.04143967936933041,-0.04538140273243189,-0.13564604941681027
1772526367790218800,4.12121875,-0.021015900021791458,-0.05591857883781194,-0.1612821565851569
1772526367800200700,4.13120068359375,0.047963528180122374,-0.06814560772627591,-0.19584362074807285
1772526367810183700,4.14118359375,0.07678337995111942,-0.09445786059051751,-0.17218677776344118
1772526367820166000,4.151165771484375,0.029926936230063438,-0.12644932813495396,-0.12681523883789778
1772526367830147800,4.16114794921875,-0.011033435189723969,-0.08708820860534906,-0.09239420605897902
1772526367840129800,4.1711298828125,-0.061867550370097155,-0.025360651227831838,-0.07045680727809667
1772526367850112800,4.18111279296875,-0.09485387417078017,0.013700608572363852,-0.028460370808839796
1772526367860094700,4.1910947265625,-0.08877250843048096,0.039274318028986455,-0.009902093072235585
1772526367870076700,4.20107666015625,-0.07500292627513408,0.044132863976061344,0.022259689537808297
1772526367880059600,4.2110595703125,-0.0828448719471693,0.04871522333025932,0.043124490651115774
1772526367890041900,4.221041748046875,-0.07595335886776447,0.04887596684992313,0.05416325960308313
1772526367900023800,4.23102392578125,-0.06431318995654582,0.08873129963725805,0.05498312461860477
1772526367910005800,4.241005859375,-0.03828559925258159,0.10585428387373685,0.040929245629161594
1772526367919989000,4.250989013671875,-0.024605448946356773,0.10241524933576583,0.025947803466022015
1772526367929970700,4.260970703125,0.023970658174157142,0.09766396315544842,0.03598185235485434
1772526367939953000,4.270952880859375,0.09908931978344916,0.11273293747156858,0.05497260322459042
1772526367949935600,4.280935546875,0.1926858873695135,0.12946078491061924,0.06424319346025585
1772526367959917800,4.290917724609375,0.2794710213750601,0.1174722409531474,0.06351312562003732
1772526367969899800,4.300899658203125,0.3509375902175903,0.10247136343717575,0.04200907675512135
1772526367979881700,4.3108818359375,0.43013446105122566,0.08204056982696056,0.011106719621643424
1772526367989864700,4.32086474609375,0.4958709618091583,0.06179419287294149,-0.03766271811388433
1772526367999846700,4.3308466796875,0.5739800374060869,0.051717620016634464,-0.08849398375004529
1772526368009828900,4.340828857421875,0.6759931356817483,0.08106792540252208,-0.08961451221257448
1772526368019811800,4.350811767578125,0.7064765367507934,0.02856090857386589,-0.006483370669931173
1772526368029793800,4.360793701171875,0.64760466106534,-0.012768296158313751,0.050070437331497665
1772526368039775700,4.370775634765625,0.5666816970914602,0.04349222798496485,0.016084288838505743
1772526368049757700,4.3807578125,0.4291057025253773,0.09420943878740072,-0.049182840842008586
1772526368059740700,4.39074072265625,0.31759003188908097,0.10009440517276524,-0.05848141506314277
1772526368069723000,4.400722900390625,0.2453238371014595,0.08021189309507608,-0.040698724808916446
1772526368079704800,4.410704833984375,0.15467267531752585,0.04883914197087288,-0.0031934622790664433
1772526368089687800,4.420687744140625,0.09216098182499408,0.02253594919592142,0.04535466085597872
1772526368099669800,4.430669677734375,0.08206628879010677,0.05213292281925678,0.07956183168850839
1772526368109651700,4.440651611328125,0.08339315347969531,0.09334083925932646,0.12377674792483448
1772526368119633700,4.450633544921875,0.03725625620484352,0.09428162724077702,0.17528978528007863
1772526368129616400,4.460616455078125,-0.05432838703691959,0.07756371667385101,0.2154120253752917
1772526368139598600,4.4705986328125,-0.13673662113249302,0.10118512301892041,0.22023133529052136
1772526368149580800,4.480580810546875,-0.21988719802796838,0.13140724280327556,0.20886998332068324
1772526368159563500,4.4905634765625,-0.2948199816763401,0.12057488314360379,0.20306158930286763
1772526368169545700,4.500545654296875,-0.35686171956956386,0.09449731581807136,0.19955862268321214
1772526368179527400,4.51052734375,-0.38624855757355686,0.05808189435154199,0.1958020466286689
1772526368189509600,4.520509521484375,-0.35876901449561116,0.05240794036835432,0.19228592826649546
1772526368199492600,4.53049267578125,-0.30429391246438026,0.031071722351014613,0.19025405711270868
1772526368209474600,4.540474609375,-0.2788496746063232,-0.025267712247371673,0.17055289295129478
1772526368219456800,4.550456787109375,-0.26563831085562706,-0.08736118032783269,0.1391080995041877
1772526368229439500,4.560439453125,-0.28175825552940365,-0.09916063145399093,0.11365377864353358
1772526368239421700,4.570421630859375,-0.3126788789719343,-0.08727700917571783,0.07217091771960259
1772526368249403600,4.580403564453125,-0.3155360219687223,-0.0638464492276311,0.03876213072314858
1772526368259385600,4.590385498046875,-0.26425182493329047,-0.04392535870522261,0.022551146765053272
1772526368269368600,4.60036865234375,-0.17891513617038726,-0.03761690621078014,-0.005940642095357179
1772526368279350500,4.6103505859375,-0.12952712814509867,-0.04683890806436539,-0.0360484147850424
1772526368289332700,4.620332763671875,-0.09494213697612285,-0.08177578141093253,-0.06546250612214208
1772526368299315700,4.630315673828125,-0.05736965442895889,-0.07593436190634965,-0.12288009134605526
1772526368309297700,4.640297607421875,-0.007760697129368782,-0.05381780716627836,-0.14708477747179566
1772526368319279600,4.650279541015625,0.05856032551825046,-0.05772913539111614,-0.1301665220271796
1772526368329261600,4.660261474609375,0.1298959614574909,-0.05182137265205383,-0.12626410776115954
1772526368339244500,4.67024462890625,0.18791268161833286,-0.025663725827634334,-0.13747940232381223
1772526368349226800,4.680226806640625,0.21979835070073603,-0.017208032171428203,-0.11423165159672498
1772526368359208700,4.690208740234375,0.21091244893372058,-0.02709521993547678,-0.07634031235873699
1772526368369191700,4.700191650390625,0.20420739833712576,-0.00030278233885765074,-0.07815145343393087
1772526368379173600,4.710173583984375,0.23962591772079467,0.025870062054693697,-0.08811514050029218
1772526368389155600,4.720155517578125,0.3066150488883257,0.01864215662777424,-0.09605177871845662
1772526368399137500,4.730137451171875,0.35354105071425435,-0.03326455622017383,-0.08839059644080698
1772526368409120500,4.74012060546875,0.37914603209197517,-0.09831541280150413,-0.07967983204498887
1772526368419102700,4.750102783203125,0.34650165359675883,-0.13494915319383144,-0.041981385030597444
1772526368429084400,4.76008447265625,0.2497632808536291,-0.1328358143016696,-0.004967851540446281
1772526368439067600,4.770067626953125,0.16842472181618212,-0.09130962569266557,0.030586276921629903
1772526368449049600,4.780049560546875,0.11150047306716442,-0.03842383867949247,0.07207505612969398
1772526368459031600,4.790031494140625,0.11050561681091785,-0.02048106249272823,0.12527736174613235
1772526368469013800,4.800013671875,0.1236526831537485,-0.009260288037359714,0.16051752888821064
1772526368478996500,4.80999658203125,0.13921440942287444,-0.0426271355882287,0.18238434665091335
1772526368488978700,4.819978759765625,0.11288812803328037,-0.0867725667849183,0.22471293768398462
1772526368498960400,4.82996044921875,0.03528583291471004,-0.09436375256627798,0.21126579241603613
1772526368508943600,4.839943603515625,-0.040410920843482016,-0.0742684745207429,0.17516002142056822
1772526368518925600,4.849925537109375,-0.13720073151290416,-0.061028761458396905,0.1339206869289279
1772526368528907500,4.859907470703125,-0.21074410662949083,-0.07620163454040885,0.12684841045513748
1772526368538889700,4.8698896484375,-0.2947895865380764,-0.09503536821752787,0.13446166193783282
1772526368548872700,4.879872802734375,-0.3399795583516359,-0.0678740973085165,0.10642338899858295
1772526368558854700,4.889854736328125,-0.3446604096442461,-0.019654840801656245,0.08722958983741701
1772526368568836600,4.899836669921875,-0.35805063709318635,-0.015294892026484012,0.1009014107067138
1772526368578819600,4.909819580078125,-0.35448856069743634,-0.0010160451747477054,0.11570369691066443
1772526368588801500,4.919801513671875,-0.3539940551787615,0.03717033148705959,0.1243351124599576
1772526368598783500,4.929783447265625,-0.3577390869259834,0.08583879306614399,0.12681392366364597
1772526368608765700,4.939765625,-0.33481998363137244,0.12887743206471203,0.09686835579834878
1772526368618748700,4.949748779296875,-0.3028454672217369,0.15180939484089612,0.042868031672015784
1772526368628730600,4.959730712890625,-0.28049861085712907,0.13025953407287597,0.015570567162707447
1772526368638712600,4.969712646484375,-0.2509539519429207,0.09176029206961393,0.010082564205676317
1772526368648695800,4.97969580078125,-0.17703414472937584,0.07398731949180364,-0.022287673523277044
1772526368658677500,4.989677490234375,-0.08413724984526634,0.08567454241514205,-0.05064421863146126
1772526368668659700,4.99965966796875,0.05488718996345997,0.1013335915789008,-0.0729575380526483
1772526368678641700,5.0096416015625,0.1957739165127277,0.06922960357069968,-0.09730806238986552
1772526368688624600,5.019624755859375,0.3400105380117893,0.004086977052688599,-0.17387334261089563
1772526368698606600,5.029606689453125,0.3701742056071758,-0.10203209523707628,-0.3110484282258898
1772526368708588500,5.039588623046875,0.2970990325242281,-0.2234247245043516,-0.46873497147187587
1772526368718570800,5.04957080078125,0.24440029251575468,-0.2701435133203864,-0.5362795445650815
1772526368728553500,5.059553466796875,0.22890929339528082,-0.23401012366563081,-0.46940424903556704
1772526368738535700,5.06953564453125,0.14668752178251743,-0.1363651574715972,-0.33707740716934204
1772526368748517600,5.079517578125,0.034300913530588145,-0.03065598115697503,-0.21474618187770247
1772526368758500600,5.08950048828125,-0.014018588480353355,0.12982874144017695,-0.19374752525165675
1772526368768482600,5.099482666015625,-0.0026537293791770934,0.23769991809427737,-0.19489508785158394
1772526368778464500,5.109464599609375,0.08130056511461735,0.25927023712843655,-0.18027013097591696
1772526368788446700,5.11944677734375,0.21359715797305107,0.24144699566811323,-0.15423713344447315
1772526368798429400,5.129429443359375,0.33536300446689127,0.21036796679347752,-0.12550722497925162
1772526368808411600,5.13941162109375,0.44263446166217324,0.1717562043264508,-0.12886333047412335
1772526368818393600,5.1493935546875,0.5059773452818394,0.1604869145542383,-0.13767645926587282
1772526368828376600,5.15937646484375,0.5237590856879949,0.14447949034422636,-0.13504092313051222
1772526368838358500,5.169358642578125,0.4586801720559597,0.10146481674313544,-0.10738112811483443
1772526368848340500,5.179340576171875,0.43129298343658445,0.11788462114632128,-0.09382460418827832
1772526368858322700,5.18932275390625,0.3844564134597778,0.14142740929722786,-0.09195639916360378
1772526368868305700,5.1993056640625,0.3460445574790239,0.12339520126134157,-0.05598660257272422
1772526368878287600,5.20928759765625,0.32860242429077624,0.09390665644854307,-0.012418752068281172
1772526368888269600,5.21926953125,0.28869010061919687,0.068906362965703,-0.02540602473951876
1772526368898252800,5.229252685546875,0.2666980490416288,0.04052431809008121,-0.014461363811790943
1772526368908234500,5.239234375,0.24131343241631983,0.026017946092784402,-0.006167728849500417
1772526368918216700,5.249216796875,0.21328268519639967,0.02714695012271404,0.010345452925562859
1772526368928198700,5.25919873046875,0.16832944474816322,0.028048575137555598,0.017415464377030728
1772526368938181600,5.269181640625,0.11194763231277464,0.02940057426840067,-0.014880612137168644
1772526368948163600,5.27916357421875,0.05507365244626999,-0.012554653407633305,-0.04682977490983903
1772526368958145500,5.2891455078125,0.0030126258194446563,-0.05410451515316963,-0.04385938079692423
1772526368968128800,5.299128662109375,-0.00046878655552864073,-0.05325681228265166,-0.004261822162941098
1772526368978110500,5.3091103515625,0.0010158990442752838,-0.05308920063078403,0.037979382847622034
1772526368988092700,5.3190927734375,0.012484803041815757,-0.024360680405050513,0.03203983673080802
1772526368998074600,5.32907470703125,0.06202361771464347,-0.031054917346686122,0.024620938776433468
1772526369008057600,5.3390576171875,0.06358721376955509,-0.07321808868497609,0.07127024255283176
1772526369018039800,5.349039794921875,0.03392740404307842,-0.14271438036784528,0.08767185371220111
1772526369028021500,5.359021484375,-0.005909516304731369,-0.18461480911672115,0.04192380962446332
1772526369038003700,5.369003662109375,-0.04599778106510639,-0.1831860914878547,0.0028058512009680268
1772526369047986400,5.378986328125,-0.10293021312057972,-0.20989041240960357,-0.0356723480142653
1772526369057968600,5.38896875,-0.15302140097916125,-0.2234180025026202,-0.1198039718363434
1772526369067950800,5.398950927734375,-0.16763853987455368,-0.2481086455143988,-0.15755582953840494
1772526369077933600,5.40893359375,-0.15826865398287773,-0.2690951733112335,-0.17168065487220882
1772526369087915800,5.418915771484375,-0.14953531242907048,-0.2565897658728063,-0.14556881995089352
1772526369097897500,5.4288974609375,-0.19639526328146456,-0.2261879056073725,-0.07376732006557285
1772526369107879700,5.438879638671875,-0.2482815178632736,-0.16577026178464294,-0.007660890016704797
1772526369117862700,5.448862548828125,-0.27587328914403914,-0.08028072054758667,0.018325199633091687
1772526369127844400,5.45884423828125,-0.3005564795017242,-0.029485768333822486,0.011051116976886988
1772526369137826600,5.46882666015625,-0.3251695272326469,-0.014128624726086855,-0.011216171345487237
1772526369147809300,5.478809326171875,-0.28496961879134175,-0.00576762361600995,-0.04114201159700751
1772526369157791500,5.48879150390625,-0.19189035307765007,-0.009554594808816909,-0.0399895536262542
1772526369167773200,5.498773193359375,-0.11884206800162792,-0.0008025485545396804,-0.028363413240388033
1772526369177755400,5.50875537109375,-0.08081248933672905,0.021494185058027505,-0.010581088312342762
1772526369187738400,5.51873828125,-0.04483750511407852,0.06918196503669023,0.014552768422290682
1772526369197720300,5.52872021484375,0.017038813084363936,0.10904197399914264,0.03190788091421127
1772526369207702300,5.538702392578125,0.08025777806341648,0.1437643278121948,0.02833374875448644
1772526369217685500,5.548685546875,0.14450667061209677,0.15784122235104442,0.011181611488759517
1772526369227667500,5.55866748046875,0.21034896983206272,0.1671966413259506,0.010863266254588961
1772526369237649400,5.5686494140625,0.2628916424959898,0.15429185930639505,0.028536723980680107
1772526369247631400,5.57863134765625,0.3100549602091312,0.1255105859801173,0.033682781632244585
1772526369257614300,5.5886142578125,0.32459669578075406,0.11623144711181521,0.02496025373339653
1772526369267596300,5.59859619140625,0.32234979363679883,0.07511530060842633,0.037500951680913566
1772526369277578200,5.608578125,0.29765900449454785,0.049056730244308705,0.029508491622284052
1772526369287560400,5.618560546875,0.28023382244110107,0.06921382147967815,0.018787556447833774
1772526369297543200,5.628543212890625,0.2541162153661251,0.08979206073656677,0.023846885664016007
1772526369307525400,5.638525390625,0.22976561796367168,0.11530950996130704,0.008172054409235715
1772526369317507300,5.64850732421875,0.2316162142664194,0.11840016945302485,0.0027400194231420754
1772526369327490300,5.658490234375,0.20656419059634207,0.11784765013679861,0.023790552366897463
1772526369337472500,5.668472412109375,0.15056523999869822,0.1139684706158936,0.04570544705502689
1772526369347454200,5.6784541015625,0.0385381127089262,0.09491641801297664,0.046889834534004325
1772526369357436400,5.6884365234375,-0.0682575436681509,0.10650178799703716,0.012318287368491292
1772526369367419100,5.698419189453125,-0.12246201206445693,0.09970832846462727,-0.008205956678837537
1772526369377401300,5.7084013671875,-0.15208032073676586,0.07502981428205967,-0.0015645459029823541
1772526369387383600,5.718383544921875,-0.12870879749953745,0.04902107440903782,0.021197467133775353
1772526369397366300,5.7283662109375,-0.07967384069561957,0.026146833169460294,0.045108504075184463
1772526369407348500,5.738348388671875,-0.05270107809603214,0.033157442583888766,0.0026066753670573235
1772526369417330200,5.748330078125,-0.002023614782094955,0.027897622359544037,0.019654913866892457
1772526369427312400,5.7583125,-0.018250526961684225,-0.024750702635943887,0.006083046240732073
1772526369437295400,5.76829541015625,-0.029350597646832465,-0.06722147861868143,-0.032774507680907845
1772526369447277300,5.77827734375,-0.05508475836217403,-0.08499664315357804,-0.11947963525280356
1772526369457259500,5.788259521484375,-0.03188566908240318,-0.10199965427219868,-0.13574717170372605
1772526369467242200,5.7982421875,0.014879004701972006,-0.10352335670813917,-0.11443426149673759
1772526369477224400,5.808224365234375,0.06388122828006744,-0.10410992442443966,-0.11509594027586281
1772526369487206400,5.818206298828125,0.12503507742285727,-0.13439298061579466,-0.08138459013625979
1772526369497188400,5.828188232421875,0.11990355975329875,-0.14101649040877817,-0.062104500931128855
1772526369507171300,5.83817138671875,0.08416472237408161,-0.13451660699546336,-0.08099807503670453
1772526369517153300,5.8481533203125,0.03604045067429543,-0.14328326629698276,-0.10947802732884883
1772526369527135500,5.858135498046875,0.01795242079794407,-0.13478870193511247,-0.1315849374577403
1772526369537117200,5.8681171875,0.05524900901317596,-0.10120967293828725,-0.1359258892714977
1772526369547100400,5.878100341796875,0.12727964147925377,-0.08166662194803356,-0.10268814799301326
1772526369557082400,5.888082275390625,0.14036942467689514,-0.11643982916548848,-0.14078472747951745
1772526369567064300,5.898064208984375,0.14654840557277202,-0.10593202528506517,-0.1316234428372234
1772526369577047300,5.90804736328125,0.1287502985537052,-0.1282107848495245,-0.05834354096241295
1772526369587029500,5.918029541015625,0.09974456882178782,-0.10962313488796353,-0.009838087925314903
1772526369597011200,5.92801123046875,0.05850304237306118,-0.06687193452864885,-0.02364310672022402
1772526369606993400,5.937993408203125,0.01472118379175663,-0.06452084135785699,-0.06304631182588637
1772526369616976400,5.947976318359375,-0.0068634560286998745,-0.07743029955253004,-0.030792686213925478
1772526369626958300,5.957958251953125,-0.05786065281629562,-0.10494169907346368,0.05105499138943851
1772526369636940300,5.967940185546875,-0.144698393791914,-0.07376797765269875,0.08742116688676178
1772526369646923300,5.97792333984375,-0.19492752881646155,0.005918284133076667,0.07944931122474372
1772526369656905500,5.987905517578125,-0.18461890076994894,0.09541106966212391,0.0995702351681888
1772526369666887200,5.99788720703125,-0.16043839923739434,0.16036460334882138,0.15885390652492642
1772526369676869400,6.007869384765625,-0.11129413684010506,0.2109726546883583,0.20005276287570595
1772526369686852400,6.017852294921875,-0.024594927552342414,0.23487375475764274,0.2214870344400406
1772526369696834300,6.027834228515625,0.05194704485833645,0.20300357550531625,0.21427644547410307
1772526369706816500,6.03781640625,0.03752630531787872,0.11987345687597989,0.192407070428133
1772526369716798200,6.047798095703125,-0.0003647416591644287,0.06005977029576897,0.1061395305559039
1772526369726781400,6.057781494140625,0.00727671300470829,0.03417787167280912,0.02667641000151634
1772526369736763400,6.067763427734375,0.0229354699075222,0.039624154379963875,0.07006386243775486
1772526369746745300,6.077745361328125,0.015439561194181441,0.07058145657107233,0.09127418905310332
1772526369756728300,6.087728271484375,0.01295475864112377,0.1422195825882256,0.09081519323922693
1772526369766710300,6.097710205078125,0.01991349173784256,0.19613398199677468,0.15841171571537851
1772526369776692500,6.1076923828125,0.03649871583580971,0.18929916754066942,0.2160021732881665
1772526369786674200,6.117674072265625,0.026321020692586898,0.1793130494467914,0.1933683897409588
1772526369796657400,6.127657470703125,0.005437222617864609,0.17268325604349374,0.14676438641101122
1772526369806639400,6.137639404296875,0.003219546568393707,0.1673193909227848,0.1378187172807753
1772526369816621300,6.147621337890625,0.0022007249146699906,0.18069412854164837,0.124306836213544
1772526369826604300,6.157604248046875,0.043159927290678024,0.1719599102050066,0.1044922748055309
1772526369836586500,6.16758642578125,0.07714987517595291,0.14505276018753646,0.07019903312474489
1772526369846568400,6.177568359375,0.1065910737156868,0.10791340836063026,0.02944697069339454
1772526369856550400,6.18755029296875,0.14191431603133678,0.06131868431568145,0.013716244532912968
1772526369866533400,6.197533447265625,0.15801614052653312,0.0032205694817006585,0.003012406623736024
1772526369876515300,6.207515380859375,0.13422785318195818,-0.02883826421052217,-0.029371859630569815
1772526369886497300,6.217497314453125,0.07275076343417167,-0.01852232964038849,-0.07613090739175676
1772526369896479500,6.2274794921875,0.012400631889700888,-0.008613806827366352,-0.07579517263136804
1772526369906462500,6.23746240234375,-0.05115735578536987,-0.007011486197263002,-0.07453786604665219
1772526369916444400,6.2474443359375,-0.08009411193430423,0.035855887887626885,-0.09962729911766946
1772526369926426400,6.25742626953125,-0.07646364647746086,0.052477498473227024,-0.10410634422786533
1772526369936409600,6.26740966796875,-0.05901099189519882,0.042137306244671345,-0.12467859213538467
1772526369946391300,6.277391357421875,-0.032983985713124275,0.033236645299941296,-0.14239559674225746
1772526369956373500,6.28737353515625,-0.026218729361891745,-0.021180735194683074,-0.13850925682820378
1772526369966355200,6.297355224609375,-0.00027297172248363493,-0.05351707065403461,-0.12120112528316676
1772526369976338400,6.30733837890625,0.019366963770985603,-0.06752221513092517,-0.14148133144155145
1772526369986320400,6.3173203125,0.03299801423847675,-0.07745455721095204,-0.1544204541221261
1772526369996302300,6.32730224609375,0.036685762840509416,-0.09525339488238095,-0.15586005847118795
1772526370006285300,6.337285400390625,0.023134791871905324,-0.10557897406369447,-0.1334292501501739
1772526370016267300,6.347267333984375,0.07810089229047298,-0.1006198903515935,-0.12537914162017405
1772526370026249500,6.35724951171875,0.05691489639878273,-0.09825301508978009,-0.13907017864659427
1772526370036231200,6.367231201171875,0.03755202428102493,-0.07094429853409528,-0.08233918744735419
1772526370046214400,6.37721435546875,0.02659925311207771,-0.024724691411852837,-0.06105879127047956
1772526370056196400,6.3871962890625,0.04973170689642429,0.03252119050696492,-0.05975106967277825
1772526370066178300,6.39717822265625,0.07201426585316657,0.03963672160059213,-0.04211823621802032
1772526370076160500,6.407160400390625,0.0983341175019741,0.04386281486302614,-0.06847615485489368
1772526370086143200,6.417143310546875,0.14888824669718742,0.05787307390645146,-0.06529401768743992
1772526370096125400,6.42712548828125,0.1663391477137804,0.05916808215305209,-0.06769238406606018
1772526370106107400,6.437107421875,0.16102175208330152,0.0798961051441729,-0.03486665765456855
1772526370116090400,6.44709033203125,0.1314478670746088,0.07489961203113198,-0.0014078940365463495
1772526370126072300,6.457072265625,0.11412614539563655,0.08434402446374296,0.003350479471683502
1772526370136054300,6.46705419921875,0.06363572908639907,0.10170987754538655,-0.04451207255199551
1772526370146036500,6.477036376953125,0.06449030008912086,0.13422098504975438,-0.09443155710548162
1772526370156019500,6.48701953125,0.15137188020646572,0.1494841667637229,-0.08305946454592049
1772526370166001400,6.49700146484375,0.23028934957683084,0.17338950461670755,-0.0676317399200052
1772526370175983400,6.5069833984375,0.2841232310950756,0.1883802991300821,0.012873363967984913
1772526370185966300,6.51696630859375,0.2814046197861433,0.2169466145314276,0.08395422142855823
1772526370195948300,6.5269482421875,0.22066168953180312,0.24645664052367208,0.04579845910072326
1772526370205930500,6.536930419921875,0.13969371737241745,0.2549244630090892,0.03634586336165666
1772526370215912400,6.546912353515625,0.05873100591003894,0.22974764391556382,0.03729848791137338
1772526370225895400,6.5568955078125,-0.006945873615145683,0.18026655077934264,0.030993615613505242
1772526370235877400,6.56687744140625,-0.02412789456248283,0.13710136279165744,0.007914645582064986
1772526370245859300,6.576859375,0.004873743516206741,0.08748042279332875,-0.02708192206248641
1772526370255841300,6.58684130859375,0.06335457405745983,0.0364304729051888,-0.04078640309236944
1772526370265824300,6.59682421875,0.08880991783142089,-0.032216946863383056,-0.011325330808386207
1772526370275806500,6.606806396484375,0.06321838045716285,-0.06905541604757308,-0.02649513515047729
1772526370285788400,6.616788330078125,-0.0008797054439783096,-0.0673711162224412,-0.06407850441783666
1772526370295771400,6.626771484375,-0.07077741753458976,-0.08528583535850047,-0.09077201168462634
1772526370305753300,6.63675341796875,-0.09696808984577655,-0.08521583886221051,-0.12154986565560101
1772526370315735300,6.6467353515625,-0.0687806907594204,-0.0889490340411663,-0.12448971849977969
1772526370325717500,6.656717529296875,-0.03847615338861942,-0.1021017994724214,-0.12880948139503598
1772526370335700200,6.6667001953125,-0.018473814323544502,-0.10048413514271377,-0.1629069813080132
1772526370345682400,6.676682373046875,-0.00027297172248363493,-0.09582958733513951,-0.16597586735934017
1772526370355664100,6.6866640625,0.018178046247363088,-0.10151976180076598,-0.13742811052799225
1772526370365646300,6.696646240234375,0.06926058323085307,-0.09654796473756432,-0.1233556729685515
1772526370375629300,6.70662939453125,0.15896365050971506,-0.08065846781879663,-0.10303053168989718
1772526370385611300,6.716611328125,0.22926468270421027,-0.057470776715874666,-0.06633264002017676
1772526370395593500,6.726593505859375,0.2919868040770292,-0.03095788671299815,-0.0571131954498589
1772526370405576400,6.736576416015625,0.31401918766498566,-0.03151259798631072,-0.08124467020891607
1772526370415558400,6.746558349609375,0.33666999541223047,-0.03716068687587976,-0.1290060999456793
1772526370425540400,6.756540283203125,0.38003976606130596,-0.020867139200866223,-0.1874607000671327
1772526370435522300,6.766522216796875,0.424501423600316,-0.03442103277891874,-0.1945557728946209
1772526370445505300,6.77650537109375,0.4044885631412267,-0.0791493784300983,-0.14460121702775358
1772526370455487200,6.7864873046875,0.332118323457241,-0.10180910013616085,-0.1173432808112353
1772526370465469400,6.796469482421875,0.23282851266562937,-0.0841457254126668,-0.14676548238955436
1772526370475452400,6.806452392578125,0.1667360380768776,-0.028354864607751367,-0.159296681856364
1772526370485434400,6.816434326171875,0.11412088469862937,0.034393121858686204,-0.1439891495440155
1772526370495416300,6.826416259765625,0.06104688163697719,0.06422375810742378,-0.1323747726611793
1772526370505398300,6.836398193359375,-0.03615501696467399,0.056918111269176,-0.11055573956295847
1772526370515381200,6.84638134765625,-0.11245324374735355,0.06370587171316147,-0.09706066350005567
1772526370525363500,6.856363525390625,-0.1616506976366043,0.03334551250189543,-0.07016819959506392
1772526370535345400,6.866345458984375,-0.18898060311079024,0.0444451447956264,-0.060304831098020074
1772526370545327400,6.876327392578125,-0.2042062292933464,0.07976561063230037,-0.02668335119895637
1772526370555310300,6.886310302734375,-0.2339554708689451,0.09493132332116365,0.03372019103318453
1772526370565292300,6.896292236328125,-0.24500702623724935,0.07674903929010034,0.09222337953671812
1772526370575274500,6.9062744140625,-0.2616600548744202,0.05502338356375694,0.0914577289264649
1772526370585257200,6.91625732421875,-0.2588543498039245,0.03736702310293913,0.0752514211434871
1772526370595239400,6.926239501953125,-0.2265361345231533,0.004642272847890853,0.08923764172419905
1772526370605221400,6.936221435546875,-0.18107202194333075,-0.0029978666417300698,0.08579151985831558
1772526370615203300,6.946203369140625,-0.10282266109287738,0.022039836242049932,0.0731822867192328
1772526370625186600,6.9561865234375,-0.009709493109583854,0.031467735931277274,0.05673435220010578
1772526370635168300,6.966168212890625,0.0644715953886509,0.03260156226679683,0.06127857150100171
1772526370645150500,6.976150390625,0.0985521441668272,-0.007347440153360366,0.10022321918420493
1772526370655132400,6.98613232421875,0.10917582951188087,-0.04976151751279831,0.11109437648430466
1772526370665115400,6.996115478515625,0.1373293263286352,-0.034494098015129565,0.08769209278263151
1772526370675097300,7.006097412109375,0.11694295638203621,-0.013588672630488872,0.07710618216469883
1772526370685079300,7.016079345703125,0.04058627741038799,-0.034113282003998754,0.04742854452058673
1772526370695062300,7.026062255859375,-0.0046533787637948985,-0.01613645741716027,0.010580942181870341
1772526370705044200,7.036044189453125,-0.014958499678969383,-0.03877688990086317,0.029862858017906543
1772526370715026400,7.0460263671875,-0.008543956461548805,-0.04236950756534934,0.048355596237629646
1772526370725008100,7.056008056640625,0.012892799320816993,-0.035518472626805304,0.02503324590437114
1772526370734991400,7.065991455078125,0.03566168048977852,-0.039325463694334026,0.027520094284042715
1772526370744973300,7.075973388671875,0.07024199548363685,-0.03237038385942578,0.01051072648987174
1772526370754955300,7.085955322265625,0.08810439991056919,-0.03269274768158793,0.016834303488209842
1772526370764938200,7.095938232421875,0.10910860949456691,-0.02756751362234354,0.044661417894810436
1772526370774920400,7.10592041015625,0.12468845594227314,-0.00021378888115286825,0.03153831694945693
1772526370784902400,7.11590234375,0.12364683793485164,0.0005304536148905754,0.006648351973295211
1772526370794884400,7.12588427734375,0.12856734320223331,-0.00798413062170148,0.030373218692839144
1772526370804867300,7.135867431640625,0.1265980889558792,-0.008557254334539174,0.05276669067814946
1772526370814849300,7.145849365234375,0.07681435961127281,-0.01488280409425497,0.03295169087871909
1772526370824831200,7.155831298828125,0.03219546568393707,-0.007062777993083,0.037660891482979054
1772526370834813400,7.1658134765625,0.0159685535043478,0.028447949718683956,0.02266286351121962
1772526370844796400,7.17579638671875,0.03357143021225929,0.04451587194427847,0.022301775113865732
1772526370854778400,7.1857783203125,0.04797931027114391,0.004497165288776159,0.010599208490923046
1772526370864760300,7.19576025390625,0.08727379430532455,-0.009205050718784332,-0.045019875943660734
1772526370874743600,7.20574365234375,0.08635083424150944,-0.041399931880831714,-0.04885638536661863
1772526370884725200,7.215725341796875,0.07103928334116935,-0.07459829099699855,-0.06594502894207835
1772526370894707500,7.22570751953125,0.05376315436959266,-0.06092369364872575,-0.11997048750966786
1772526370904689400,7.235689453125,0.0973147113263607,-0.06584960574358702,-0.14815028781145811
1772526370914672400,7.24567236328125,0.13171557810008525,-0.06774623314514756,-0.13476502879858016
1772526370924654300,7.255654296875,0.18727146110534668,-0.03560527412742376,-0.10762772328704595
1772526370934636300,7.26563623046875,0.30163199977874755,-0.028519115258753298,-0.08395531740710138
1772526370944618500,7.275618408203125,0.2584609665721655,-0.13897972388416527,-0.08518281337544321
1772526370954601200,7.285601318359375,0.15764496912658213,-0.14899565259441733,-0.10249342913851141
1772526370964583400,7.29558349609375,0.09666472298502922,-0.18312281699329613,0.02589782684445381
1772526370974565400,7.3055654296875,0.03312134835720062,-0.19936960291713476,0.007201309680938721
1772526370984547300,7.31554736328125,0.0690244363874197,-0.1367690620973706,-0.10627528576478361
1772526370994530600,7.325530517578125,0.1886684684216976,-0.06364961148127914,-0.08522694477811456
1772526371004512300,7.33551220703125,0.29202888965308665,-0.009482114094495772,-0.010705664540082215
