time,seconds_elapsed,z,y,x
1772526363757372200,0.0883720703125,0.2520405352115631,-0.32223471999168396,0.044238198548555374
1772526363767355100,0.098355224609375,0.21702219545841217,-0.35283371806144714,0.08574933558702469
1772526363777337000,0.108337158203125,0.17823699116706848,-0.39091187715530396,0.12593111395835876
1772526363787319300,0.1183193359375,0.15219232439994812,-0.39364439249038696,0.1653517633676529
1772526363797301000,0.128301025390625,0.15045994520187378,-0.36210164427757263,0.20130950212478638
1772526363807284200,0.1382841796875,0.15611127018928528,-0.3161304295063019,0.23469558358192444
1772526363817266200,0.14826611328125,0.15773899853229523,-0.2658906877040863,0.2577529847621918
1772526363827248000,0.158248046875,0.1578204184770584,-0.22064490616321564,0.28381791710853577
1772526363837231000,0.168231201171875,0.1529737263917923,-0.18435321748256683,0.3082018196582794
1772526363847213000,0.178213134765625,0.14652088284492493,-0.15199695527553558,0.3297438621520996
1772526363857195300,0.1881953125,0.13214966654777527,-0.12460663169622421,0.35011014342308044
1772526363867178200,0.19817822265625,0.11537995934486389,-0.09397262334823608,0.3655690550804138
1772526363877160200,0.20816015625,0.10760139673948288,-0.04904909431934357,0.37443816661834717
1772526363887142100,0.21814208984375,0.09837573766708374,-0.005442056804895401,0.3762495815753937
1772526363897125000,0.228125,0.09687371551990509,0.02663971297442913,0.36985987424850464
1772526363907107000,0.238107177734375,0.09496545791625977,0.05425962805747986,0.3581652045249939
1772526363917089300,0.24808935546875,0.08443185687065125,0.0794755071401596,0.34588485956192017
1772526363927071000,0.258071044921875,0.0632346123456955,0.10117373615503311,0.3317717909812927
1772526363937054200,0.26805419921875,0.03135018050670624,0.10829716175794601,0.30692341923713684
1772526363947036000,0.278035888671875,0.003084892872720957,0.1095195859670639,0.2663201689720154
1772526363957018000,0.28801806640625,-0.024870574474334717,0.09505942463874817,0.2259724885225296
1772526363967001000,0.2980009765625,-0.03969045728445053,0.10513266921043396,0.1814315766096115
1772526363976983000,0.307983154296875,-0.04220714420080185,0.11065100133419037,0.1394180804491043
1772526363986965200,0.31796533203125,-0.030740370973944664,0.11283399909734726,0.10220998525619507
1772526363996948000,0.327947998046875,-0.022935977205634117,0.1187419518828392,0.07433627545833588
1772526364006930200,0.33793017578125,-0.021579355001449585,0.12522122263908386,0.04864581301808357
1772526364016912100,0.347912109375,-0.02347658947110176,0.12406966835260391,0.02600308321416378
1772526364026894000,0.35789404296875,-0.031046444550156593,0.13492588698863983,-0.0033896053209900856
1772526364036877000,0.367876953125,-0.03193674236536026,0.1425904631614685,-0.0389593169093132
1772526364046859000,0.37785888671875,-0.03240823373198509,0.1680627316236496,-0.07701710611581802
1772526364056841200,0.38784130859375,-0.028526674956083298,0.20626550912857056,-0.12151452898979187
1772526364066824200,0.39782421875,-0.021083468571305275,0.26095032691955566,-0.16239985823631287
1772526364076806100,0.40780615234375,-0.015766732394695282,0.3282358944416046,-0.20611777901649475
1772526364086788000,0.4177880859375,-0.017028236761689186,0.40087956190109253,-0.2515918016433716
1772526364096771000,0.42777099609375,-0.019123878329992294,0.44805479049682617,-0.28761613368988037
1772526364106753000,0.4377529296875,-0.02264373190701008,0.4498775005340576,-0.31290262937545776
1772526364116734700,0.447734619140625,-0.017436986789107323,0.41399165987968445,-0.31995150446891785
1772526364126716700,0.457716552734375,-0.005897970404475927,0.3707270920276642,-0.306738018989563
1772526364136699600,0.46769970703125,0.021841250360012054,0.3146531581878662,-0.27365997433662415
1772526364146681600,0.477681640625,0.05452215299010277,0.26112112402915955,-0.2212105244398117
1772526364156663600,0.48766357421875,0.08829263597726822,0.22776556015014648,-0.16146409511566162
1772526364166646800,0.497646728515625,0.12232550978660583,0.21441125869750977,-0.09994275867938995
1772526364176628500,0.50762841796875,0.15020188689231873,0.17478421330451965,-0.0460350438952446
1772526364186610700,0.517610595703125,0.16194085776805878,0.08740203827619553,-0.009834188967943192
1772526364196593700,0.52759375,0.15969501435756683,-0.052032820880413055,0.010684934444725513
1772526364206575600,0.53757568359375,0.14746522903442383,-0.21626393496990204,0.028027191758155823
1772526364216557800,0.547557861328125,0.13651564717292786,-0.3805418014526367,0.04373771324753761
1772526364226539500,0.55753955078125,0.12198580056428909,-0.5368051528930664,0.0630926564335823
1772526364236522800,0.567522705078125,0.08991255611181259,-0.666244387626648,0.08905581384897232
1772526364246504400,0.57750439453125,0.050997987389564514,-0.7866359949111938,0.10357663035392761
1772526364256486700,0.587486572265625,0.007127202581614256,-0.9175063967704773,0.10279472917318344
1772526364266469600,0.5974697265625,-0.03116185963153839,-1.0277961492538452,0.09539566189050674
1772526364276451600,0.60745166015625,-0.05875753238797188,-1.0089894533157349,0.10600116848945618
1772526364286433800,0.617433837890625,-0.07730112969875336,-0.8974221348762512,0.1292084902524948
1772526364296416800,0.627416748046875,-0.0798519030213356,-0.7274746298789978,0.14845462143421173
1772526364306398700,0.637398681640625,-0.06878984719514847,-0.537348747253418,0.15496888756752014
1772526364316380700,0.647380615234375,-0.03352053835988045,-0.3502451479434967,0.13815928995609283
1772526364326362600,0.657362548828125,0.012172386050224304,-0.1948709934949875,0.10823280364274979
1772526364336345600,0.667345703125,0.06492295116186142,-0.061944905668497086,0.06634634733200073
1772526364346327600,0.67732763671875,0.11015482991933823,0.0538126677274704,0.0198686383664608
1772526364356309800,0.687309814453125,0.14672349393367767,0.13370856642723083,-0.03663858026266098
1772526364366292700,0.697292724609375,0.1640823483467102,0.1829657256603241,-0.10446485877037048
1772526364376274700,0.707274658203125,0.16960947215557098,0.2151108831167221,-0.1665346324443817
1772526364386256600,0.717256591796875,0.16097266972064972,0.24165500700473785,-0.2260608822107315
1772526364396240000,0.727239990234375,0.14165915548801422,0.281075119972229,-0.2726243734359741
1772526364406221600,0.7372216796875,0.11836560815572739,0.31462231278419495,-0.3089475631713867
1772526364416203800,0.747203857421875,0.08962716907262802,0.34849533438682556,-0.34529680013656616
1772526364426186500,0.7571865234375,0.061833493411540985,0.3832646310329437,-0.38283661007881165
1772526364436168700,0.767168701171875,0.04459618404507637,0.4206186532974243,-0.42504292726516724
1772526364446150700,0.777150634765625,0.024651160463690758,0.4241270124912262,-0.46451911330223083
1772526364456132600,0.787132568359375,-0.0021255919709801674,0.39664769172668457,-0.4904252886772156
1772526364466115800,0.79711572265625,-0.034163061529397964,0.3511267602443695,-0.49239346385002136
1772526364476097500,0.80709765625,-0.06506478786468506,0.3031917214393616,-0.4707486033439636
1772526364486079700,0.817079833984375,-0.09037370979785919,0.2413884848356247,-0.4307968318462372
1772526364496062700,0.827062744140625,-0.10613855719566345,0.16131681203842163,-0.3809216618537903
1772526364506044700,0.837044677734375,-0.11635354161262512,0.08425534516572952,-0.3250579833984375
1772526364516026600,0.847026611328125,-0.12022285163402557,0.039976030588150024,-0.2617131173610687
1772526364526009600,0.857009521484375,-0.12469066679477692,0.006325659342110157,-0.2016720473766327
1772526364535991600,0.866991455078125,-0.12790536880493164,-0.025600848719477654,-0.14705859124660492
1772526364545973500,0.876973388671875,-0.12130279839038849,-0.07001250237226486,-0.09571050852537155
1772526364555955700,0.886955810546875,-0.09984996914863586,-0.10774389654397964,-0.05435428023338318
1772526364565938700,0.896938720703125,-0.08096803724765778,-0.11776446551084518,-0.008762689307332039
1772526364575920600,0.906920654296875,-0.06900991499423981,-0.11902280896902084,0.028246460482478142
1772526364585902600,0.916902587890625,-0.06857384741306305,-0.11808694154024124,0.06502966582775116
1772526364595885800,0.9268857421875,-0.07386235147714615,-0.12052692472934723,0.08600685000419617
1772526364605867500,0.936867431640625,-0.07189054787158966,-0.15304625034332275,0.0903126522898674
1772526364615849700,0.946849609375,-0.07762203365564346,-0.20315362513065338,0.07427866011857986
1772526364625831700,0.956831787109375,-0.09223102033138275,-0.23826265335083008,0.04359207674860954
1772526364635814700,0.966814697265625,-0.10547438263893127,-0.25538039207458496,0.018561825156211853
1772526364645796600,0.976796630859375,-0.11582091450691223,-0.2538236677646637,-0.0024977819994091988
1772526364655778600,0.986778564453125,-0.12845441699028015,-0.24373507499694824,-0.01980859413743019
1772526364665761800,0.99676171875,-0.12401115894317627,-0.22259323298931122,-0.024366077035665512
1772526364675743500,1.006743408203125,-0.11037658154964447,-0.17775678634643555,-0.01779685728251934
1772526364685725700,1.0167255859375,-0.085613913834095,-0.1175295040011406,0.003350420854985714
1772526364695708700,1.026708740234375,-0.06813904643058777,-0.04734029620885849,0.027566278353333473
1772526364705690600,1.036690673828125,-0.05437559261918068,0.013624615967273712,0.06516481935977936
1772526364715672800,1.0466728515625,-0.03751751780509949,0.05711616575717926,0.10269621014595032
1772526364725654500,1.056654541015625,-0.027116725221276283,0.07909590005874634,0.1419585794210434
1772526364735637800,1.0666376953125,-0.015735972672700882,0.07672195136547089,0.17285259068012238
1772526364745619500,1.076619384765625,-0.005266098305583,0.03531743213534355,0.19188600778579712
1772526364755601700,1.0866015625,0.008041983470320702,-0.03280995786190033,0.19904831051826477
1772526364765584600,1.096584716796875,0.03025980293750763,-0.08776276558637619,0.2132236361503601
1772526364775566600,1.106566650390625,0.05931489169597626,-0.11409370601177216,0.22564010322093964
1772526364785548800,1.116548828125,0.07766925543546677,-0.11854677647352219,0.24245226383209229
1772526364795531800,1.12653173828125,0.09025109559297562,-0.11391554027795792,0.24631570279598236
1772526364805513700,1.136513671875,0.10178668051958084,-0.10423091053962708,0.2457456737756729
1772526364815495700,1.14649560546875,0.10806295275688171,-0.09851683676242828,0.22960186004638672
1772526364825477600,1.1564775390625,0.11471385508775711,-0.09525406360626221,0.20536769926548004
1772526364835460600,1.166460693359375,0.11803960800170898,-0.07833819091320038,0.17968018352985382
1772526364845442600,1.176442626953125,0.12445737421512604,-0.06220436468720436,0.15215474367141724
1772526364855424800,1.1864248046875,0.12840551137924194,-0.04865313321352005,0.11953394114971161
1772526364865407700,1.19640771484375,0.13107354938983917,-0.031512368470430374,0.09215603768825531
1772526364875389700,1.2063896484375,0.14271023869514465,-0.014713946729898453,0.069894939661026
1772526364885371600,1.21637158203125,0.15183456242084503,0.028991321101784706,0.05789279192686081
1772526364895354600,1.226354736328125,0.15492303669452667,0.06890571862459183,0.04898212105035782
1772526364905336600,1.236336669921875,0.15282323956489563,0.12692967057228088,0.04898892343044281
1772526364915318800,1.24631884765625,0.15395428240299225,0.17329318821430206,0.03870299458503723
1772526364925300500,1.256300537109375,0.15054631233215332,0.1889565885066986,0.02598101645708084
1772526364935283700,1.26628369140625,0.14811190962791443,0.1837642341852188,0.016782991588115692
1772526364945265400,1.276265380859375,0.13795988261699677,0.16051775217056274,0.002255768980830908
1772526364955247600,1.28624755859375,0.12410905212163925,0.13531599938869476,-0.008210720494389534
1772526364965230600,1.296230712890625,0.11317969858646393,0.11226367205381393,-0.01804976910352707
1772526364975212500,1.306212646484375,0.10718545317649841,0.08674100786447525,-0.03587723523378372
1772526364985194800,1.31619482421875,0.10561134666204453,0.059164371341466904,-0.05599696561694145
1772526364995176400,1.326176513671875,0.10029593855142593,0.019482742995023727,-0.07345771044492722
1772526365005159700,1.33615966796875,0.09137499332427979,-0.031811077147722244,-0.08693847060203552
1772526365015141600,1.3461416015625,0.07657366991043091,-0.09310691803693771,-0.0976683497428894
1772526365025123600,1.35612353515625,0.06189198046922684,-0.16337400674819946,-0.10430578142404556
1772526365035106600,1.3661064453125,0.05402713268995285,-0.22637906670570374,-0.0981629341840744
1772526365045088800,1.3760888671875,0.04715926945209503,-0.2649732828140259,-0.08029249310493469
1772526365055070700,1.38607080078125,0.05377189815044403,-0.26893875002861023,-0.05644015222787857
1772526365065053700,1.3960537109375,0.056210849434137344,-0.24889110028743744,-0.03636395186185837
1772526365075035600,1.40603564453125,0.05614027753472328,-0.21464203298091888,-0.02687430940568447
1772526365085017600,1.416017578125,0.052425872534513474,-0.17628073692321777,-0.03560485690832138
1772526365094999600,1.42599951171875,0.04408032447099686,-0.13187599182128906,-0.054937541484832764
1772526365104982500,1.435982421875,0.03397300839424133,-0.07750346511602402,-0.08224417269229889
1772526365114964700,1.44596484375,0.01855064183473587,-0.011286091059446335,-0.10871226340532303
1772526365124947000,1.455947021484375,0.0032215798273682594,0.047461844980716705,-0.13344380259513855
1772526365134929700,1.4659296875,-0.006284573581069708,0.09773247689008713,-0.15481141209602356
1772526365144912000,1.475911865234375,-0.006948427297174931,0.1307906210422516,-0.16432614624500275
1772526365154893600,1.4858935546875,-0.006670127157121897,0.14171729981899261,-0.16966179013252258
1772526365164876800,1.495876708984375,-0.006291164550930262,0.14921298623085022,-0.16673685610294342
1772526365174858800,1.505858642578125,-0.008687210269272327,0.16311709582805634,-0.15500935912132263
1772526365184840700,1.5158408203125,-0.009344345889985561,0.1555376797914505,-0.14396987855434418
1772526365194823000,1.525822998046875,-0.005983436945825815,0.14230869710445404,-0.13524563610553741
1772526365204806000,1.535805908203125,0.0014530615881085396,0.15308697521686554,-0.11982741951942444
1772526365214787800,1.545787841796875,0.011247102171182632,0.16268953680992126,-0.1104229986667633
1772526365224769800,1.555769775390625,0.02756420150399208,0.16158922016620636,-0.08955171704292297
1772526365234752800,1.565752685546875,0.04439644515514374,0.159691721200943,-0.06895669549703598
1772526365244734700,1.575734619140625,0.05333029106259346,0.16057723760604858,-0.04557973891496658
1772526365254716700,1.585716552734375,0.06668684631586075,0.16021451354026794,-0.03081384114921093
1772526365264698600,1.59569873046875,0.07528882473707199,0.1529146283864975,-0.02435724064707756
1772526365274681900,1.605681884765625,0.08045695722103119,0.12760713696479797,-0.01316503994166851
1772526365284663600,1.61566357421875,0.08693883568048477,0.12333843111991882,-0.0037712855264544487
1772526365294645800,1.625645751953125,0.09680105000734329,0.13387416303157806,0.005276004783809185
1772526365304628700,1.635628662109375,0.10392165184020996,0.14209160208702087,0.010374786332249641
1772526365314610700,1.645610595703125,0.10871028155088425,0.13811497390270233,0.00934094749391079
1772526365324593000,1.655593017578125,0.10889723896980286,0.12866584956645966,0.0076604862697422504
1772526365334575600,1.66557568359375,0.10482047498226166,0.11241044849157333,0.0035387121606618166
1772526365344557800,1.675557861328125,0.10049612820148468,0.10401559621095657,-0.007877558469772339
1772526365354539500,1.68553955078125,0.09540895372629166,0.0876707136631012,-0.019576292484998703
1772526365364521700,1.695521728515625,0.09276601672172546,0.058624815195798874,-0.032531481236219406
1772526365374504700,1.705504638671875,0.0968819260597229,0.026065541431307793,-0.04698126018047333
1772526365384486700,1.715486572265625,0.1045609712600708,0.011188455857336521,-0.05774290859699249
1772526365394468900,1.72546875,0.10403899103403091,0.003094310639426112,-0.0638524666428566
1772526365404451800,1.735451904296875,0.10375155508518219,-0.011248841881752014,-0.07692130655050278
1772526365414433800,1.745433837890625,0.10723310708999634,-0.018288908526301384,-0.07760947197675705
1772526365424415700,1.755415771484375,0.10767731070518494,-0.01662823185324669,-0.07249458879232407
1772526365434398700,1.765398681640625,0.11061237752437592,-0.021286899223923683,-0.06073860079050064
1772526365444380700,1.775380615234375,0.11527831852436066,-0.02284734509885311,-0.04630035534501076
1772526365454362600,1.785362548828125,0.1181420162320137,-0.023782648146152496,-0.028825227171182632
1772526365464344800,1.7953447265625,0.11548639833927155,-0.019392261281609535,-0.009851355105638504
1772526365474327800,1.805327880859375,0.11478332430124283,-0.019070550799369812,0.0036530024372041225
1772526365484309800,1.815309814453125,0.10374635457992554,-0.027509672567248344,0.006923121865838766
1772526365494291700,1.825291748046875,0.09807328879833221,-0.0361899808049202,0.005466905422508717
1772526365504275000,1.83527490234375,0.09185589849948883,-0.03316327556967735,-0.003900772426277399
1772526365514256600,1.845256591796875,0.0840778648853302,-0.031059112399816513,-0.008717631921172142
1772526365524238800,1.85523876953125,0.0731707215309143,-0.032978784292936325,-0.012986239045858383
1772526365534220800,1.865220703125,0.059018947184085846,-0.017508745193481445,-0.017192702740430832
1772526365544203800,1.875203857421875,0.044124700129032135,0.0036544387694448233,-0.015492829494178295
1772526365554185700,1.885185791015625,0.027296720072627068,0.023367689922451973,-0.00511182751506567
1772526365564167700,1.895167724609375,0.00953182764351368,0.032643940299749374,0.003534671850502491
1772526365574151000,1.90515087890625,-0.0027690466959029436,0.038352690637111664,0.016408659517765045
1772526365584132600,1.915132568359375,-0.014217094518244267,0.037669721990823746,0.027709437534213066
1772526365594114800,1.92511474609375,-0.020243827253580093,0.04528849199414253,0.043886810541152954
1772526365604097800,1.935097900390625,-0.021403344348073006,0.054776180535554886,0.057756248861551285
1772526365614079700,1.945079833984375,-0.023856380954384804,0.06475318223237991,0.07173438370227814
1772526365624061700,1.955061767578125,-0.0292033851146698,0.07467951625585556,0.0778113529086113
1772526365634043600,1.965043701171875,-0.029187671840190887,0.08770503848791122,0.08721151947975159
1772526365644027000,1.97502685546875,-0.03703231364488602,0.09316001087427139,0.08220908790826797
1772526365654008600,1.985008544921875,-0.04403962194919586,0.09493793547153473,0.0785544291138649
1772526365663990800,1.99499072265625,-0.046696536242961884,0.10358057171106339,0.07016587257385254
1772526365673973800,2.004973876953125,-0.04685206711292267,0.11592751741409302,0.06191752478480339
1772526365683955700,2.014955810546875,-0.04943243786692619,0.1141730472445488,0.05928024649620056
1772526365693937700,2.024937744140625,-0.04960820451378822,0.12359264492988586,0.05650017410516739
1772526365703919600,2.034919677734375,-0.05269218608736992,0.13478370010852814,0.05630631372332573
1772526365713902600,2.044902587890625,-0.05251108855009079,0.1126198098063469,0.0509544238448143
1772526365723884800,2.054884765625,-0.05607006698846817,0.08978326618671417,0.04157896339893341
1772526365733866800,2.06486669921875,-0.06123420223593712,0.04903983324766159,0.027003217488527298
1772526365743849700,2.074849609375,-0.06972329318523407,0.012563847005367279,0.011057274416089058
1772526365753831700,2.084831787109375,-0.07261309027671814,-0.0060042436234653,-0.005953399930149317
1772526365763813600,2.094813720703125,-0.07469923049211502,-0.019045379012823105,-0.019428109750151634
1772526365773795800,2.1047958984375,-0.08083062618970871,-0.026682790368795395,-0.03235962241888046
1772526365783778600,2.114778564453125,-0.0907289981842041,-0.03311353921890259,-0.04058404639363289
1772526365793760800,2.1247607421875,-0.09531576186418533,-0.03253030776977539,-0.04439716041088104
1772526365803742700,2.13474267578125,-0.09555719792842865,-0.025977520272135735,-0.03678010776638985
1772526365813725700,2.1447255859375,-0.09411430358886719,-0.0230091605335474,-0.02574104070663452
1772526365823708000,2.1547080078125,-0.0912160575389862,-0.030604595318436623,-0.010252819396555424
1772526365833689600,2.164689697265625,-0.08485163748264313,-0.04145963862538338,0.006329618860036135
1772526365843672800,2.1746728515625,-0.06992345303297043,-0.047732483595609665,0.02576686628162861
1772526365853654500,2.184654541015625,-0.06096963956952095,-0.05583887919783592,0.04209976643323898
1772526365863636700,2.19463671875,-0.049695324152708054,-0.06129363179206848,0.05327962711453438
1772526365873619000,2.204618896484375,-0.039663996547460556,-0.06975981593132019,0.05905495584011078
1772526365883601700,2.2146015625,-0.03584931790828705,-0.07570157200098038,0.0594792440533638
1772526365893584000,2.224583984375,-0.03936069458723068,-0.08200634270906448,0.05851464718580246
1772526365903565600,2.234565673828125,-0.049699097871780396,-0.07284992933273315,0.05367249995470047
1772526365913548800,2.244548828125,-0.05429251864552498,-0.04004644230008125,0.050687629729509354
1772526365923530800,2.25453076171875,-0.05299483984708786,0.009251201525330544,0.043259087949991226
1772526365933512700,2.2645126953125,-0.06172201782464981,0.049458540976047516,0.029965119436383247
1772526365943495000,2.274494873046875,-0.05694396793842316,0.08266396075487137,0.012989535927772522
1772526365953477600,2.2844775390625,-0.056996967643499374,0.09756247699260712,-0.002130560576915741
1772526365963459800,2.2944599609375,-0.0555657334625721,0.10666551440954208,-0.006177570205181837
1772526365973441800,2.30444189453125,-0.050682827830314636,0.09842835366725922,-0.009015966206789017
1772526365983424800,2.3144248046875,-0.0610322542488575,0.09760293364524841,-0.0007352749817073345
1772526365993406700,2.32440673828125,-0.0725962370634079,0.11853139102458954,0.02038652077317238
1772526366003388700,2.334388671875,-0.058000363409519196,0.0978560820221901,0.03028615564107895
1772526366013371600,2.34437158203125,-0.047296054661273956,0.06645634770393372,0.04184480756521225
1772526366023353900,2.354353759765625,-0.04306633025407791,0.05899011716246605,0.045843981206417084
1772526366033335800,2.364335693359375,-0.04689436033368111,0.042840175330638885,0.041329123079776764
1772526366043317800,2.37431787109375,-0.048023443669080734,0.025646740570664406,0.027402829378843307
1772526366053300700,2.38430078125,-0.045625001192092896,0.011879529803991318,0.011155417189002037
1772526366063282700,2.39428271484375,-0.046504952013492584,0.005649750120937824,-0.0067644380033016205
1772526366073265000,2.404264892578125,-0.044406916946172714,-0.001784197287634015,-0.011292877607047558
1772526366083247600,2.41424755859375,-0.037233900278806686,-0.0012217801995575428,-0.01511882059276104
1772526366093229800,2.424229736328125,-0.034757692366838455,0.012560078874230385,-0.006912556942552328
1772526366103211500,2.43421142578125,-0.02764064632356167,0.024541746824979782,-0.0039655230939388275
1772526366113193700,2.44419384765625,-0.02224161848425865,0.031222818419337273,-0.0029324833303689957
1772526366123176200,2.45417626953125,-0.02095196768641472,0.04053125157952309,-0.005413886625319719
1772526366133158000,2.464157958984375,-0.01890719309449196,0.04747730866074562,-0.011039283126592636
1772526366143140000,2.47414013671875,-0.018264461308717728,0.04314415901899338,-0.019580962136387825
1772526366153123000,2.484123046875,-0.016256170347332954,0.043602220714092255,-0.030891407281160355
1772526366163105000,2.49410498046875,-0.016151707619428635,0.04356655478477478,-0.03597410395741463
1772526366173087200,2.504087158203125,-0.01864309422671795,0.046423058956861496,-0.037111274898052216
1772526366183069000,2.51406884765625,-0.025019587948918343,0.04658082127571106,-0.041106462478637695
1772526366193052200,2.52405224609375,-0.03499605506658554,0.05027355998754501,-0.046576064079999924
1772526366203033900,2.534033935546875,-0.04248441010713577,0.059747662395238876,-0.04471311345696449
1772526366213016000,2.54401611328125,-0.05036630108952522,0.061425719410181046,-0.04876457899808884
1772526366222999000,2.5539990234375,-0.04758996516466141,0.05598880723118782,-0.04842900484800339
1772526366232981000,2.56398095703125,-0.04632816091179848,0.05100869759917259,-0.04296446591615677
1772526366242963200,2.573963134765625,-0.03792419284582138,0.04666052386164665,-0.03190978616476059
1772526366252946200,2.5839462890625,-0.03269374370574951,0.03196094185113907,-0.023108836263418198
1772526366262928100,2.59392822265625,-0.026449235156178474,0.015350479632616043,-0.009809743613004684
1772526366272910000,2.60391015625,-0.017746292054653168,0.0012224095407873392,0.0010255929082632065
1772526366282892000,2.61389208984375,-0.013997282832860947,-0.003203135682269931,0.01500844769179821
1772526366292875000,2.623875,-0.009816385805606842,0.00952011626213789,0.025882933288812637
1772526366302857000,2.63385693359375,-0.011346310377120972,0.01587892509996891,0.029660578817129135
1772526366312839000,2.6438388671875,-0.014035569503903389,0.008489453233778477,0.022852741181850433
1772526366322822100,2.653822265625,-0.013289341703057289,-0.008250036276876926,0.012485038489103317
1772526366332803800,2.663803955078125,-0.013109578751027584,-0.036618031561374664,-0.003971431870013475
1772526366342786000,2.6737861328125,-0.009773867204785347,-0.06288930028676987,-0.018054338172078133
1772526366352768000,2.68376806640625,-0.009874801151454449,-0.08172131329774857,-0.03567993640899658
1772526366362751000,2.6937509765625,-0.006490425206720829,-0.08132775872945786,-0.043806079775094986
1772526366372733200,2.703733154296875,-0.0007321387529373169,-0.05871991813182831,-0.04639919847249985
1772526366382715000,2.71371484375,0.002929775044322014,-0.01905743032693863,-0.04373610019683838
1772526366392698000,2.723697998046875,0.006985502317547798,0.010838949121534824,-0.03966306149959564
1772526366402679800,2.7336796875,0.004496656358242035,0.030452705919742584,-0.03575819358229637
1772526366412662000,2.743662109375,0.007332656532526016,0.043934959918260574,-0.030252110213041306
1772526366422644200,2.753644287109375,0.01341153122484684,0.04291422665119171,-0.02758277952671051
1772526366432627000,2.763626953125,0.030409155413508415,0.03317105397582054,-0.02782859280705452
1772526366442609200,2.773609130859375,0.054123420268297195,0.02668343298137188,-0.02267123945057392
1772526366452590800,2.7835908203125,0.0829516053199768,0.036229804158210754,-0.018764914944767952
1772526366462574000,2.793573974609375,0.12099792063236237,0.05536137893795967,-0.007617876399308443
1772526366472556000,2.80355615234375,0.15339395403862,0.06763588637113571,0.003662741743028164
1772526366482538000,2.8135380859375,0.1657596379518509,0.08072981983423233,0.016106529161334038
1772526366492521000,2.82352099609375,0.172866553068161,0.10093282908201218,0.022884007543325424
1772526366502503000,2.8335029296875,0.16391129791736603,0.11992522329092026,0.023713676258921623
1772526366512485000,2.843485107421875,0.15830428898334503,0.13786880671977997,0.022085685282945633
1772526366522467000,2.853467041015625,0.15729428827762604,0.1604446917772293,0.028259851038455963
1772526366532450000,2.863449951171875,0.15108725428581238,0.16122926771640778,0.03286392614245415
1772526366542432000,2.873431884765625,0.14098404347896576,0.1426752805709839,0.05314890295267105
1772526366552414000,2.8834140625,0.12778382003307343,0.10608823597431183,0.08217789232730865
1772526366562397000,2.89339697265625,0.1318444460630417,0.08991855382919312,0.1395910084247589
1772526366572379100,2.903379150390625,0.13793723285198212,0.1221633106470108,0.20358383655548096
1772526366582361000,2.913361083984375,0.13498134911060333,0.12900479137897491,0.26862865686416626
1772526366592343000,2.923343017578125,0.12853489816188812,0.10468454658985138,0.31398123502731323
1772526366602326000,2.933325927734375,0.11769085377454758,0.07623399794101715,0.33994781970977783
1772526366612308000,2.943307861328125,0.10679692775011063,0.042151667177677155,0.350625216960907
1772526366622290200,2.953290283203125,0.08808176219463348,0.02206343226134777,0.3401198983192444
1772526366632273000,2.96327294921875,0.06709259003400803,0.03047529235482216,0.318970650434494
1772526366642255000,2.973255126953125,0.03679478541016579,0.039339229464530945,0.27774688601493835
1772526366652237000,2.983237060546875,0.0028589246794581413,0.0404987707734108,0.22370174527168274
1772526366662219000,2.993218994140625,-0.02918965369462967,0.057764071971178055,0.16968229413032532
1772526366672202000,3.003201904296875,-0.058576036244630814,0.06829793751239777,0.10467053204774857
1772526366682184000,3.013183837890625,-0.0820448026061058,0.08213687688112259,0.042561281472444534
1772526366692166100,3.023166259765625,-0.10933634638786316,0.08593001961708069,-0.02051541954278946
1772526366702148900,3.03314892578125,-0.1335398554801941,0.06864744424819946,-0.07176140695810318
1772526366712131000,3.043131103515625,-0.15330371260643005,0.045196712017059326,-0.10852687805891037
1772526366722113000,3.053113037109375,-0.16568082571029663,0.011702237650752068,-0.12370361387729645
1772526366732095000,3.063094970703125,-0.17761391401290894,-0.01692807488143444,-0.12231157720088959
1772526366742078000,3.073077880859375,-0.18429501354694366,-0.045937854796648026,-0.11247754096984863
1772526366752060000,3.083059814453125,-0.19729897379875183,-0.07924041152000427,-0.09547459334135056
1772526366762042000,3.0930419921875,-0.20739616453647614,-0.1129913181066513,-0.07842335104942322
1772526366772025000,3.103025146484375,-0.21748875081539154,-0.13112051784992218,-0.057590778917074203
1772526366782007000,3.113007080078125,-0.21472427248954773,-0.12462025135755539,-0.04134614020586014
1772526366791989000,3.122989013671875,-0.2184164822101593,-0.11011428385972977,-0.03134730085730553
1772526366801971000,3.132970947265625,-0.20932604372501373,-0.0979313850402832,-0.02612510696053505
1772526366811954000,3.142953857421875,-0.2033613622188568,-0.08008021861314774,-0.029821041971445084
1772526366821936000,3.15293603515625,-0.19058655202388763,-0.060536548495292664,-0.0349440760910511
1772526366831918000,3.16291796875,-0.173842191696167,-0.05389302596449852,-0.04509178549051285
1772526366841901000,3.172901123046875,-0.16214165091514587,-0.0375632718205452,-0.05185643956065178
1772526366851883000,3.182883056640625,-0.1422792673110962,-0.025526581332087517,-0.05330093577504158
1772526366861865000,3.192864990234375,-0.11694620549678802,-0.012227252125740051,-0.054971810430288315
1772526366871848200,3.20284814453125,-0.09112472832202911,-0.0015639555640518665,-0.045279502868652344
1772526366881830000,3.212829833984375,-0.06788024306297302,0.002045541536062956,-0.02884712442755699
1772526366891812000,3.22281201171875,-0.04771318659186363,0.014324312098324299,-0.0023800991475582123
1772526366901794000,3.2327939453125,-0.031354017555713654,0.01803358644247055,0.027450602501630783
1772526366911777000,3.242777099609375,-0.01827070862054825,0.01469584833830595,0.04628980532288551
1772526366921759200,3.25275927734375,-0.0036844678688794374,0.006402014754712582,0.06186491623520851
1772526366931741000,3.262740966796875,0.006662711501121521,-0.002709724707528949,0.059122659265995026
1772526366941724200,3.27272412109375,0.015750376507639885,-0.022324755787849426,0.05073168873786926
1772526366951705900,3.282705810546875,0.023400040343403816,-0.03564748540520668,0.03826170414686203
1772526366961688000,3.29268798828125,0.034997474402189255,-0.030192773789167404,0.021522242575883865
1772526366971670000,3.302669921875,0.04289188235998154,-0.025937309488654137,0.005233817268162966
1772526366981653000,3.312653076171875,0.05451660975813866,-0.01621258445084095,-0.0026001776568591595
1772526366991635200,3.32263525390625,0.05473685264587402,0.013190045021474361,0.0015466301701962948
1772526367001617000,3.332616943359375,0.053778503090143204,0.03259637951850891,-0.0015933718532323837
1772526367011600100,3.34260009765625,0.049880966544151306,0.040018074214458466,-0.0019715409725904465
1772526367021582000,3.35258203125,0.054978061467409134,0.034228160977363586,-0.011419171467423439
1772526367031564000,3.36256396484375,0.0656386986374855,0.02228574827313423,-0.018853653222322464
1772526367041546000,3.3725458984375,0.0712151750922203,0.008834020234644413,-0.028517816215753555
1772526367051529000,3.382529052734375,0.080390565097332,-0.008810486644506454,-0.03398102521896362
1772526367061511000,3.392510986328125,0.08534577488899231,-0.021046843379735947,-0.03430658206343651
1772526367071492900,3.402492919921875,0.08776633441448212,-0.032648637890815735,-0.03153476491570473
1772526367081476000,3.41247607421875,0.0874449834227562,-0.038373127579689026,-0.02115359902381897
1772526367091458000,3.4224580078125,0.08617811650037766,-0.027184922248125076,-0.005013510584831238
1772526367101440000,3.43243994140625,0.08747608214616776,-0.010421598330140114,0.02208765596151352
1772526367111422000,3.442421875,0.08690723031759262,-0.00379352318122983,0.047330692410469055
1772526367121406000,3.452406005859375,0.09302793443202972,-0.003120268229395151,0.06020153686404228
1772526367131387600,3.4623876953125,0.09292887151241302,-0.01548931933939457,0.06085268035531044
1772526367141369900,3.472369873046875,0.09219128638505936,-0.026859598234295845,0.05410384014248848
1772526367151352800,3.482352783203125,0.0878593921661377,-0.026443347334861755,0.0432027243077755
1772526367161334800,3.492334716796875,0.07832234352827072,-0.022522641345858574,0.03461003303527832
1772526367171316700,3.502316650390625,0.07033632695674896,-0.015443160198628902,0.027613643556833267
1772526367181298700,3.512298583984375,0.0671767070889473,-0.00017046532593667507,0.019604776054620743
1772526367191282000,3.522281982421875,0.060697246342897415,0.01020627561956644,0.020759522914886475
1772526367201263600,3.532263671875,0.05337280035018921,0.018192937597632408,0.02419758401811123
1772526367211245800,3.542245849609375,0.048111192882061005,0.030698874965310097,0.027050362899899483
1772526367221228800,3.552228759765625,0.03512807935476303,0.03599056228995323,0.02943357452750206
1772526367231210800,3.562210693359375,0.02398993819952011,0.03659190237522125,0.028855135664343834
1772526367241192700,3.572192626953125,0.009873338043689728,0.03256664425134659,0.027969880029559135
1772526367251174700,3.582174560546875,-0.001764410175383091,0.017277969047427177,0.025805529206991196
1772526367261157600,3.59215771484375,-0.01654372550547123,-0.00023791659623384476,0.020364001393318176
1772526367271139800,3.602139892578125,-0.028914639726281166,-0.020167682319879532,0.016321055591106415
1772526367281121800,3.612121826171875,-0.04036152362823486,-0.03438403084874153,0.012355420738458633
1772526367291104800,3.622104736328125,-0.05052494630217552,-0.05381285771727562,0.0041424985975027084
1772526367301086700,3.632086669921875,-0.060256943106651306,-0.05804069712758064,-0.0026517417281866074
1772526367311068700,3.642068603515625,-0.06838490813970566,-0.05888332054018974,-0.00865690317004919
1772526367321052000,3.652052001953125,-0.07574845850467682,-0.049979373812675476,-0.018639324232935905
1772526367331033600,3.66203369140625,-0.08100580424070358,-0.04296114668250084,-0.027009904384613037
1772526367341015800,3.672015869140625,-0.08809850364923477,-0.03686888888478279,-0.03698275610804558
1772526367350997800,3.681997802734375,-0.08611951023340225,-0.026042340323328972,-0.04651420935988426
1772526367360980700,3.691980712890625,-0.08554692566394806,-0.022110680118203163,-0.057207074016332626
1772526367370963000,3.701962890625,-0.08815629035234451,-0.030492980033159256,-0.06807996332645416
1772526367380944600,3.711944580078125,-0.09278302639722824,-0.05132262036204338,-0.07392553985118866
1772526367390928000,3.721927978515625,-0.09614633768796921,-0.07716114819049835,-0.0779019147157669
1772526367400909600,3.73190966796875,-0.09367784112691879,-0.08598864823579788,-0.06629373878240585
1772526367410891800,3.741891845703125,-0.08043580502271652,-0.07008957117795944,-0.04529258608818054
1772526367420874000,3.7518740234375,-0.07043634355068207,-0.05257323011755943,-0.018891964107751846
1772526367430856700,3.761856689453125,-0.061813823878765106,-0.034706346690654755,0.002879377920180559
1772526367440839000,3.7718388671875,-0.049329355359077454,-0.024445177987217903,0.012528698891401291
1772526367450820600,3.781820556640625,-0.0423705168068409,-0.027873465791344643,0.01632583513855934
1772526367460803800,3.791803955078125,-0.03669658303260803,-0.0354200080037117,0.017803292721509933
1772526367470785800,3.801785888671875,-0.03594636917114258,-0.0312135498970747,0.023765578866004944
1772526367480767700,3.811767822265625,-0.031170416623353958,-0.022355027496814728,0.0235673226416111
1772526367490750000,3.82175,-0.023456301540136337,0.0014757358003407717,0.022286074236035347
1772526367500732700,3.831732666015625,-0.011029373854398727,0.02323898859322071,0.015238199383020401
1772526367510715000,3.84171484375,-0.0027472088113427162,0.024719972163438797,0.005612736567854881
1772526367520696800,3.85169677734375,0.0006583393551409245,0.006362259387969971,-0.004066678695380688
1772526367530679800,3.8616796875,0.006432339083403349,-0.018654411658644676,-0.011743773706257343
1772526367540661800,3.871661865234375,0.012443453073501587,-0.056832753121852875,-0.015082139521837234
1772526367550643700,3.881643798828125,0.015333514660596848,-0.08493256568908691,-0.007497457321733236
1772526367560625700,3.891625732421875,0.018466360867023468,-0.08850250393152237,0.007996383123099804
1772526367570609000,3.90160888671875,0.016989104449748993,-0.08314182609319687,0.0194354597479105
1772526367580590800,3.9115908203125,0.017532384023070335,-0.07083327323198318,0.03093792498111725
1772526367590572800,3.92157275390625,0.01581464521586895,-0.06546913087368011,0.03436301648616791
1772526367600555800,3.9315556640625,0.01475660689175129,-0.06428243219852448,0.037822943180799484
1772526367610537700,3.941537841796875,0.01800992339849472,-0.059167567640542984,0.03479759395122528
1772526367620520000,3.95152001953125,0.012771912850439548,-0.03795979171991348,0.03217316418886185
1772526367630501600,3.961501708984375,0.01623828336596489,-0.008672477677464485,0.024386610835790634
1772526367640484900,3.97148486328125,0.017149165272712708,0.008638995699584484,0.01511500496417284
1772526367650466600,3.981466552734375,0.017015473917126656,0.01363322138786316,0.0003829305060207844
1772526367660448800,3.99144873046875,0.013499113731086254,0.0012821014970541,-0.012399513274431229
1772526367670431700,4.001431640625,0.0066587841138243675,-0.01198230404406786,-0.02294163592159748
1772526367680413700,4.01141357421875,-0.0010603880509734154,-0.026071758940815926,-0.02611692249774933
1772526367690396000,4.02139599609375,-0.009237623773515224,-0.021147575229406357,-0.023500634357333183
1772526367700377600,4.031377685546875,-0.010625449009239674,-0.006446297746151686,-0.022334670647978783
1772526367710360800,4.04136083984375,-0.00726480595767498,0.0013181483373045921,-0.020046748220920563
1772526367720342800,4.0513427734375,-0.009441263973712921,-0.004856015555560589,-0.019841544330120087
1772526367730324700,4.06132470703125,-0.01604590192437172,-0.015288681723177433,-0.020926516503095627
1772526367740307700,4.0713076171875,-0.016481570899486542,-0.02717950940132141,-0.019198164343833923
1772526367750289700,4.08128955078125,-0.019105050712823868,-0.03676289692521095,-0.024632610380649567
1772526367760272000,4.09127197265625,-0.025557909160852432,-0.03188493102788925,-0.022696727886795998
1772526367770253600,4.101253662109375,-0.03244937211275101,-0.006766528822481632,-0.019533691927790642
1772526367780236800,4.11123681640625,-0.0374915674328804,0.023840369656682014,-0.018991408869624138
1772526367790218800,4.12121875,-0.044623516499996185,0.05529496818780899,-0.025912966579198837
1772526367800200700,4.13120068359375,-0.05542357638478279,0.0506117083132267,-0.03525308892130852
1772526367810183700,4.14118359375,-0.06780941039323807,0.01866495981812477,-0.032108958810567856
1772526367820166000,4.151165771484375,-0.08447973430156708,-0.0006096679717302322,-0.022295475006103516
1772526367830147800,4.16114794921875,-0.09275683760643005,-0.006868135184049606,-0.010710451751947403
1772526367840129800,4.1711298828125,-0.08872320502996445,0.013716844841837883,0.00020156940445303917
1772526367850112800,4.18111279296875,-0.07757947593927383,0.04161958396434784,0.007090101484209299
1772526367860094700,4.1910947265625,-0.07260822504758835,0.0531478188931942,0.01746876910328865
1772526367870076700,4.20107666015625,-0.06778870522975922,0.04479481279850006,0.026412995532155037
1772526367880059600,4.2110595703125,-0.06677882373332977,0.030123230069875717,0.041363175958395004
1772526367890041900,4.221041748046875,-0.06117952615022659,0.02622516080737114,0.05279559642076492
1772526367900023800,4.23102392578125,-0.05444256216287613,0.020846419036388397,0.055984776467084885
1772526367910005800,4.241005859375,-0.04826349765062332,0.029604222625494003,0.059845294803380966
1772526367919989000,4.250989013671875,-0.043076541274785995,0.03268826752901077,0.0587441623210907
1772526367929970700,4.260970703125,-0.038384318351745605,0.028986472636461258,0.053239140659570694
1772526367939953000,4.270952880859375,-0.02988378517329693,0.027681177482008934,0.04610934481024742
1772526367949935600,4.280935546875,-0.023009900003671646,0.019517257809638977,0.0321597084403038
1772526367959917800,4.290917724609375,-0.013543745502829552,0.015620885416865349,0.013060346245765686
1772526367969899800,4.300899658203125,-0.007188644725829363,0.016669372096657753,-0.008814593777060509
1772526367979881700,4.3108818359375,-0.002123696031048894,0.02272447943687439,-0.029055815190076828
1772526367989864700,4.32086474609375,-0.0010688179172575474,0.03066549450159073,-0.04555516317486763
1772526367999846700,4.3308466796875,-0.000993876252323389,0.010686508379876614,-0.06876473128795624
1772526368009828900,4.340828857421875,-0.006473862566053867,-0.03768528625369072,-0.08730778843164444
1772526368019811800,4.350811767578125,-0.007600486744195223,-0.10811982303857803,-0.09882450848817825
1772526368029793800,4.360793701171875,-0.00979386642575264,-0.14646773040294647,-0.10702145844697952
1772526368039775700,4.370775634765625,-0.018199412152171135,-0.1585010588169098,-0.1047624945640564
1772526368049757700,4.3807578125,-0.022941702976822853,-0.14920608699321747,-0.09961779415607452
1772526368059740700,4.39074072265625,-0.031979162245988846,-0.13470134139060974,-0.09826328605413437
1772526368069723000,4.400722900390625,-0.03351127728819847,-0.12168726325035095,-0.1005469411611557
1772526368079704800,4.410704833984375,-0.04293307662010193,-0.11080081015825272,-0.10728228837251663
1772526368089687800,4.420687744140625,-0.04383987933397293,-0.0956956297159195,-0.11285708844661713
1772526368099669800,4.430669677734375,-0.047048285603523254,-0.10000616312026978,-0.12978537380695343
1772526368109651700,4.440651611328125,-0.04576331004500389,-0.11689992249011993,-0.14417417347431183
1772526368119633700,4.450633544921875,-0.04122369736433029,-0.12409292906522751,-0.15418097376823425
1772526368129616400,4.460616455078125,-0.03079928271472454,-0.12561172246932983,-0.15767477452754974
1772526368139598600,4.4705986328125,-0.02276921272277832,-0.11170224845409393,-0.15454114973545074
1772526368149580800,4.480580810546875,-0.010868344455957413,-0.08671966940164566,-0.14829444885253906
1772526368159563500,4.4905634765625,0.0015596607699990273,-0.06450307369232178,-0.13454358279705048
1772526368169545700,4.500545654296875,0.01357424445450306,-0.0394296832382679,-0.12038780748844147
1772526368179527400,4.51052734375,0.023449186235666275,-0.01869051717221737,-0.09789545089006424
1772526368189509600,4.520509521484375,0.03742891550064087,-0.0014313692227005959,-0.08433490246534348
1772526368199492600,4.53049267578125,0.04339923337101936,-0.007324359379708767,-0.07038027793169022
1772526368209474600,4.540474609375,0.04832208529114723,-0.01342752669006586,-0.05535871535539627
1772526368219456800,4.550456787109375,0.04920555278658867,-0.01838688924908638,-0.03598618507385254
1772526368229439500,4.560439453125,0.04789368063211441,-0.019520863890647888,-0.013999126851558685
1772526368239421700,4.570421630859375,0.05006423220038414,-0.007824437692761421,0.00698065385222435
1772526368249403600,4.580403564453125,0.05011936277151108,0.0039983997121453285,0.028235342353582382
1772526368259385600,4.590385498046875,0.05645237863063812,0.00650032190605998,0.04138759896159172
1772526368269368600,4.60036865234375,0.0592188686132431,0.003976710606366396,0.04554532468318939
1772526368279350500,4.6103505859375,0.05709981545805931,0.008459302596747875,0.048747263848781586
1772526368289332700,4.620332763671875,0.046299636363983154,0.021343674510717392,0.04871503636240959
1772526368299315700,4.630315673828125,0.042072609066963196,0.0319676399230957,0.04144091159105301
1772526368309297700,4.640297607421875,0.03902249038219452,0.03995978459715843,0.03504506126046181
1772526368319279600,4.650279541015625,0.0336860790848732,0.04495823383331299,0.027806010097265244
1772526368329261600,4.660261474609375,0.029009032994508743,0.0423898808658123,0.019037816673517227
1772526368339244500,4.67024462890625,0.026973208412528038,0.024405771866440773,0.011872699484229088
1772526368349226800,4.680226806640625,0.0202412698417902,0.0009270771406590939,0.012817056849598885
1772526368359208700,4.690208740234375,0.015387851744890213,-0.00986383855342865,0.017955955117940903
1772526368369191700,4.700191650390625,0.012408040463924408,-0.009609772823750973,0.020398341119289398
1772526368379173600,4.710173583984375,0.008843226358294487,0.0189680103212595,0.014538493007421494
1772526368389155600,4.720155517578125,0.003266566898673773,0.03378104418516159,-0.007156948558986187
1772526368399137500,4.730137451171875,-0.0022033245768398046,0.03431828320026398,-0.038065023720264435
1772526368409120500,4.74012060546875,-0.011402148753404617,0.022346578538417816,-0.06637708842754364
1772526368419102700,4.750102783203125,-0.01916578598320484,0.01142529584467411,-0.08339976519346237
1772526368429084400,4.76008447265625,-0.025389060378074646,0.012209597043693066,-0.08362400531768799
1772526368439067600,4.770067626953125,-0.023427821695804596,0.016800785437226295,-0.07165983319282532
1772526368449049600,4.780049560546875,-0.019636278972029686,0.02596578747034073,-0.058667607605457306
1772526368459031600,4.790031494140625,-0.009119708091020584,0.02246543951332569,-0.047953199595212936
1772526368469013800,4.800013671875,-0.0036921855062246323,-0.002470269799232483,-0.04418881982564926
1772526368478996500,4.80999658203125,0.0055122883059084415,-0.03198161721229553,-0.04131024703383446
1772526368488978700,4.819978759765625,0.012582981958985329,-0.055160973221063614,-0.0383264422416687
1772526368498960400,4.82996044921875,0.020738134160637856,-0.06375644356012344,-0.037836186587810516
1772526368508943600,4.839943603515625,0.019458217546343803,-0.06475832313299179,-0.03165605664253235
1772526368518925600,4.849925537109375,0.023133641108870506,-0.05250062793493271,-0.02924642153084278
1772526368528907500,4.859907470703125,0.02501782774925232,-0.04169724881649017,-0.02088036760687828
1772526368538889700,4.8698896484375,0.02675439789891243,-0.02630480006337166,-0.008612710982561111
1772526368548872700,4.879872802734375,0.026772506535053253,-0.01482337899506092,-0.0026946342550218105
1772526368558854700,4.889854736328125,0.0268422719091177,-0.010224707424640656,0.0021659168414771557
1772526368568836600,4.899836669921875,0.03501791134476662,-0.007403620518743992,0.007749766577035189
1772526368578819600,4.909819580078125,0.04229756072163582,-0.002951361471787095,0.013053562492132187
1772526368588801500,4.919801513671875,0.055641595274209976,0.010707459412515163,0.018920239061117172
1772526368598783500,4.929783447265625,0.06907085329294205,0.025398824363946915,0.03169728070497513
1772526368608765700,4.939765625,0.07253243029117584,0.035151321440935135,0.04626556858420372
1772526368618748700,4.949748779296875,0.07847915589809418,0.04016915336251259,0.055766526609659195
1772526368628730600,4.959730712890625,0.08045575022697449,0.048150382936000824,0.07072124630212784
1772526368638712600,4.969712646484375,0.07829081267118454,0.06878169625997543,0.0792580395936966
1772526368648695800,4.97969580078125,0.07448941469192505,0.10734986513853073,0.07945244759321213
1772526368658677500,4.989677490234375,0.07308103144168854,0.15103843808174133,0.06918128579854965
1772526368668659700,4.99965966796875,0.07373164594173431,0.19635798037052155,0.033110104501247406
1772526368678641700,5.0096416015625,0.06437960267066956,0.2197028547525406,-0.009739015251398087
1772526368688624600,5.019624755859375,0.04497181624174118,0.21888767182826996,-0.06441397964954376
1772526368698606600,5.029606689453125,0.006955286487936974,0.22457611560821533,-0.10525444895029068
1772526368708588500,5.039588623046875,-0.03174284100532532,0.23425137996673584,-0.12335488945245743
1772526368718570800,5.04957080078125,-0.06872137635946274,0.19549910724163055,-0.11977052688598633
1772526368728553500,5.059553466796875,-0.09336626529693604,0.10825981199741364,-0.09405291080474854
1772526368738535700,5.06953564453125,-0.09555517882108688,0.02788776531815529,-0.04571729153394699
1772526368748517600,5.079517578125,-0.08022122830152512,-0.0072670262306928635,0.01766914129257202
1772526368758500600,5.08950048828125,-0.06121222674846649,-0.004568762145936489,0.07425238192081451
1772526368768482600,5.099482666015625,-0.040778860449790955,0.018036149442195892,0.11326795816421509
1772526368778464500,5.109464599609375,-0.02152946963906288,0.04012357443571091,0.12703059613704681
1772526368788446700,5.11944677734375,-0.00478937104344368,0.04176168516278267,0.11803710460662842
1772526368798429400,5.129429443359375,0.006037827581167221,0.03835217282176018,0.09247913956642151
1772526368808411600,5.13941162109375,0.011460822075605392,0.034078069031238556,0.059768326580524445
1772526368818393600,5.1493935546875,0.015446420758962631,0.022053465247154236,0.022320108488202095
1772526368828376600,5.15937646484375,0.019380975514650345,-0.021827707067131996,-0.0055133868008852005
1772526368838358500,5.169358642578125,0.02259015664458275,-0.019414570182561874,-0.014391625300049782
1772526368848340500,5.179340576171875,0.020832737907767296,-0.029351091012358665,-0.014123445376753807
1772526368858322700,5.18932275390625,0.0169203020632267,-0.051368921995162964,-0.012825447134673595
1772526368868305700,5.1993056640625,0.013206791132688522,-0.06128653883934021,-0.00900301244109869
1772526368878287600,5.20928759765625,0.012801006436347961,-0.0627966821193695,-0.012036962434649467
1772526368888269600,5.21926953125,0.008134083822369576,-0.055156875401735306,-0.020872797816991806
1772526368898252800,5.229252685546875,0.006257344502955675,-0.04846522957086563,-0.03720887750387192
1772526368908234500,5.239234375,0.003023733850568533,-0.04853047803044319,-0.05143202096223831
1772526368918216700,5.249216796875,-0.002657950622960925,-0.046878498047590256,-0.05951621010899544
1772526368928198700,5.25919873046875,-0.016392936930060387,-0.03939767926931381,-0.07172174751758575
1772526368938181600,5.269181640625,-0.024512382224202156,-0.012358338572084904,-0.08136025816202164
1772526368948163600,5.27916357421875,-0.03128480166196823,0.02638932317495346,-0.09000807255506516
1772526368958145500,5.2891455078125,-0.039651043713092804,0.0423973985016346,-0.09669320285320282
1772526368968128800,5.299128662109375,-0.05214446783065796,0.045736201107501984,-0.09245344996452332
1772526368978110500,5.3091103515625,-0.06180673837661743,0.05682595446705818,-0.09434293210506439
1772526368988092700,5.3190927734375,-0.061463188380002975,0.07692695409059525,-0.10075369477272034
1772526368998074600,5.32907470703125,-0.05638403445482254,0.07465268671512604,-0.1104038804769516
1772526369008057600,5.3390576171875,-0.053090766072273254,0.05666862428188324,-0.12184508144855499
1772526369018039800,5.349039794921875,-0.05450320988893509,0.039488285779953,-0.12316984683275223
1772526369028021500,5.359021484375,-0.057739485055208206,0.03833700343966484,-0.11416676640510559
1772526369038003700,5.369003662109375,-0.07140203565359116,0.026928286999464035,-0.10275192558765411
1772526369047986400,5.378986328125,-0.08797674626111984,0.02949477545917034,-0.08956421911716461
1772526369057968600,5.38896875,-0.10370257496833801,0.045964840799570084,-0.08233310282230377
1772526369067950800,5.398950927734375,-0.11581436544656754,0.06272198259830475,-0.08199062198400497
1772526369077933600,5.40893359375,-0.1263037919998169,0.07258583605289459,-0.08498237282037735
1772526369087915800,5.418915771484375,-0.12857253849506378,0.05736028403043747,-0.08808921277523041
1772526369097897500,5.4288974609375,-0.12221752107143402,0.044062234461307526,-0.08074147999286652
1772526369107879700,5.438879638671875,-0.10738717019557953,0.03946322202682495,-0.06281468272209167
1772526369117862700,5.448862548828125,-0.09753809869289398,0.04371551424264908,-0.034786406904459
1772526369127844400,5.45884423828125,-0.08471924066543579,0.057288315147161484,-0.010514887981116772
1772526369137826600,5.46882666015625,-0.0698842704296112,0.06754466146230698,0.012657972052693367
1772526369147809300,5.478809326171875,-0.059348538517951965,0.06177864596247673,0.034195221960544586
1772526369157791500,5.48879150390625,-0.061264585703611374,0.03522583842277527,0.05170753225684166
1772526369167773200,5.498773193359375,-0.061506930738687515,0.02176835387945175,0.062279749661684036
1772526369177755400,5.50875537109375,-0.055362168699502945,0.025923844426870346,0.07007959485054016
1772526369187738400,5.51873828125,-0.04040798917412758,0.03881300985813141,0.07546769827604294
1772526369197720300,5.52872021484375,-0.032873112708330154,0.043986693024635315,0.07383598387241364
1772526369207702300,5.538702392578125,-0.03115244209766388,0.05635813996195793,0.0652020201086998
1772526369217685500,5.548685546875,-0.02111774869263172,0.06326773017644882,0.054133497178554535
1772526369227667500,5.55866748046875,-0.0089484341442585,0.0666147917509079,0.040687195956707
1772526369237649400,5.5686494140625,-0.007371741347014904,0.056536346673965454,0.0302999559789896
1772526369247631400,5.57863134765625,-0.006410606205463409,0.035297639667987823,0.017692817375063896
1772526369257614300,5.5886142578125,-0.002326802583411336,0.034382402896881104,0.011780468747019768
1772526369267596300,5.59859619140625,-0.005327119957655668,0.028933044523000717,0.008323952555656433
1772526369277578200,5.608578125,-0.018501900136470795,0.0129855927079916,0.007974959909915924
1772526369287560400,5.618560546875,-0.02202952280640602,-0.0040788790211081505,0.004766916856169701
1772526369297543200,5.628543212890625,-0.026527587324380875,-0.008122233673930168,-0.002974654082208872
1772526369307525400,5.638525390625,-0.021218309178948402,-0.0024765986017882824,-0.02124340645968914
1772526369317507300,5.64850732421875,-0.0198363084346056,-0.0174854788929224,-0.041099488735198975
1772526369327490300,5.658490234375,-0.01835026405751705,-0.03303194418549538,-0.05478121340274811
1772526369337472500,5.668472412109375,-0.010374439880251884,-0.03014782816171646,-0.06343774497509003
1772526369347454200,5.6784541015625,-0.006968523841351271,-0.003414484905079007,-0.06348089873790741
1772526369357436400,5.6884365234375,0.0008081630803644657,0.02832871861755848,-0.05253608152270317
1772526369367419100,5.698419189453125,0.003667066805064678,0.039325445890426636,-0.04303685203194618
1772526369377401300,5.7084013671875,0.008407309651374817,0.02606062777340412,-0.025871790945529938
1772526369387383600,5.718383544921875,0.01683807745575905,0.03170067071914673,-0.008008105680346489
1772526369397366300,5.7283662109375,0.02180560491979122,0.022708766162395477,0.0071485270746052265
1772526369407348500,5.738348388671875,0.027428871020674706,0.007913841865956783,0.014114025048911572
1772526369417330200,5.748330078125,0.032024599611759186,-0.015727203339338303,0.01867264322936535
1772526369427312400,5.7583125,0.03115028515458107,-0.01937307044863701,0.01994163915514946
1772526369437295400,5.76829541015625,0.02280222624540329,-0.008803080767393112,0.012257484719157219
1772526369447277300,5.77827734375,0.019405897706747055,0.012143746949732304,0.004311145283281803
1772526369457259500,5.788259521484375,0.01634211465716362,0.040525998920202255,-0.009344136342406273
1772526369467242200,5.7982421875,0.01152871735394001,0.06238842010498047,-0.026445090770721436
1772526369477224400,5.808224365234375,0.008543585427105427,0.06174450367689133,-0.04236814007163048
1772526369487206400,5.818206298828125,0.008569684810936451,0.04604516923427582,-0.057646699249744415
1772526369497188400,5.828188232421875,0.009171728044748306,0.02608240209519863,-0.06325734406709671
1772526369507171300,5.83817138671875,0.004902414977550507,0.011663250625133514,-0.06027459725737572
1772526369517153300,5.8481533203125,-0.005149967968463898,0.006363969296216965,-0.04820192977786064
1772526369527135500,5.858135498046875,-0.007199003826826811,0.0033047962933778763,-0.05113060772418976
1772526369537117200,5.8681171875,0.0014600078575313091,0.012150036171078682,-0.06886754930019379
1772526369547100400,5.878100341796875,-0.01698531210422516,0.017688877880573273,-0.08750168234109879
1772526369557082400,5.888082275390625,-0.034536950290203094,0.015523910522460938,-0.10879599303007126
1772526369567064300,5.898064208984375,-0.0412108339369297,0.013176068663597107,-0.13513891398906708
1772526369577047300,5.90804736328125,-0.03762879967689514,0.012697090394794941,-0.1579740047454834
1772526369587029500,5.918029541015625,-0.03504819795489311,0.02535376138985157,-0.17287731170654297
1772526369597011200,5.92801123046875,-0.038536228239536285,0.0449533574283123,-0.19133904576301575
1772526369606993400,5.937993408203125,-0.030764861032366753,0.06149318814277649,-0.197503462433815
1772526369616976400,5.947976318359375,-0.017578454688191414,0.054770536720752716,-0.18906930088996887
1772526369626958300,5.957958251953125,-0.015581350773572922,0.019390976056456566,-0.1602882444858551
1772526369636940300,5.967940185546875,-0.023401230573654175,-0.011087089776992798,-0.1186688169836998
1772526369646923300,5.97792333984375,-0.018968932330608368,-0.021529877558350563,-0.062034834176301956
1772526369656905500,5.987905517578125,-0.015154117718338966,-0.02458077482879162,-0.0075559960678219795
1772526369666887200,5.99788720703125,-0.002855906030163169,-0.025448432192206383,0.04297003149986267
1772526369676869400,6.007869384765625,0.008402607403695583,-0.03360702469944954,0.07961192727088928
1772526369686852400,6.017852294921875,0.022635072469711304,-0.04211103171110153,0.09491685032844543
1772526369696834300,6.027834228515625,0.03191529959440231,-0.05618870258331299,0.0909658744931221
1772526369706816500,6.03781640625,0.0401386097073555,-0.04537254199385643,0.06501150876283646
1772526369716798200,6.047798095703125,0.050941187888383865,-0.014373348094522953,0.039064064621925354
1772526369726781400,6.057781494140625,0.05164126679301262,-0.010053669102489948,0.02981122024357319
1772526369736763400,6.067763427734375,0.03160186484456062,-0.012534009292721748,0.031030870974063873
1772526369746745300,6.077745361328125,0.015982424840331078,0.004715550225228071,0.031206373125314713
1772526369756728300,6.087728271484375,0.026748888194561005,0.027366813272237778,0.02789994888007641
1772526369766710300,6.097710205078125,0.052202049642801285,0.04333219677209854,0.02033230848610401
1772526369776692500,6.1076923828125,0.06932126730680466,0.04421863332390785,0.01404791884124279
1772526369786674200,6.117674072265625,0.0789794847369194,0.045324910432100296,0.010239065624773502
1772526369796657400,6.127657470703125,0.08686503767967224,0.04605856165289879,0.00477937888354063
1772526369806639400,6.137639404296875,0.0957741066813469,0.046224210411310196,0.014714035205543041
1772526369816621300,6.147621337890625,0.10468579828739166,0.06318076699972153,0.021519817411899567
1772526369826604300,6.157604248046875,0.11105980724096298,0.08488926291465759,0.027300475165247917
1772526369836586500,6.16758642578125,0.11197337508201599,0.09322071820497513,0.026037756353616714
1772526369846568400,6.177568359375,0.12106647342443466,0.09035834670066833,0.014896421693265438
1772526369856550400,6.18755029296875,0.12531128525733948,0.07080736756324768,0.006167092826217413
1772526369866533400,6.197533447265625,0.11710929870605469,0.05052100494503975,-0.00038534868508577347
1772526369876515300,6.207515380859375,0.10683749616146088,0.030160151422023773,-0.002381938975304365
1772526369886497300,6.217497314453125,0.1080007553100586,0.015408902429044247,-0.005086645018309355
1772526369896479500,6.2274794921875,0.10284432023763657,0.005551008973270655,-0.0021781600080430508
1772526369906462500,6.23746240234375,0.10336949676275253,0.011277337558567524,0.0034115491434931755
1772526369916444400,6.2474443359375,0.11030721664428711,0.027805592864751816,0.00934488046914339
1772526369926426400,6.25742626953125,0.11326491832733154,0.04875854402780533,0.015558834187686443
1772526369936409600,6.26740966796875,0.12028287351131439,0.06885889172554016,0.009158490225672722
1772526369946391300,6.277391357421875,0.11982187628746033,0.08570684492588043,0.0017807348631322384
1772526369956373500,6.28737353515625,0.12299321591854095,0.08254893124103546,0.00007410626858472824
1772526369966355200,6.297355224609375,0.11961258947849274,0.07607105374336243,0.003612648230046034
1772526369976338400,6.30733837890625,0.10738110542297363,0.07245088368654251,0.007724442984908819
1772526369986320400,6.3173203125,0.0956120640039444,0.061823807656764984,0.011186552233994007
1772526369996302300,6.32730224609375,0.09276944398880005,0.03740529343485832,0.021390922367572784
1772526370006285300,6.337285400390625,0.08050372451543808,0.04413297027349472,0.03334612026810646
1772526370016267300,6.347267333984375,0.06859394162893295,0.02380324900150299,0.04318159818649292
1772526370026249500,6.35724951171875,0.05816074460744858,0.0037373960949480534,0.04522877186536789
1772526370036231200,6.367231201171875,0.0553739108145237,-0.0018208688125014305,0.05440773069858551
1772526370046214400,6.37721435546875,0.05649670213460922,-0.0018738657236099243,0.05915454775094986
1772526370056196400,6.3871962890625,0.05348487198352814,-0.006461651064455509,0.0685235783457756
1772526370066178300,6.39717822265625,0.05001477152109146,-0.02322704903781414,0.08287349343299866
1772526370076160500,6.407160400390625,0.04395102337002754,-0.03558354452252388,0.09473945945501328
1772526370086143200,6.417143310546875,0.039096079766750336,-0.06882192194461823,0.10504722595214844
1772526370096125400,6.42712548828125,0.027865972369909286,-0.10435348749160767,0.1211107075214386
1772526370106107400,6.437107421875,0.020737487822771072,-0.14144040644168854,0.14138083159923553
1772526370116090400,6.44709033203125,0.020064588636159897,-0.1558607667684555,0.1569754183292389
1772526370126072300,6.457072265625,0.025723807513713837,-0.13182972371578217,0.16221652925014496
1772526370136054300,6.46705419921875,0.017514167353510857,-0.10849255323410034,0.16199752688407898
1772526370146036500,6.477036376953125,0.006444205995649099,-0.06098255515098572,0.14841726422309875
1772526370156019500,6.48701953125,-0.0006804815493524075,-0.044903192669153214,0.11825480312108994
1772526370166001400,6.49700146484375,0.005069283302873373,-0.054356615990400314,0.07446790486574173
1772526370175983400,6.5069833984375,0.015258876606822014,-0.06371653079986572,0.03137444332242012
1772526370185966300,6.51696630859375,0.028557371348142624,-0.06848332285881042,-0.004222699906677008
1772526370195948300,6.5269482421875,0.03754929080605507,-0.054999254643917084,-0.026056412607431412
1772526370205930500,6.536930419921875,0.048542022705078125,-0.03678856045007706,-0.043237797915935516
1772526370215912400,6.546912353515625,0.06078058108687401,-0.014323465526103973,-0.043468426913022995
1772526370225895400,6.5568955078125,0.06671197712421417,0.010164299979805946,-0.04150381311774254
1772526370235877400,6.56687744140625,0.06534460932016373,0.028982480987906456,-0.04077586531639099
1772526370245859300,6.576859375,0.0622825026512146,0.028485801070928574,-0.04545397311449051
1772526370255841300,6.58684130859375,0.06291548907756805,0.01354665495455265,-0.048163190484046936
1772526370265824300,6.59682421875,0.05662137269973755,-0.014786981977522373,-0.05299709364771843
1772526370275806500,6.606806396484375,0.05571036785840988,-0.04070676490664482,-0.04595360532402992
1772526370285788400,6.616788330078125,0.05112440511584282,-0.03882444277405739,-0.025129549205303192
1772526370295771400,6.626771484375,0.042462512850761414,-0.0333729013800621,-0.0050240857526659966
1772526370305753300,6.63675341796875,0.03401230275630951,-0.028735805302858353,0.007370266132056713
1772526370315735300,6.6467353515625,0.027004849165678024,-0.02248011715710163,0.01046664547175169
1772526370325717500,6.656717529296875,0.02186867594718933,-0.015525272116065025,0.00850602611899376
1772526370335700200,6.6667001953125,0.01204705610871315,-0.007043756078928709,0.005584925413131714
1772526370345682400,6.676682373046875,0.007873084396123886,0.0072670066729187965,0.011074500158429146
1772526370355664100,6.6866640625,0.00008590426295995712,0.011439934372901917,0.01470076385885477
1772526370365646300,6.696646240234375,-0.0031868545338511467,0.0004365521017462015,0.023176539689302444
1772526370375629300,6.70662939453125,-0.009206397458910942,-0.023703936487436295,0.02808847278356552
1772526370385611300,6.716611328125,-0.008601593784987926,-0.0553462840616703,0.031972162425518036
1772526370395593500,6.726593505859375,-0.011028686538338661,-0.07743311673402786,0.034460488706827164
1772526370405576400,6.736576416015625,-0.012393290176987648,-0.08017883449792862,0.03269321471452713
1772526370415558400,6.746558349609375,-0.010702403262257576,-0.07905727624893188,0.019840523600578308
1772526370425540400,6.756540283203125,-0.020342247560620308,-0.0924745500087738,0.006121517159044743
1772526370435522300,6.766522216796875,-0.03775547444820404,-0.1229979544878006,-0.006464726757258177
1772526370445505300,6.77650537109375,-0.05490543320775032,-0.15109962224960327,-0.01834988221526146
1772526370455487200,6.7864873046875,-0.06908288598060608,-0.14578969776630402,-0.03660197556018829
1772526370465469400,6.796469482421875,-0.0879865363240242,-0.11716923862695694,-0.051288243383169174
1772526370475452400,6.806452392578125,-0.09657691419124603,-0.08182313293218613,-0.07449494302272797
1772526370485434400,6.816434326171875,-0.09914100915193558,-0.04891364648938179,-0.10523288697004318
1772526370495416300,6.826416259765625,-0.09735915809869766,-0.018528617918491364,-0.1382714807987213
1772526370505398300,6.836398193359375,-0.0877736434340477,0.006819350179284811,-0.16527299582958221
1772526370515381200,6.84638134765625,-0.08289160579442978,0.024519778788089752,-0.16858085989952087
1772526370525363500,6.856363525390625,-0.08403196930885315,0.026272404938936234,-0.15496517717838287
1772526370535345400,6.866345458984375,-0.0903298407793045,0.011383537203073502,-0.14047859609127045
1772526370545327400,6.876327392578125,-0.0827006846666336,0.003080599708482623,-0.11738234758377075
1772526370555310300,6.886310302734375,-0.06298314779996872,0.00942414440214634,-0.0863506942987442
1772526370565292300,6.896292236328125,-0.04952992498874664,0.01289104763418436,-0.06004425510764122
1772526370575274500,6.9062744140625,-0.03884940966963768,0.010703323408961296,-0.02773122861981392
1772526370585257200,6.91625732421875,-0.03307780623435974,0.01307433471083641,0.007247794419527054
1772526370595239400,6.926239501953125,-0.03158627450466156,0.0039516170509159565,0.036777313798666
1772526370605221400,6.936221435546875,-0.029531648382544518,-0.003175002057105303,0.05398879200220108
1772526370615203300,6.946203369140625,-0.026249390095472336,-0.0038926212582737207,0.055621128529310226
1772526370625186600,6.9561865234375,-0.022214433178305626,-0.001997782150283456,0.04842580109834671
1772526370635168300,6.966168212890625,-0.01644195057451725,0.004875692073255777,0.03338126093149185
1772526370645150500,6.976150390625,-0.013813409954309464,0.020902862772345543,0.011354256421327591
1772526370655132400,6.98613232421875,-0.01188715547323227,0.041401393711566925,-0.010286303237080574
1772526370665115400,6.996115478515625,-0.010979018174111843,0.04788592457771301,-0.027979813516139984
1772526370675097300,7.006097412109375,-0.008692428469657898,0.05663387477397919,-0.035671819001436234
1772526370685079300,7.016079345703125,-0.011479692533612251,0.0665498897433281,-0.038811687380075455
1772526370695062300,7.026062255859375,-0.006862559821456671,0.07627211511135101,-0.02498777210712433
1772526370705044200,7.036044189453125,-0.007676688488572836,0.06842856854200363,-0.007348325103521347
1772526370715026400,7.0460263671875,-0.013054292649030685,0.06066320091485977,0.0014977543614804745
1772526370725008100,7.056008056640625,-0.018821634352207184,0.07181118428707123,0.0020828507840633392
1772526370734991400,7.065991455078125,-0.02006322517991066,0.08088145405054092,-0.008466681465506554
1772526370744973300,7.075973388671875,-0.018337231129407883,0.08499923348426819,-0.01837204396724701
1772526370754955300,7.085955322265625,-0.017776623368263245,0.08281951397657394,-0.023679476231336594
1772526370764938200,7.095938232421875,-0.01780192367732525,0.07767881453037262,-0.03171290084719658
1772526370774920400,7.10592041015625,-0.02125435881316662,0.07921215891838074,-0.04095202684402466
1772526370784902400,7.11590234375,-0.017682261765003204,0.09921969473361969,-0.05806922912597656
1772526370794884400,7.12588427734375,-0.010442361235618591,0.10570180416107178,-0.06863676011562347
1772526370804867300,7.135867431640625,-0.013623506762087345,0.09937280416488647,-0.07194174081087112
1772526370814849300,7.145849365234375,-0.017200443893671036,0.10044780373573303,-0.07384713739156723
1772526370824831200,7.155831298828125,-0.010531090199947357,0.10862104594707489,-0.0708039402961731
1772526370834813400,7.1658134765625,-0.00019141845405101776,0.11742345988750458,-0.06556762009859085
1772526370844796400,7.17579638671875,0.007039863150566816,0.12503956258296967,-0.060006678104400635
1772526370854778400,7.1857783203125,0.00459697050973773,0.11384490132331848,-0.059868235141038895
1772526370864760300,7.19576025390625,0.004591377917677164,0.10440346598625183,-0.06332129240036011
1772526370874743600,7.20574365234375,0.007111359387636185,0.10025262087583542,-0.07252492755651474
1772526370884725200,7.215725341796875,-0.0020826715044677258,0.10730520635843277,-0.0894799456000328
1772526370894707500,7.22570751953125,-0.0040704719722270966,0.1367460936307907,-0.1193593442440033
1772526370904689400,7.235689453125,-0.00015056505799293518,0.17065665125846863,-0.15352237224578857
1772526370914672400,7.24567236328125,0.011406464502215385,0.1984129697084427,-0.21236726641654968
1772526370924654300,7.255654296875,0.029734337702393532,0.26769697666168213,-0.2383701056241989
1772526370934636300,7.26563623046875,0.0007442375645041466,0.25463420152664185,-0.23128344118595123
1772526370944618500,7.275618408203125,-0.026659423485398293,0.16032607853412628,-0.22425802052021027
1772526370954601200,7.285601318359375,-0.0214176457375288,0.054091326892375946,-0.213058203458786
1772526370964583400,7.29558349609375,-0.008930616080760956,-0.015045665204524994,-0.21172155439853668
1772526370974565400,7.3055654296875,-0.002781076356768608,-0.0414239764213562,-0.2319941520690918
1772526370984547300,7.31554736328125,0.021563412621617317,-0.00955925416201353,-0.28627151250839233
1772526370994530600,7.325530517578125,0.042016200721263885,0.0566217303276062,-0.3296727240085602
1772526371004512300,7.33551220703125,0.027453506365418434,0.10167202353477478,-0.342011421918869
