time,seconds_elapsed,z,y,x
1772527320615436000,0.08443603515625,0.01812485475540161,0.01000292309820652,-0.40097986090052873
1772527320625418200,0.094418212890625,0.3403863855868578,-0.03626432255804538,-0.3457858334776014
1772527320635400000,0.10439990234375,0.41990883511304855,-0.12154255913197994,-0.1382803799757734
1772527320645382100,0.114382080078125,0.4233054918140173,-0.13393617675900457,0.08548205205034463
1772527320655364000,0.124364013671875,0.446226933196187,-0.0669721800327301,0.2383375766769983
1772527320665346000,0.134345947265625,0.4158130902320146,0.014794249027967452,0.1985908370969817
1772527320675328300,0.144328369140625,0.2644078922778368,0.03999357221424579,0.24272655061725526
1772527320685310200,0.154310302734375,-0.19813538494706154,-0.07539630950689315,0.3309738661298528
1772527320695292200,0.164292236328125,-0.8375333586812019,-0.785104083263874,-0.4719115556813776
1772527320705274000,0.174274169921875,-0.8373574175924062,0.12458791817724704,-0.43465909886881704
1772527320715255300,0.18425537109375,-0.12468787142038344,1.2819459359318017,0.09877312997374683
1772527320725237200,0.1942373046875,0.38198330134451386,1.5903589741528033,-0.026842560348659752
1772527320735219200,0.20421923828125,0.6451911701828241,1.088508937934041,0.3847876912407577
1772527320745201200,0.214201171875,0.7735159368008375,0.35164895335733887,1.1039609202183782
1772527320755183000,0.22418310546875,0.7502548882007598,-0.06439385397732257,1.2194157569345085
1772527320765165000,0.2341650390625,0.7205570845514535,0.06796352915763855,0.7540449281334877
1772527320775147300,0.244147216796875,0.860860458254814,0.15793284615725278,0.10446604438573122
1772527320785129000,0.25412890625,-0.27259996656179425,0.33427140983790155,0.609776011800021
1772527320795111200,0.264111083984375,0.5272527730226516,1.6833578681066632,0.7697519080922007
1772527320805093000,0.274093017578125,2.0037761091589927,2.776505571757257,1.5038599636122583
1772527320815075000,0.284074951171875,3.1889427558153867,2.8782889529302715,2.689702609834075
1772527320825057000,0.29405712890625,4.228208062630892,2.7481930849865077,2.3466199709005653
1772527320835039200,0.304039306640625,4.014149132364988,2.16587776543349,2.3754595502853393
1772527320845021200,0.314021240234375,3.0445968287229537,1.298047760426998,2.619113116087019
1772527320855002000,0.324002197265625,2.5159926410913465,1.2124217333287,2.261531265549362
1772527320864984000,0.333984130859375,2.7382956680893895,1.924344845047593,1.6409285931780933
1772527320874966300,0.34396630859375,2.8409903188884256,2.4146318692445754,1.1907358981560916
1772527320884948200,0.3539482421875,1.891218820515275,1.9443296484559773,1.190541325432062
1772527320894930200,0.36393017578125,-0.0811672941237688,0.8985235416948795,1.8931427743151783
1772527320904912100,0.373912109375,-2.349866843867302,-0.3745020056784153,2.530447282901406
1772527320914894000,0.38389404296875,-4.9314527778536075,-1.8916963748991489,2.6667045960843563
1772527320924876300,0.393876220703125,-7.804243425628543,-3.570434474250674,2.3800400099433956
1772527320934858000,0.40385791015625,-10.202426264375447,-4.770381341409683,1.4856103134334087
1772527320944840200,0.413840087890625,-12.411757679349183,-5.11720331300199,0.23477204794883727
1772527320954822100,0.423822265625,-14.151677100372314,-3.223674461978674,0.006403437301516533
1772527320964804000,0.43380419921875,-14.921765985333918,-1.1710422597140073,1.1659401142694055
1772527320974785000,0.443784912109375,-17.869845390588043,-0.9484925644785165,2.3896920737773177
1772527320984767200,0.453767333984375,-24.03048983478546,2.0400038990989326,2.98883928566575
1772527320994749200,0.463749267578125,-27.466887009990213,7.109731467437744,0.890127323140949
1772527321004731100,0.473731201171875,-27.313379871320723,9.049574910390376,-6.033540159285068
1772527321014713000,0.483713134765625,-22.92741987205744,8.029905699926614,-14.582732767921685
1772527321024695000,0.493695068359375,-14.119987830644845,4.379904352486133,-18.735614663672447
1772527321034677000,0.503677001953125,-4.524592224884033,0.867127117434144,-16.791892333459852
1772527321044659200,0.5136591796875,3.786583070272207,-0.9793149882435798,-11.370710165292024
1772527321054641200,0.52364111328125,10.403054050660133,-2.1156991915524004,-6.363541344457865
1772527321064623000,0.533623046875,15.709228029900789,-2.8261551533281803,0.3145578245863318
1772527321074605300,0.543605224609375,19.97579709510803,-2.5234914724141357,5.202277551436424
1772527321084587000,0.5535869140625,21.332231578052042,-2.9952246027886864,2.7641566700547933
1772527321094568400,0.563568359375,21.84792718427181,-2.296876427435875,-0.04028291054964065
1772527321104550400,0.57355029296875,20.738338633430004,-2.521141109895706,-1.3387076875954866
1772527321114532400,0.583532470703125,18.55533642245531,-2.138011561125517,-2.191087610013783
1772527321124514300,0.593514404296875,16.4929187392354,-0.5802209776222705,-1.8463611493960022
1772527321134496500,0.60349658203125,15.106161598742007,0.26335575287640095,-1.0859177523970602
1772527321144478200,0.613478271484375,14.355762918156385,1.1282266158163547,-0.757602620615065
1772527321154460400,0.62346044921875,13.923002784776687,2.153680839422345,-0.6987845209434628
1772527321164442400,0.6334423828125,12.529455838012694,3.9246620459243653,-1.2969988358959554
1772527321174424300,0.64342431640625,9.261997763887047,5.307469279748201,-1.2048159345000982
1772527321184406300,0.65340625,5.1107560365587466,5.774059202015399,-0.43136254154145715
1772527321194388500,0.663388427734375,2.2698007889837024,5.673610284316539,-0.46536564116925
1772527321204370400,0.673370361328125,1.3302373808920382,5.531168145018816,-1.2619164165988563
1772527321214351400,0.683351318359375,1.1022171452909708,4.808838497836888,-1.3895833038300276
1772527321224333300,0.693333251953125,1.7282710688054561,4.030561337983608,-0.5723652956858277
1772527321234315500,0.7033154296875,3.213168850055337,3.331449484781921,0.4285127050682902
1772527321244297500,0.71329736328125,4.5294209602147335,2.5164123278081414,1.1391814328119159
1772527321254279400,0.723279541015625,5.787327264389395,1.6494789793804288,1.3117455925203858
1772527321264261400,0.733261474609375,6.706838064533471,1.0147983895570039,0.6336342956408858
1772527321274243300,0.743243408203125,5.841279803851246,0.816589062590897,-0.30099954709410665
1772527321284225500,0.7532255859375,3.4273920309722423,0.5858607370749116,-1.0498869463339446
1772527321294207200,0.763207275390625,0.9971364761382341,0.5817106316581369,-1.922760352335125
1772527321304189400,0.773189453125,-1.1551070239573717,0.6825114315345883,-2.6584415023908017
1772527321314171400,0.78317138671875,-2.8260540310412643,0.4650941307514906,-2.964140020956099
1772527321324153300,0.7931533203125,-3.5548534587591885,0.058223056387901304,-3.3524028409615156
1772527321334135300,0.80313525390625,-3.4815076520413157,-0.3013219109162688,-4.056897556245326
1772527321344116500,0.813116455078125,-3.659982643228769,-0.4049485818684101,-4.926974755656719
1772527321354098400,0.823098388671875,-5.296150013354421,-0.09138429836407304,-5.884695751729607
1772527321364080400,0.833080322265625,-8.56136469246745,0.8614312438800931,-6.569048719477653
1772527321374062300,0.843062255859375,-12.310241424679756,2.0462531687520444,-6.251769653233885
1772527321384044300,0.853044189453125,-15.402863740903138,2.644854291065037,-5.315534512782096
1772527321394026200,0.863026123046875,-16.630522206330298,2.3157887793071565,-4.919896780094504
1772527321404008400,0.873008544921875,-16.016739150846004,1.6506107598893343,-5.122563963252306
1772527321413990400,0.882990478515625,-15.64510364051461,0.9584202303834259,-4.557465443699062
1772527321423972400,0.892972412109375,-14.802920994722843,1.023306397922337,-2.541305653785169
1772527321433954600,0.90295458984375,-11.275011072468757,0.8398715923704206,0.0028575813882052896
1772527321443936300,0.912936279296875,-6.444982194826006,0.47036710271835325,1.2806957897402345
1772527321453918500,0.92291845703125,-3.3052526749908924,-0.20038696326613425,1.9751396511308847
1772527321463899400,0.9328994140625,-1.625244409573078,-1.3355480545207856,2.0057199367031453
1772527321473881600,0.942881591796875,-1.107270921549201,-2.1709131292521953,0.5387001227755099
1772527321483863300,0.95286328125,-3.017241788807511,-2.6909879734694955,-1.0784856296349317
1772527321493845500,0.962845458984375,-6.238468857634067,-3.187786279256642,-1.1308559414066373
1772527321503827500,0.972827392578125,-8.525710610762237,-4.462117940792441,2.0882582269191743
1772527321513809400,0.982809326171875,-7.650610614752769,-4.859933309780061,3.726825059401989
1772527321523791400,0.992791259765625,-5.765592402443289,-4.703455338606238,1.5441789683885871
1772527321533773300,1.002773193359375,-6.293739493957162,-5.712402664047479,2.475640756958723
1772527321543755300,1.01275537109375,-7.44348177601099,-5.358332036501169,6.0659191648423665
1772527321553737500,1.022737548828125,-5.544910839167237,-4.079776327529549,8.04229697946608
1772527321563719400,1.032719482421875,-0.7291887192964553,-2.435973932480812,8.689272110456228
1772527321573700400,1.042700439453125,4.74190752659738,-0.032033553120493885,8.726704892271757
1772527321583682300,1.052682373046875,9.941176543867588,2.6831512884944675,8.418612756568193
1772527321593664500,1.06266455078125,13.74654848576188,4.740147531187534,6.874667743065952
1772527321603646200,1.072646240234375,14.802636917084454,5.8617164426803585,4.211862200246751
1772527321613628400,1.08262841796875,13.65770115852952,7.524211263239383,2.07522017390877
1772527321623610600,1.092610595703125,11.434925740092993,8.506085288316012,0.5133787806447595
1772527321633592300,1.10259228515625,8.550956695699691,8.33775350548029,-0.32237003270722925
1772527321643574500,1.112574462890625,7.515697117394208,8.880864941892026,-0.45742038125321266
1772527321653556200,1.12255615234375,8.060141263714431,9.108834908610582,0.2600534964606166
1772527321663538400,1.132538330078125,8.849974713587761,9.265095145380496,1.0511304435890167
1772527321673520400,1.142520263671875,9.21370924153626,9.569971826168894,1.235099282952398
1772527321683502300,1.15250244140625,8.953532118695973,9.756064891144632,1.0088007565774022
1772527321693483300,1.162483154296875,8.059269741576909,9.733905081784725,0.551336828443408
1772527321703465500,1.172465576171875,6.648678136509656,9.250977772700786,0.24176334987459702
1772527321713447400,1.182447509765625,4.885702249547839,8.47371095893383,-0.2246620842795819
1772527321723429400,1.192429443359375,3.3496611410379407,7.4373571556508535,-0.823400934562832
1772527321733411300,1.202411376953125,2.667020237904787,6.448138028508424,-1.0531925637505948
1772527321743393500,1.2123935546875,2.6193349421441554,5.399468349009752,-0.9960646821882575
1772527321753375200,1.222375244140625,2.6312936754852534,4.7125101671993725,-1.2382733829438686
1772527321763357400,1.232357421875,2.863822912943363,3.9168396817356346,-1.694421406173706
1772527321773339400,1.24233935546875,3.279059080070257,2.657465350835025,-2.114138810367882
1772527321783321300,1.2523212890625,3.64921984167397,1.5959575248122215,-2.3236371547199783
1772527321793303600,1.262303466796875,3.9920407609313724,1.0570935167118907,-2.2155314386576412
1772527321803285200,1.27228515625,3.8708828172028062,1.0859376261413096,-1.9415492239572107
1772527321813266200,1.28226611328125,3.3076819479644297,1.153461594837904,-1.3209841071173547
1772527321823248400,1.292248291015625,2.817276265823841,1.019274365927279,-0.8597485514901578
1772527321833230600,1.302230712890625,2.579709618720412,1.0051032172337173,-0.7345655169639737
1772527321843212300,1.31221240234375,2.4591420421004293,0.8919415329560637,-0.7896046095535159
1772527321853194500,1.322194580078125,2.3970693245470525,0.7224050505056977,-0.9631024699155241
1772527321863176400,1.332176513671875,2.151332814991474,0.6755164580807089,-1.3330442550063133
1772527321873158400,1.342158447265625,1.819915917801857,0.8016396230012178,-1.7400155748739838
1772527321883140400,1.352140380859375,1.2887222981989384,1.0392425104618073,-2.002536630491912
1772527321893122600,1.36212255859375,0.6650631608664989,1.4256605793833732,-1.7017215000540018
1772527321903104300,1.372104248046875,0.3603109832406044,1.893803576311469,-0.7428819482799619
1772527321913086500,1.38208642578125,0.21305881331264973,2.5245433195546267,0.3111841103695333
1772527321923068200,1.392068115234375,-0.23480185856521127,3.1326191033080217,1.1126352250613272
1772527321933049300,1.40204931640625,-1.2242425195038318,3.446313004541397,1.3866726770803333
1772527321943031300,1.41203125,-2.4979525420099495,3.0901044881835578,0.7172680529434233
1772527321953013500,1.422013427734375,-4.133386337164044,1.1615025702133774,-0.1403792154185474
1772527321962995200,1.4319951171875,-6.4199617353379725,-2.244638875198364,0.20649642258975653
1772527321972977400,1.441977294921875,-9.581177110794187,-5.551393771445751,1.8665625181645153
1772527321982959600,1.451959716796875,-13.86563079226017,-4.767454348047077,2.2331677792437374
1772527321992941300,1.46194140625,-22.800286361050606,-1.415769299966097,1.2839673587568103
1772527322002923500,1.471923583984375,-34.38022146058082,2.321511833129078,0.9407100208435207
1772527322012905500,1.481905517578125,-42.46797027766704,1.6783718963876366,3.065804451924562
1772527322022887400,1.491887451171875,-39.07740195670127,-6.463360732081532,1.2098005179796367
1772527322032869400,1.501869384765625,-10.084195021748542,-8.140028454899788,-12.179639360779523
1772527322042850600,1.5118505859375,16.189871027439832,-14.578629424256086,-19.411209739947317
1772527322052832300,1.521832275390625,12.005665772664546,-17.555806329178807,-15.167351688241958
1772527322062814500,1.531814453125,-1.0115081158399581,-15.17530936924815,-9.840476281756162
1772527322072796400,1.54179638671875,-5.179212317669391,-10.12496659259796,-4.712816748930513
1772527322082778400,1.5517783203125,-9.021012248250841,-4.7866839491739865,-1.3402560860812662
1772527322092760000,1.561760009765625,-14.313047227501869,-0.704966716709733,1.322759300096333
1772527322102742000,1.571741943359375,-18.165537478923795,1.8955293771907686,4.40888348647207
1772527322112724000,1.581723876953125,-17.96172872451544,3.7565652408882975,6.305596520489454
1772527322122706200,1.5917060546875,-12.701912007302045,4.4496407365351915,4.289147392240166
1772527322132688100,1.601688232421875,-5.951030802902579,4.591858711688221,0.9312056218519806
1772527322142670000,1.611670166015625,0.11126724883317947,4.961388481912016,0.017081629312783477
1772527322152652000,1.621652099609375,5.240831446236371,5.417745179456472,1.668799035269767
1772527322162633000,1.631633056640625,9.041655223307012,5.644186621433496,3.8942823974907395
1772527322172615200,1.641615234375,11.417003129911421,5.736517699128389,5.607983089151978
1772527322182597000,1.65159716796875,12.555249619960785,5.60475360571146,6.568733077657222
1772527322192579000,1.6615791015625,12.754858000069856,5.1268292194813485,6.252503228205442
1772527322202561000,1.67156103515625,12.251333308637141,4.4887183629482985,4.415169727134704
1772527322212543000,1.68154296875,11.782097840297222,3.5582863558173177,1.584706939740479
1772527322222525200,1.691525146484375,12.034272273945808,2.594640938131511,-1.306012309565395
1772527322232507000,1.7015068359375,12.750568778443336,1.9813778148680925,-3.0926877826750276
1772527322242489000,1.711489013671875,13.547074545687437,2.0632342602998017,-3.6911587027370927
1772527322252471000,1.721470947265625,14.197066394150257,2.5064661033332345,-3.287769040748477
1772527322262453000,1.731452880859375,14.143988299435376,3.0328625517874954,-2.3304181931622323
1772527322272434000,1.741433837890625,13.35721131452322,3.6354312625572085,-1.5187224555708467
1772527322282416000,1.751416015625,12.187563139516115,4.204844722700119,-0.9659415657989681
1772527322292398000,1.761398193359375,11.302004293334484,4.608127709443867,-0.6317619258977473
1772527322302380000,1.771380126953125,10.777545534944533,4.812082302063703,-0.7046532668463885
1772527322312362000,1.781362060546875,10.210940410220623,4.737459022755921,-1.3217469081833957
1772527322322344200,1.79134423828125,9.395475090962648,4.689762621079385,-1.8280733591638505
1772527322332326100,1.801326171875,8.275286820173264,4.653817739734054,-1.816815905959904
1772527322342308000,1.81130810546875,6.965034242689609,4.203711919277906,-1.266822016558051
1772527322352290000,1.8212900390625,6.016361645469069,3.390071477359533,-0.8104217721328139
1772527322362272000,1.83127197265625,4.544396995550394,2.2277003076180812,-0.84694350351803
1772527322372254200,1.841254150390625,0.9845973125606775,0.7993129336193203,-1.3395134510204194
1772527322382236000,1.85123583984375,-4.18259314340353,-0.12445493944734334,-2.5290531981945037
1772527322392217000,1.861217041015625,-9.076064857909083,-0.8335834520116447,-3.740590257643163
1772527322402199000,1.871198974609375,-13.076848897266387,-2.1069626351282,-3.5913258711099623
1772527322412181200,1.88118115234375,-16.273690297377108,-3.4572739590167996,-2.1749122818909585
1772527322422163000,1.891162841796875,-18.98709117818475,-4.091386978085339,-0.18913111749738454
1772527322432145200,1.901145263671875,-21.521006429457664,-4.240416094557941,1.5496347495764493
1772527322442127000,1.911127197265625,-23.602404707479476,-4.379828949162364,2.148949426986277
1772527322452109000,1.921109130859375,-24.25350831657648,-3.5367902710631487,1.5895071796290576
1772527322462091000,1.931091064453125,-22.991050924968718,-1.2433654453858733,0.6240068547915667
1772527322472073000,1.941072998046875,-19.78411366277933,-0.19508622650951146,-0.04381488406807184
1772527322482055000,1.951054931640625,-14.692933848828076,-0.48671325736343857,-0.07347487645763903
1772527322492037000,1.961037109375,-9.439030155050753,-0.00006079027652740478,-0.6273622296340763
1772527322502018000,1.97101806640625,-4.96349042262733,-0.282568987390399,-0.5917412830134854
1772527322512000000,1.981,-0.7602437827736139,-0.28796178634464736,-0.3088537311932072
1772527322521982000,1.99098193359375,2.523994745761156,0.4350345080524683,0.3081815675526857
1772527322531964200,2.000964111328125,3.8804099394828078,1.0087830747902393,1.3886888392083345
1772527322541946000,2.010946044921875,3.793875565367937,1.423175192308426,2.8061683040931817
1772527322551928000,2.020927978515625,3.444845270076394,2.089339592415094,3.8878620090544223
1772527322561910300,2.03091015625,3.5646091290980575,2.8258798435181376,3.5647046984270214
1772527322571892000,2.04089208984375,4.203628917169571,3.7538548128858205,2.0229646476231515
1772527322581874200,2.050874267578125,5.284363129448891,4.628154013906419,0.7941291012406348
1772527322591856000,2.060856201171875,6.4255585324317215,5.843840594249963,0.2855204576071352
1772527322601838000,2.070838134765625,6.253146786805987,7.322875620946288,0.31036694876775145
1772527322611819000,2.080819091796875,3.8767701216757295,8.48904063001275,1.2393154393427073
1772527322621801200,2.09080126953125,0.3688631230086088,8.823861198166012,2.522872463732958
1772527322631783000,2.100782958984375,-2.3099802391588686,8.304569028759003,2.5759242549628016
1772527322641765000,2.11076513671875,-3.9211902781605716,6.747336079138517,2.0262480532079934
1772527322651747000,2.1207470703125,-4.4870209113806485,5.418906039929389,1.4362451017618179
1772527322661729000,2.13072900390625,-3.9081040020942686,4.948894326519966,0.9789647135011851
1772527322671711000,2.1407109375,-2.3438135351777074,4.358110746090114,0.5254541261028498
1772527322681693200,2.150693115234375,0.14910042814314364,3.4411847017422317,-0.00950228009968996
1772527322691675000,2.1606748046875,3.123877286186814,2.727847047050297,-0.6576578530460596
1772527322701657000,2.170656982421875,6.273650061130524,2.0373647827669976,-1.2133434512834995
1772527322711639000,2.18063916015625,8.784997506764531,1.566935136206448,-1.3577517030224204
1772527322721620000,2.190619873046875,10.091575195127724,1.4651447407707572,-1.1680682854045181
1772527322731602000,2.200601806640625,10.594176341974734,1.6194003597199915,-0.5512517805084586
1772527322741584100,2.210584228515625,10.88490116329193,2.1909695365920663,0.36583515348955986
1772527322751566000,2.220566162109375,11.063292567849158,2.7666794665306806,1.1484829296424983
1772527322761548000,2.230548095703125,11.270876164621114,3.0994431021541353,1.838926761611551
1772527322771530200,2.2405302734375,11.515793174487351,3.5912194881260393,2.3870593871861696
1772527322781512000,2.250511962890625,11.56794187939763,3.9671185011208054,2.668344764506817
1772527322791494100,2.260494140625,11.362074438893794,3.9963960335314272,2.588447051927447
1772527322801476000,2.27047607421875,11.044314311134814,4.030038775414228,2.3595900732412933
1772527322811458000,2.2804580078125,10.531965677255391,4.1338147917091845,2.256364092044532
1772527322821440000,2.29043994140625,9.733645554065705,4.16392409876883,2.2852631465315816
1772527322831421200,2.300421142578125,8.752889719364047,4.1948163728997105,2.3782582410931585
1772527322841403000,2.31040283203125,7.693284219831228,4.18969070044905,2.4230903393797574
1772527322851385000,2.320385009765625,6.692400373858213,4.1882405016407365,2.33468374165222
1772527322861367000,2.330366943359375,5.838704984927177,4.010544678132236,2.1163798672929404
1772527322871349000,2.340348876953125,5.167392116016149,3.3977225766345858,1.9321034963503478
1772527322881331000,2.3503310546875,4.99413164460659,2.5908804165542123,1.7391130730763076
1772527322891313200,2.360313232421875,5.216021414628624,1.3838552815720437,1.9062854567438363
1772527322901294800,2.370294921875,4.92320517399013,-0.93383655487746,2.7608231417179105
1772527322911277000,2.380277099609375,3.395117070311308,-4.4768189585790035,4.392834853468835
1772527322921259300,2.39025927734375,0.8257061427652835,-8.710257615339755,5.807946858569979
1772527322931241000,2.400240966796875,-3.3683377844572067,-11.471325087207555,4.6738680095940826
1772527322941223200,2.41022314453125,-11.665075388938188,-11.199262880784273,0.08263276356644927
1772527322951204000,2.4202041015625,-25.393859085428712,-9.785695474776626,-2.9720316509887574
1772527322961186000,2.43018603515625,-41.689836033415794,-4.443445973548293,-1.6573768930234014
1772527322971168000,2.44016796875,-53.28796613032817,1.143209373153746,4.563905121357739
1772527322981150200,2.450150146484375,-56.51865602402687,0.9561500934943556,12.555267155617475
1772527322991132000,2.4601318359375,-50.252445757508276,1.5871744988977907,7.765823970863223
1772527323001114000,2.470114013671875,-31.286010413861273,0.9107551006279885,-4.465863557061553
1772527323011096000,2.480095947265625,-15.73544734378457,-4.170462852887809,-6.53704965314865
1772527323021078000,2.490078125,-12.302757206404209,-3.83707260979861,-1.9993067086599765
1772527323031060000,2.50006005859375,-13.129590307372808,-3.1345170458838343,3.6500375877976414
1772527323041042200,2.510042236328125,-10.014779540216923,-2.4847253961682316,4.35207497305721
1772527323051023000,2.520023193359375,-5.3592292776018375,-1.9978698077246546,1.2932538041487336
1772527323061005000,2.530005126953125,-1.1650111628562212,-1.6077274575829505,-1.1698586759526282
1772527323070987000,2.539987060546875,2.9882103401124476,-0.3536298980414867,-2.6759634228169915
1772527323080969200,2.54996923828125,6.905044176629185,0.8122627238243818,-3.18850728700757
1772527323090951000,2.559950927734375,10.142339752203226,1.3883134300246833,-3.1610449873253703
1772527323100933000,2.56993310546875,12.347870605850218,2.3272546145647763,-2.703499079996347
1772527323110915000,2.5799150390625,13.546514573717117,3.606997779755294,-1.9311992409870027
1772527323120897000,2.58989697265625,13.173349954122305,4.74322240858823,-1.3595397554829716
1772527323130879200,2.599879150390625,12.417459105861186,5.238202266776561,-0.6407092024631797
1772527323140861000,2.60986083984375,12.625451867955922,5.440387803897261,-0.2187538100838661
1772527323150843100,2.619843017578125,13.726423397099971,5.398067834562063,0.3762169198375195
1772527323160824000,2.629823974609375,15.265732567495107,5.161716992989182,0.870501708433777
1772527323170806300,2.63980615234375,15.887901174008846,5.090027136784792,0.7616413015466182
1772527323180788000,2.6497880859375,15.325750106084346,5.185768899706006,0.3433779686182737
1772527323190770200,2.659770263671875,14.538415487289427,5.099641937348246,-0.6925181540250778
1772527323200752400,2.66975244140625,14.175766416490077,4.657855616948008,-2.2200429247327147
1772527323210734000,2.679734130859375,14.038625890731812,4.348891374585032,-2.992312514734268
1772527323220716300,2.68971630859375,13.465259016788005,4.607446449181437,-2.761264163483679
1772527323230698000,2.699697998046875,12.385827119278908,5.065247500315309,-1.9438764978609977
1772527323240680200,2.70968017578125,11.0417307243824,5.891601877856254,-0.9177895293094217
1772527323250662100,2.719662109375,9.502868128710984,6.8565785441458225,0.021786226807162166
1772527323260644000,2.72964404296875,7.614956533047557,7.571315544241666,0.8122923883102834
1772527323270625000,2.739625,5.806140101408958,7.9494065143227575,1.2712052000783383
1772527323280607200,2.749607177734375,4.505969357478619,7.922730104321241,1.3202080081783234
1772527323290589200,2.759589111328125,3.84834657574594,7.736762127029896,1.2254426890738308
1772527323300571100,2.769571044921875,3.756391930148005,7.4530305256009095,1.1835733861155808
1772527323310553000,2.779552978515625,4.167464547854662,7.263900284886359,1.0805687925845384
1772527323320535300,2.789535400390625,4.901521749970317,7.06602150504887,0.8706726810865104
1772527323330517000,2.79951708984375,5.781625253355503,6.7255661458790295,0.48275239090844985
1772527323340499200,2.809499267578125,6.520531064546108,6.184588798886537,-0.18777634188756345
1772527323350481200,2.819481201171875,6.702120388361811,5.5642661125004285,-0.5209332146123051
1772527323360463000,2.829463134765625,6.045815703490376,4.714302895835042,-0.2241362337745726
1772527323370445300,2.8394453125,5.064785143500566,3.496748183532059,0.44786490966156123
1772527323380426200,2.84942626953125,4.602347664737701,1.905480277840793,1.2817612270146608
1772527323390408000,2.859407958984375,4.366327662554383,-0.33000206195563075,1.544767728061974
1772527323400390100,2.86939013671875,3.278842222449183,-3.2587183028310536,0.9063810502622276
1772527323410372400,2.879372314453125,0.30504911474585533,-6.212237853312492,-0.6137743607211857
1772527323420354000,2.88935400390625,-6.036859659096598,-8.635913445234298,-2.4548802930027245
1772527323430336300,2.899336181640625,-15.739007082092762,-9.794417125892638,-4.544573521161079
1772527323440318200,2.909318115234375,-26.45913853894472,-9.69892670738399,-6.230498901668191
1772527323450300200,2.919300048828125,-34.38154715622663,-7.477234992530941,-6.239846575728058
1772527323460282000,2.9292822265625,-39.27532574472427,-4.809294132649899,-2.516293669864535
1772527323470264300,2.939264404296875,-39.879351960825915,-5.034690449488163,0.899505538469553
1772527323480246000,2.94924609375,-28.0206279769659,-5.928270105040073,-4.899362526109814
1772527323490227200,2.959227294921875,-11.76932252987623,-9.002324498915671,-10.810772097241879
1772527323500209200,2.969209228515625,-3.753535956194997,-10.984172853904962,-9.286962109273672
1772527323510191000,2.979191162109375,-3.433645830669999,-9.239489579480885,-3.464758177292347
1772527323520173000,2.989173095703125,-4.129681052905321,-5.836902903941273,1.7707872913651168
1772527323530155300,2.9991552734375,-4.714823704838753,-3.312916049225628,4.086707588097453
1772527323540137000,3.009136962890625,-4.771334112089872,-1.4460975104734302,3.5362066259562965
1772527323550119200,3.019119140625,-4.241473786917329,-0.36462650835216043,2.3289757392689583
1772527323560101000,3.02910107421875,-2.302508295843005,1.0696022851511835,2.1051013713009654
1772527323570083000,3.0390830078125,0.3726888187766075,3.074771894495189,3.352861398383975
1772527323580065300,3.049065185546875,2.1625018592596055,4.766991406710446,4.807176994365453
1772527323590047200,3.059047119140625,2.8808342534989118,5.928440785431862,5.780930841350555
1772527323600028200,3.069028076171875,3.5867005493968724,6.727431939750909,6.430511186403035
1772527323610010000,3.079010009765625,4.6282717950671906,7.0824161750108,6.9271098779648534
1772527323619992300,3.088992431640625,5.630939601847529,6.920809316515922,6.68623366792202
1772527323629974000,3.09897412109375,6.572640021967888,6.2450365455865855,5.612994779834151
1772527323639956200,3.108956298828125,7.472080678507686,5.2247395586133,4.3563726702511305
1772527323649938200,3.118938232421875,8.313594631257653,4.026383175516128,3.161312113828957
1772527323659920100,3.128920166015625,8.84339358163178,2.9946646308183666,2.2058568707309663
1772527323669902000,3.138902099609375,8.89117415446043,2.1913239029876888,1.5154060244992376
1772527323679884300,3.14888427734375,8.673183145442605,1.419551887244731,0.6723720956403761
1772527323689866000,3.158865966796875,8.523398826688528,0.9348604910977184,-0.29408118254039434
1772527323699848200,3.16884814453125,8.42408037432432,0.6502871781475842,-1.096888643744588
1772527323709829000,3.1788291015625,8.215922192534803,0.5753935574658214,-1.4330391453273594
1772527323719811300,3.188811279296875,7.878651308619975,0.775989925698936,-1.3580952557630837
1772527323729793000,3.19879296875,7.4231941902637475,1.145638792257756,-1.0080537376023828
1772527323739775200,3.208775146484375,7.034930785736441,1.5914289414718745,-0.5053544641431421
1772527323749757000,3.2187568359375,6.747327311310172,1.9923948834449052,-0.0690906334914267
1772527323759739100,3.2287392578125,6.375183266934752,2.3039456351697445,0.115806134371832
1772527323769721000,3.23872119140625,5.79084374807775,2.51613526443243,0.2614036689605564
1772527323779703000,3.248703125,5.205392468586564,2.619003518232703,0.4123816544786095
1772527323789685200,3.258685302734375,4.692810025951266,2.8026109038725493,0.39713195330072193
1772527323799667200,3.268667236328125,4.29195543539822,2.846585362416506,0.31263913148343564
1772527323809649200,3.278649169921875,4.229002427878975,2.852047719475627,0.12450031295903026
1772527323819630000,3.288630126953125,4.697945050752162,2.909888206286728,-0.00006287263575941324
1772527323829612300,3.2986123046875,5.462675039029121,2.7798125043481585,-0.03999664095416665
1772527323839594200,3.30859423828125,6.049841890266538,2.5221952951237556,-0.07442414000649004
1772527323849576200,3.318576171875,6.138101772999764,2.2683711945720018,-0.015266889774706215
1772527323859558100,3.32855810546875,5.843892616698145,1.7664853563874958,0.17907191590098664
1772527323869540000,3.3385400390625,5.299362545660138,1.4346774140536784,0.5766911229956895
1772527323879522000,3.34852197265625,4.056588928687572,0.7643751834899186,1.2389786086037755
1772527323889504300,3.358504150390625,1.739519023528695,-1.050912197728455,2.0004874428771435
1772527323899486000,3.36848583984375,-1.9943957018733023,-3.383812709225714,2.6129841118127106
1772527323909468200,3.37846826171875,-7.694427544647454,-6.64956777882576,3.324990517900884
1772527323919449000,3.388448974609375,-14.366596446859836,-9.198512256926298,2.756546487312019
1772527323929431300,3.398431396484375,-20.682441974163055,-10.3997573472023,0.9972335798371582
1772527323939413000,3.4084130859375,-26.63443197748661,-10.758524023610352,1.1042463130310176
1772527323949395200,3.418395263671875,-33.86148400244713,-8.684352189710737,3.115464262628555
1772527323959377200,3.428377197265625,-41.65959053275585,-4.866363927349448,4.036447181151807
1772527323969359000,3.438359130859375,-32.22257347109318,-0.824979874317348,-4.177651303087175
1772527323979341000,3.448341064453125,-9.536664599850774,-3.1782749390676615,-9.783274969631433
1772527323989323300,3.4583232421875,-1.0930044957876204,-7.3104182904332875,-8.174642087641358
1772527323999305200,3.46830517578125,-5.812558736279606,-7.077866841143369,-5.889247423684597
1772527324009287200,3.478287109375,-9.179532831168174,-5.344399372738599,-2.3817422838166356
1772527324019269000,3.48826904296875,-10.003694667100905,-3.9408629468798635,-0.8571487442553043
1772527324029250000,3.49825,-9.436294592607021,-3.1149948915511367,-2.104103446304798
1772527324039232300,3.508232177734375,-7.528770533978939,-2.608043440540135,-2.7869688058435917
1772527324049214200,3.518214111328125,-4.560383669233322,-1.371070326539874,-2.256538717959076
1772527324059196200,3.528196044921875,-0.9073556674480437,0.2564344291806221,-1.4691571912825108
1772527324069178000,3.53817822265625,2.2559400214135645,1.7391726943090557,-1.302217301196605
1772527324079160300,3.548160400390625,4.209377689954638,3.027952567914128,-1.6632592290602624
1772527324089142000,3.55814208984375,5.010383106705546,3.8376813893467188,-2.058288766721636
1772527324099124200,3.568124267578125,5.301318940424919,4.298089700369537,-2.2325316732972857
1772527324109106200,3.578106201171875,5.661528216856718,4.561685107220709,-2.099609495886415
1772527324119088000,3.588088134765625,6.180139418262243,4.765901857908069,-1.8455735061496494
1772527324129070000,3.598070068359375,6.76674512848556,5.018231482118368,-1.3574189639367162
1772527324139051300,3.60805126953125,7.51823043526411,5.25845828834176,-0.7748544188629836
1772527324149033000,3.618032958984375,8.28926156951189,5.236792399978637,-0.3352417892400175
1772527324159015200,3.62801513671875,9.001833500528335,5.113718978017569,-0.1806760814283043
1772527324168997000,3.6379970703125,9.823923790884017,5.009143335777521,-0.21157752524632958
1772527324178979000,3.64797900390625,10.678172137522697,4.927240713116526,-0.19646277555972336
1772527324188961000,3.6579609375,11.230310345476864,4.889425946246087,-0.10221676762159913
1772527324198943200,3.667943115234375,11.447805095410347,4.865654025514424,-0.010142057574260979
1772527324208925200,3.67792529296875,11.605956845015287,4.946520583125949,0.11852028870135545
1772527324218907100,3.6879072265625,11.708418856102227,5.0523962020486595,0.3442345123823732
1772527324228889300,3.697889404296875,11.517888100939988,5.0886570174753665,0.453677176136896
1772527324238871000,3.70787109375,11.080671572673321,5.2433846378505224,0.4396902249038219
1772527324248852200,3.717852294921875,10.40160443637371,5.473714903959632,0.4862179481271654
1772527324258834200,3.727834228515625,9.334749696364998,5.638782132041454,0.5458794398203491
1772527324268816100,3.737816162109375,7.992191763082146,5.820263319307565,0.5642741244930773
1772527324278798000,3.747798095703125,6.848339708110689,5.996192133143544,0.489217714465037
1772527324288780300,3.7577802734375,5.933322712254524,6.018599779784679,0.2682682392341085
1772527324298762000,3.767761962890625,5.139942383554578,5.9577060428827995,-0.05177061057919636
1772527324308744200,3.777744140625,4.572893606716394,5.799639633473753,-0.3915371655009687
1772527324318726100,3.78772607421875,4.187641658964753,5.483994890433549,-0.6009104221686721
1772527324328708000,3.7977080078125,4.126255170109868,5.160112480401993,-0.5596692610461265
1772527324338689000,3.80768896484375,4.317446435007453,4.950419928652048,-0.4328881436735391
1772527324348671200,3.817671142578125,4.071443967992067,4.620949197094142,-0.050759442508965726
1772527324358653200,3.827653076171875,2.7917618853390214,3.789173086765408,0.4358655155165121
1772527324368635100,3.83763525390625,0.5387485650271177,1.8068650053098796,1.2593266923666
1772527324378617000,3.8476171875,-1.8446663281768558,-1.2007871173754334,2.538706284941733
1772527324388599000,3.85759912109375,-3.080555446332693,-4.2571027332037685,3.418464628151059
1772527324398581000,3.8675810546875,-3.9799446649461983,-6.856828719514608,3.863788767288625
1772527324408563200,3.877563232421875,-7.2015709622234105,-8.946434853911398,3.9765968158230183
1772527324418545200,3.887545166015625,-13.34900345814824,-10.3771550547719,3.803448280355334
1772527324428527000,3.897527099609375,-21.426566396784782,-9.971205771428346,4.3398295317292215
1772527324438509300,3.90750927734375,-31.203644265341758,-8.41352624708414,7.115429386818408
1772527324448490200,3.917490234375,-34.05453053982258,-9.409560899460315,5.913712587377429
1772527324458472200,3.92747216796875,-19.306484460103512,-10.804714112377166,-0.8152087141484021
1772527324468454100,3.9374541015625,-2.735055663254857,-14.41530114879608,-5.121814021667838
1772527324478436400,3.947436279296875,2.2796108198583123,-15.414994908201693,-5.3713522615939375
1772527324488418000,3.95741796875,0.06765899325311184,-13.240562957173585,-0.5520271487951278
1772527324498400300,3.967400146484375,-3.705515144869685,-8.819065780583024,3.2815900598525998
1772527324508382200,3.97738232421875,-7.756980154672265,-4.380006643816828,3.917207638265192
1772527324518364200,3.9873642578125,-10.789509528982638,-1.7539499922022221,4.278592680478096
1772527324528346000,3.99734619140625,-12.625081281077861,-0.1520414500311017,4.714076393602788
1772527324538328000,4.007328125,-13.129970246601104,1.2223685423254966,4.337007460045815
1772527324548310000,4.01731005859375,-11.102972251808643,2.2205381609037516,2.98979147182405
1772527324558291200,4.027291259765625,-7.18381610982418,2.916742602226138,1.116274823672697
1772527324568273200,4.037273193359375,-2.706585940095782,3.3374197913631796,-0.6891950740169733
1772527324578255000,4.047255126953125,1.3568155912160873,3.5473949594467875,-2.011696819155663
1772527324588237000,4.057237060546875,3.870850083976984,3.663966452167928,-2.6139503264963624
1772527324598219300,4.06721923828125,4.809374796670675,3.9943078290805216,-2.9586653889372942
1772527324608201000,4.077200927734375,4.805926117521524,4.5223190192550415,-3.239280319650471
1772527324618183200,4.08718310546875,4.4294636254251,5.034193605881929,-3.420573875389993
1772527324628165000,4.0971650390625,4.2519186085641385,5.555258630180359,-3.568153962098062
1772527324638147000,4.10714697265625,4.3273143335491415,5.841185695827007,-3.6747123025879262
1772527324648129300,4.11712939453125,4.731746782588958,5.772029742014408,-3.7441722077831625
1772527324658110200,4.127110107421875,5.753240870392323,5.504484720754623,-3.819267196255922
1772527324668092200,4.137092041015625,7.034446217089891,5.296210803630948,-3.835769125984609
1772527324678074000,4.14707421875,8.160362217876315,5.178177713924646,-3.9060622671335934
1772527324688056300,4.157056396484375,9.041273530513047,5.220022466963529,-3.9826057008489966
1772527324698038000,4.1670380859375,9.727764094811677,5.4668567086279385,-4.09596407674253
1772527324708020200,4.177020263671875,10.179088643407821,5.978362461942434,-4.200790186612307
1772527324718002200,4.187002197265625,10.237134005141257,6.5630374963641165,-4.250529784554243
1772527324727984000,4.196984130859375,9.933417600303887,7.066341238522529,-4.1581957842499015
1772527324737966000,4.206966064453125,9.609953707945346,7.4208409051358695,-3.953046136626601
1772527324747948300,4.2169482421875,9.488968198174238,7.841516632968187,-3.844664380101859
1772527324757930000,4.226929931640625,9.452722580316662,8.380507774579524,-3.748947751621902
1772527324767911200,4.2369111328125,9.502259641423821,8.559847273641823,-3.6463206131011248
1772527324777893000,4.24689306640625,9.58127881760299,8.447721362152695,-3.4678792319223284
1772527324787875000,4.256875,9.290798910957575,7.655261070907115,-2.2408342222183943
1772527324797857000,4.26685693359375,8.287845272973179,6.2559191741287705,-0.26279008181765673
1772527324807839200,4.276839111328125,6.3894251427769655,4.739202067030966,1.7473717828556894
1772527324817821000,4.286821044921875,3.892143047374487,2.455815528026223,3.6387653754159808
1772527324827803100,4.29680322265625,1.336470722323656,-0.33882483535856006,4.476781841439008
1772527324837785300,4.306785400390625,-0.4890799864947796,-3.016387510065734,3.486729478342831
1772527324847767000,4.31676708984375,-0.9354372680723667,-5.390685907617211,0.9627283028408884
1772527324857749200,4.326749267578125,-0.725422060239315,-7.874193744689226,-1.205487550151348
1772527324867730200,4.336730224609375,-1.5992711794048546,-10.264232439947127,-1.260343175932765
1772527324877712100,4.346712158203125,-4.800867665088177,-11.152807419079542,0.779636903899163
1772527324887694000,4.356694091796875,-9.547492867857217,-9.644323595058918,3.5670056688457725
1772527324897676300,4.36667626953125,-16.10909945463538,-7.058024661076068,6.175532801249623
1772527324907658000,4.376657958984375,-24.279795434999464,-5.447231970703601,7.889020142421126
1772527324917640200,4.38664013671875,-28.888261874878406,-4.59002302069366,6.347163041108846
1772527324927622100,4.3966220703125,-21.356016942787168,-3.1212881464764473,1.205540595512837
1772527324937604000,4.40660400390625,-8.269514666512608,-5.877941601294279,-1.568141881647706
1772527324947586000,4.4165859375,-2.2108289600551125,-9.724850837713479,-2.3120000545486805
1772527324957568300,4.426568359375,-2.6769799063831567,-11.124619435471296,-1.7708973276108502
1772527324967549200,4.436549072265625,-4.747564529445767,-10.880058983957767,-0.4148671511514112
1772527324977531100,4.44653125,-7.26897276584506,-8.743935428535938,0.2561895510414615
1772527324987513000,4.45651318359375,-9.117497523015738,-6.271750949510932,0.8695647929098457
1772527324997495300,4.466495361328125,-9.539146479794383,-4.001194373723864,1.3412186475031076
1772527325007477000,4.47647705078125,-8.942862256121636,-2.1539181553095577,1.3854302758038044
1772527325017459200,4.486459228515625,-7.4277072837740175,-0.7216679684028029,1.1599779909946024
1772527325027441200,4.496441162109375,-5.065465526980161,0.6293322145327925,0.9764681474450975
1772527325037423000,4.506423095703125,-1.9584622187048195,1.8530714606896042,0.8844856639921664
1772527325047405300,4.5164052734375,1.215418577057123,2.786017496468127,0.6924003728643059
1772527325057387000,4.526386962890625,4.129947010365128,3.4910587397187944,0.5773655516585334
1772527325067369200,4.536369140625,6.631772594416141,3.9948865057513117,0.5959646363295614
1772527325077350100,4.54635009765625,8.548713885208963,4.39747011205405,0.5641042112862691
1772527325087332400,4.556332275390625,10.054989970052242,4.632425407615304,0.5543200089726597
1772527325097314300,4.566314208984375,11.214009199017285,4.737664189939201,0.5301307030791417
1772527325107296300,4.576296142578125,11.998165187776088,4.638039740365743,0.4934939670121297
1772527325117278500,4.586278564453125,12.569034984207153,4.51106726513952,0.44615251625310626
1772527325127260200,4.59626025390625,13.02768125399351,4.494150324869156,0.19801243442082778
1772527325137242400,4.606242431640625,13.387716342902182,4.543294002744555,-0.27709862968791277
1772527325147224000,4.61622412109375,13.50794080517292,4.6768446873173115,-0.8123457259327173
1772527325157206300,4.626206298828125,13.161798632538318,4.806031331461668,-1.3725932983234523
1772527325167188200,4.636188232421875,12.517090861958264,4.98818238081336,-1.9420434372149407
1772527325177169400,4.64616943359375,11.73058743329048,5.3212569820821285,-2.3096002999305725
1772527325187151000,4.656151123046875,10.999027893209457,5.766749755784869,-2.3776386478900906
1772527325197133300,4.66613330078125,10.513683001589774,6.250476106292009,-2.2326376178897918
1772527325207115300,4.676115234375,10.259745649921893,6.641245940682292,-1.9714821515366434
1772527325217097200,4.68609716796875,9.956346055948734,6.863087779909372,-1.6278282885864377
1772527325227079200,4.6960791015625,9.443695808774232,6.9440054831862446,-1.3057172721415757
1772527325237061400,4.706061279296875,8.625985925459862,6.968961060744523,-0.9339410381652414
1772527325247043300,4.716043212890625,7.575856694802641,6.76717475207448,-0.43212402743324635
1772527325257025300,4.726025390625,6.71924454164207,6.215265676701068,-0.09296740283705293
1772527325267007200,4.73600732421875,5.92426613009572,5.313191749048233,-0.23903840015642344
1772527325276988200,4.74598828125,4.605709834647178,4.2997664014101025,-0.8691374343432485
1772527325286970400,4.755970458984375,2.521793436324596,3.3029420599609614,-1.3539090561196208
1772527325296952300,4.765952392578125,0.1420709678977728,2.106212401282787,-1.1918274927850812
1772527325306934300,4.775934326171875,-2.2612989180982113,0.4192790127769112,-0.8963810497734696
1772527325316916200,4.785916259765625,-4.597701300236582,-2.0610361657336354,-0.4668432394411415
1772527325326898400,4.7958984375,-6.888078428781032,-4.789606850883365,0.15357998470999298
1772527325336880000,4.805880126953125,-10.756763443678617,-6.011600714677572,-0.10349208478704094
1772527325346862300,4.8158623046875,-18.45156742042303,-5.4131829861074685,-0.938690643845126
1772527325356844300,4.82584423828125,-28.53540705286264,-4.513775939576328,0.36998423599302765
1772527325366826200,4.835826171875,-37.20212947785854,-3.355309668318927,3.80630951500535
1772527325376807200,4.84580712890625,-40.72425730957985,-2.0736264749765394,4.868934070098399
1772527325386789400,4.855789306640625,-34.64366313817501,-2.179259225054085,0.5303031005039811
1772527325396771000,4.86577099609375,-21.84192765159607,-4.917465753555297,-4.484330941644311
1772527325406753300,4.875753173828125,-10.704959606683254,-9.720069448655844,-5.560408268028497
1772527325416735200,4.8857353515625,-5.724342108166217,-12.34788697246313,-3.685228143644333
1772527325426717200,4.89571728515625,-3.9723353589862582,-12.612106064170598,-0.3726187492150813
1772527325436699100,4.90569921875,-3.3368437450408934,-11.232593487977981,1.6613514957427977
1772527325446681300,4.915681396484375,-4.6033483662128445,-8.79307501475811,1.5470860880069435
1772527325456663300,4.925663330078125,-6.529281941756606,-6.165763686907291,1.084625959020853
1772527325466645200,4.935645263671875,-6.8577627854943275,-3.73799410367012,1.438736334055662
1772527325476626200,4.945626220703125,-5.737959130108356,-1.7771520040914415,2.476084409072995
1772527325486608400,4.9556083984375,-4.158749326479435,0.053201136572659014,3.6636207074701783
1772527325496590300,4.96559033203125,-2.308403783622384,1.5274974443092941,4.033488623607158
1772527325506572300,4.975572265625,-0.011351999619603157,2.704874167741835,3.760892748698592
1772527325516554200,4.98555419921875,2.141024771466851,3.704772217547893,3.2175910504117606
1772527325526536200,4.9955361328125,3.585750701326132,4.49867335525155,2.7188158915936946
1772527325536518400,5.005518310546875,4.587301486775279,5.046639830479026,2.339633765275031
1772527325546500000,5.0155,5.565771840888261,5.294039889332652,1.9331674723200498
1772527325556482300,5.025482421875,6.8921665748775,5.472625939679146,1.4531529819428919
1772527325566464300,5.03546435546875,8.491640583378077,5.741226607471704,0.9384919064026326
1772527325576446200,5.0454462890625,10.117663576108217,5.952994796451926,0.5623864841155708
1772527325586427100,5.05542724609375,11.52711536349058,6.037357087224722,0.26620273980535564
1772527325596409300,5.065409423828125,12.391850032830238,5.9645607310831545,0.06223879483528435
1772527325606391300,5.075391357421875,12.533432924950121,5.715659620016813,-0.17166648021638392
1772527325616373200,5.085373291015625,12.246805602079629,5.41277031365335,-0.5642455559857189
1772527325626355200,5.095355224609375,11.918646829903125,5.158860434514284,-1.0571708197318017
1772527325636337400,5.10533740234375,11.65936577911973,4.994730195021629,-1.6156437836654483
1772527325646319000,5.115319091796875,11.38032321228981,4.954470080825686,-2.108607187464833
1772527325656301300,5.12530126953125,11.074606573545932,5.036647428774834,-2.4409758324213326
1772527325666283300,5.135283203125,10.718997484385966,5.242184029889106,-2.5968992384523153
1772527325676264200,5.14526416015625,10.303127695530652,5.555915632784366,-2.5661896274119615
1772527325686246100,5.15524609375,9.715574475324154,5.842350647953152,-2.367459929833561
1772527325696228400,5.165228271484375,9.072257866841554,6.200155785852671,-2.057318314254284
1772527325706210300,5.175210205078125,8.530771985805034,6.557642359322309,-1.6137955254502594
1772527325716192300,5.185192138671875,8.20716371653974,6.835521143069863,-1.1040073897086082
1772527325726174500,5.195174560546875,8.063394712552428,6.878537277975678,-0.6444174093313515
1772527325736156200,5.20515625,8.051466958871483,6.735517046529054,-0.38642917483747
1772527325746138400,5.215138427734375,8.182813119137286,6.482921757119894,-0.2367496316321194
1772527325756120300,5.225120361328125,8.205759110438823,5.952488015973568,-0.06650047086775303
1772527325766102300,5.235102294921875,7.688191280606389,5.045280232563615,0.25870310476496816
1772527325776084200,5.245084228515625,6.625631607443093,3.805198046632111,0.47854573299884795
1772527325786065400,5.2550654296875,5.27983191576004,2.109580708672106,0.5890131366912276
1772527325796047000,5.265047119140625,3.6720109346747396,0.028511516474187374,1.4386967326976359
1772527325806029300,5.275029296875,1.5488082356244324,-2.2443039441555737,2.245297339107096
1772527325816011300,5.28501123046875,-1.5857330679178236,-4.066892880558967,1.9635180407896637
1772527325825993200,5.2949931640625,-6.971065924069285,-5.243090038818121,0.8724627793736756
1772527325835975200,5.30497509765625,-17.01016449750662,-4.753908345514535,-0.5119819925241172
1772527325845957400,5.314957275390625,-32.61001094619036,-2.448598582384735,-0.1939200322743505
1772527325855939000,5.32493896484375,-49.44514620904922,0.3235537625990808,3.8234979656934738
1772527325865921300,5.33492138671875,-57.938127685642236,1.268334466947615,9.437072006720303
1772527325875903500,5.344903564453125,-48.070823018193245,2.1650993284069,4.400283708170056
1772527325885884200,5.35488427734375,-26.246031210315227,-2.019728880572319,-4.120900365078449
1772527325895866000,5.3648662109375,-10.061318004029989,-9.580899462896586,-7.563437358212471
1772527325905848300,5.374848388671875,-3.6865544238120314,-13.083330075979232,-5.785910967850684
1772527325915830300,5.384830322265625,-2.2297493491023777,-12.775658796036243,-1.4990741906404494
1772527325925812200,5.394812255859375,-2.7176088538914915,-9.618262102085351,0.5901100650824606
1772527325935794400,5.40479443359375,-3.5805344279825686,-6.297528949368,1.5486637125872074
1772527325945776000,5.414776123046875,-3.5481846485197543,-3.5565471109345554,2.7478838729068635
1772527325955758300,5.42475830078125,-1.831031186056137,-1.4057675459116696,3.910329861450195
1772527325965740300,5.434740234375,1.1281962206780909,0.09903612829148768,4.277157679238915
1772527325975722200,5.44472216796875,3.5732512852370735,1.1656129281416534,4.28183882279247
1772527325985703200,5.454703125,5.1595536774754525,1.99753341537714,3.710563952691853
1772527325995685400,5.464685302734375,6.220856044054031,2.5560271298378705,2.7869325654864308
1772527326005667300,5.474667236328125,6.887066621389985,3.2445234810009596,1.9238155604764817
1772527326015649300,5.484649169921875,6.7143854111731045,4.0430005483180285,1.117229347918555
1772527326025631200,5.49463134765625,5.975728606307507,4.54746222833991,0.48554720925875006
1772527326035613200,5.50461328125,5.789734325531125,4.7732568968459965,0.11745046751275658
1772527326045595100,5.51459521484375,6.667961513650417,4.8578302000209685,-0.027048165923357008
1772527326055577300,5.524577392578125,8.185369233360886,4.9546927836656565,0.0026026567790657282
1772527326065559000,5.53455908203125,9.66643781171143,4.974225167131424,-0.0199427908975631
1772527326075541200,5.544541259765625,10.731520281350612,4.833486909142136,-0.025554931690916417
1772527326085522200,5.554522216796875,11.503539257591962,4.613457672294974,-0.0020556904207915064
1772527326095504400,5.56450439453125,12.141057408928871,4.39579925623238,-0.10173844605274499
1772527326105485800,5.57448583984375,12.629921122324467,4.140403814710677,-0.35828356906622644
1772527326115467800,5.5844677734375,12.944351813399791,3.9962575018435715,-0.7534238736256956
1772527326125450000,5.594449951171875,13.121312308371067,4.018981959348917,-1.189861307278648
1772527326135431700,5.604431640625,13.158763794887065,4.191922989545763,-1.6520746949620544
1772527326145414000,5.614413818359375,13.067002041512726,4.592696331556141,-2.165083984707296
1772527326155395800,5.624395751953125,12.687999217283725,5.186820454585552,-2.463721186584234
1772527326165377800,5.634377685546875,11.75280160318613,5.942914716464281,-2.6862951394781467
1772527326175359700,5.64435986328125,10.358957719302177,6.650311290669441,-2.6254765136390925
1772527326185341000,5.6543408203125,9.085715314307809,7.175805237326026,-2.4901275474727154
1772527326195322600,5.664322509765625,8.321958554977178,7.5040236307352775,-2.519714291962981
1772527326205304800,5.674304931640625,8.482832423022389,7.432872703713178,-2.9495658444195985
1772527326215286800,5.684286865234375,9.266097015899419,7.043568850222229,-3.740497026401758
1772527326225268700,5.694268798828125,9.634722823020816,6.822391612383723,-3.9879435547456143
1772527326235250700,5.704250732421875,8.834586005797982,6.565987578341365,-3.2886697889804837
1772527326245233000,5.71423291015625,6.760283238995075,6.0971244504451745,-1.9155837387040255
1772527326255214600,5.724214599609375,4.549640741422772,5.276686603471637,-0.25436609847396613
1772527326265196800,5.73419677734375,2.7608973759979007,3.782092188593745,1.4700962256982921
1772527326275177700,5.744177734375,1.0721271274536848,1.3054822943419218,2.439308045339584
1772527326285160000,5.754159912109375,-1.3176859423547982,-2.3181872187510133,2.503867903533578
1772527326295141600,5.7641416015625,-5.662976662099361,-6.225028361302614,2.082413592544198
1772527326305123800,5.774123779296875,-12.044323712360859,-8.852439642396568,1.201650967663154
1772527326315105800,5.784105712890625,-19.776886634135245,-10.382352623414993,0.13612071772385387
1772527326325087700,5.794087646484375,-27.436664890205858,-11.251578758955,-1.2293769597828388
1772527326335070000,5.804070068359375,-33.69348305900097,-11.200318527317046,-3.493858891831338
1772527326345051600,5.8140517578125,-35.44144667026996,-12.390401587587593,-6.424422221878171
1772527326355033900,5.824033935546875,-28.50040354402065,-14.060289441007376,-8.562208157554268
1772527326365015800,5.834015869140625,-17.343739449512956,-15.503838728302716,-6.528271303409338
1772527326374997000,5.8439970703125,-11.340400367224216,-15.19903394370675,-3.086437490108609
1772527326384978700,5.853978759765625,-13.056486492717266,-11.945023964697121,-1.2675894937992096
1772527326394961000,5.8639609375,-17.887753972244262,-8.170394367069006,-0.42529352382607755
1772527326404942800,5.87394287109375,-21.995215010035036,-3.8491874104842543,1.3129703120097518
1772527326414924800,5.8839248046875,-24.57141574385166,-0.07970745070427655,5.583582807388901
1772527326424906800,5.89390673828125,-22.84348252869844,1.7399755351245403,10.342774646264314
1772527326434889000,5.903888916015625,-17.11038662071228,2.5019717145234344,12.012491819292306
1772527326444870700,5.91387060546875,-10.999016202771664,2.3745842287555337,11.197225237476825
1772527326454852900,5.923852783203125,-5.561648038956522,1.9258730775281785,9.207503372633457
1772527326464834800,5.933834716796875,-0.8614040636122227,1.7036545139431953,6.6902043251186605
1772527326474815700,5.943815673828125,3.2654373819530007,1.5583111002460122,4.2615176270365716
1772527326484797700,5.953797607421875,6.619529783436656,1.9631904162704943,2.317821600309014
1772527326494780000,5.96377978515625,8.985738690295815,2.784664912815392,0.851273568611592
1772527326504761600,5.97376171875,10.636231522893905,3.8295951135247943,-0.26094299264624715
1772527326514743800,5.983743896484375,11.797882269406317,4.970523390004039,-0.897892258054018
1772527326524726000,5.99372607421875,12.322217109155654,5.904619764861464,-1.136866068541631
1772527326534707700,6.003707763671875,12.167206580185889,6.543465365409851,-1.225820874736458
1772527326544690000,6.01368994140625,11.665431947290896,7.010882970672846,-1.3734326717570424
1772527326554671900,6.023671875,11.223123064321278,7.143812600737809,-1.5202321294814347
1772527326564653800,6.03365380859375,11.268872423583268,6.883356660956144,-1.549704307681322
1772527326574634800,6.043634765625,11.849684937357901,6.290419994145632,-1.6873486913084983
1772527326584617000,6.053616943359375,12.618494888424873,5.569938312917947,-2.1441315053105354
1772527326594598700,6.0635986328125,13.287795832991598,4.851567047972977,-2.732239144529402
1772527326604580900,6.073580810546875,13.817045332789421,4.219135698381066,-3.1765783642828462
1772527326614562800,6.083562744140625,14.186779977935553,3.7175472357079387,-3.3571807228878137
1772527326624544800,6.093544677734375,14.252463871723412,3.6282787604540583,-3.3146818898543713
1772527326634526700,6.103526611328125,14.149451241016386,4.12104766459465,-2.9865321777671574
1772527326644509000,6.113509033203125,13.737267447197436,4.6436339071109884,-2.270208785262704
1772527326654490600,6.12349072265625,12.75913786934614,5.111942031472921,-1.5299502442888915
1772527326664472800,6.133472900390625,11.296253766983746,5.545829123055935,-0.9826784733273088
1772527326674455000,6.143455078125,9.861008197653293,5.744010685232281,-0.6268332373239099
1772527326684436000,6.15343603515625,8.75547564420402,5.772894834411144,-0.5247428360283375
1772527326694417700,6.163417724609375,7.96922648255825,5.630417039278149,-0.6822828834757209
1772527326704400000,6.17339990234375,7.136717674040794,5.247372246181965,-1.07244846836254
1772527326714381600,6.183381591796875,6.259805075651407,4.635415529341995,-1.4167586032643913
1772527326724363800,6.19336376953125,5.19280946586728,3.9863723599061367,-1.5023378686115145
1772527326734346000,6.203345947265625,3.7189854518175123,3.3293928445130585,-1.0891731009311973
1772527326744327700,6.21332763671875,1.7134399948984385,2.565024675285816,-0.39348917635157704
1772527326754310000,6.223309814453125,-0.6142331373393535,1.1455486297562718,0.5878451888903975
1772527326764291800,6.233291748046875,-2.759067237961292,-1.002056689144671,1.3943847127623856
1772527326774273000,6.24327294921875,-4.52983947788775,-3.0561037266433235,1.8651422761030494
1772527326784254700,6.253254638671875,-6.8622834777891635,-4.424163765451312,2.1874419469878075
1772527326794237000,6.26323681640625,-11.002612181437016,-4.857203008033335,2.559614340674877
1772527326804219000,6.273218994140625,-16.919413967001436,-4.286569650706649,3.0637653473123905
1772527326814200800,6.283200927734375,-23.583117823207377,-3.1986879047602415,3.7061610415577886
1772527326824182800,6.293182861328125,-30.28917379745245,-2.23672035715878,5.2361692996442315
1772527326834164700,6.303164794921875,-33.03701821513176,-1.267481941771507,3.1082573999896645
1772527326844146700,6.313146728515625,-27.97885570464134,0.5415776509732008,-4.263376406645775
1772527326854129000,6.32312890625,-19.55671711203456,-2.6626702260017394,-7.401918762522936
1772527326864110600,6.333110595703125,-12.35680326936841,-7.3072080962151285,-5.74479803621769
1772527326874091800,6.343091796875,-7.6316206676006315,-7.8491154175341125,-4.017476230961084
1772527326884073700,6.35307373046875,-5.49897034124732,-7.512693259403109,-1.48295468435809
1772527326894056000,6.363055908203125,-5.571334151190519,-6.853720816627145,1.0711444730918853
1772527326904037600,6.37303759765625,-6.475757856839895,-5.467094024515152,2.9266432339936492
1772527326914019800,6.383019775390625,-6.97929891488552,-3.870826995362341,4.644922777877747
1772527326924001800,6.393001708984375,-6.540364476785063,-2.2841464174613355,5.986852642390132
1772527326933983700,6.402983642578125,-5.190387207156419,-0.9591574586167931,6.633273062106967
1772527326943966000,6.412966064453125,-3.4643367370098828,-0.05694149214476347,6.227983703976869
1772527326953948000,6.422947998046875,-1.7054945888519286,0.582749034795165,5.160207757470012
1772527326963928600,6.432928466796875,0.0899035582870245,1.3111562483251094,3.990956472826004
1772527326973910800,6.442910888671875,2.028969587126374,2.0920228401497005,2.7021295452088117
1772527326983893000,6.45289306640625,3.9599265437901017,2.7014336718991396,1.6068199873492122
1772527326993874700,6.462874755859375,5.735801659813523,3.2241236670508977,0.9587294424630701
1772527327003857000,6.47285693359375,7.077599714639782,3.6055721308663484,0.6370150241203606
1772527327013838800,6.4828388671875,8.013443225425481,3.9656542737871407,0.6615545682236552
1772527327023820800,6.49282080078125,8.823826126852632,4.330407623389363,0.9596391046538948
1772527327033802800,6.502802734375,9.525976032575965,4.648923830212652,1.370168847655505
1772527327043785000,6.512784912109375,10.091652352017164,4.699212878730893,1.767533404135704
1772527327053766700,6.5227666015625,10.454566795754433,4.445187264257669,1.829175621317327
1772527327063747800,6.532747802734375,10.651104097855091,3.945073550312221,1.544968072939664
1772527327073729800,6.542729736328125,10.706797343504428,3.326283188059926,1.0527603828784078
1772527327083711700,6.552711669921875,10.711828907930851,2.793055724541843,0.6031107452245429
1772527327093693700,6.562693603515625,10.86170265853405,2.5313325413033363,0.20087898456677794
1772527327103676700,6.5726767578125,11.152923154413699,2.3710145535752174,-0.24011291578644886
1772527327113658600,6.58265869140625,11.533402480936049,2.238003967228532,-0.704748763110116
1772527327123640800,6.592640869140625,11.766126364183425,2.2388901024132966,-1.2439859153717756
1772527327133622800,6.602622802734375,11.60406533218026,2.479034783311188,-1.8064437111578882
1772527327143604700,6.612604736328125,10.88766244469881,2.9197584429159757,-2.199649394392967
1772527327153587000,6.6225869140625,9.442108831843733,3.429580188666284,-2.2268056968659162
1772527327163567900,6.63256787109375,7.448707401704787,4.03755046621859,-1.8681711224049329
1772527327173549600,6.642549560546875,5.501502490073442,4.524193288694322,-1.3131497602298856
1772527327183531800,6.65253173828125,4.001309524536133,4.9043338847815985,-1.1307444438561796
1772527327193514000,6.662513916015625,3.1305659701704975,5.063777427762746,-1.333067343620956
1772527327203495700,6.67249560546875,3.261196675643325,4.828002340251207,-1.96874235130921
1772527327213478000,6.682477783203125,4.197136048018932,4.15172571145296,-2.759695598992705
1772527327223459800,6.6924599609375,5.143299292767048,2.9991669106736776,-2.8063831158876416
1772527327233441800,6.70244189453125,5.783841760361194,1.6363307439938186,-2.1419325339615343
1772527327243423700,6.712423828125,5.625832049575448,0.5519695733889937,-0.9213104699771851
1772527327253405700,6.72240576171875,3.8892455723673103,-0.3839978560373187,1.0652451859202234
1772527327263386600,6.73238671875,0.827029500323534,-1.384258017154038,3.3655876089662313
1772527327273368800,6.742368896484375,-2.8107079933494328,-2.708788710837066,5.0315235098898405
1772527327283350800,6.752350830078125,-5.943509175226092,-4.125084665025771,4.634466265793145
1772527327293332700,6.762332763671875,-8.179081531393528,-4.89210656363219,2.5782436378210782
1772527327303314700,6.772314697265625,-10.926984401261805,-5.032175836318731,0.9506651592772454
1772527327313297000,6.782296875,-15.239639510339497,-4.484506882733107,0.8990767185982316
1772527327323278600,6.792278564453125,-19.092540096127987,-3.772724348528683,1.3649582734003662
1772527327333260800,6.8022607421875,-20.419664313435554,-3.897468918572366,0.5578193953957409
1772527327343243000,6.812242919921875,-19.054628006362915,-5.280630372661352,-2.1512200022667645
1772527327353224700,6.822224609375,-16.764435002213716,-7.110664364373683,-4.948918876439333
1772527327363205600,6.83220556640625,-15.699086575114727,-7.935811704212426,-5.013445416885614
1772527327373187800,6.842187744140625,-16.137274578762053,-7.0034338237106795,-2.090790960267186
1772527327383169500,6.85216943359375,-16.8667812779665,-5.364719691711664,1.3854472269386053
1772527327393151700,6.86215185546875,-16.872591425549984,-4.003841673362255,3.509096208451688
1772527327403134000,6.872134033203125,-15.587356384944915,-3.0893308734625577,4.307828711834549
1772527327413115600,6.88211572265625,-13.16067868859768,-2.596018948486447,4.195201572825014
1772527327423097900,6.892097900390625,-9.926918885934352,-2.3800378179863095,3.2324735622450707
1772527327433079800,6.902079833984375,-6.193847625619172,-2.2564003324016926,1.9029234329648315
1772527327443061800,6.912061767578125,-2.218363447213173,-2.245716733562946,0.1482120096697472
1772527327453042700,6.922042724609375,1.5777040752410887,-2.242369468961656,-1.9159572481915355
1772527327463025000,6.93202490234375,4.666500695696473,-1.7060729732617734,-3.5322368455424904
1772527327473006800,6.9420068359375,6.330829745945334,-0.46742111239433287,-4.102451100674271
1772527327482988800,6.95198876953125,6.481266975650191,1.0163640314385294,-3.089572573263943
1772527327492970800,6.961970703125,6.175971777188778,2.37498228816241,-1.5362838312245906
1772527327502952700,6.97195263671875,6.530556783998012,3.540444994178414,-0.6912197847776115
1772527327512934700,6.9819345703125,7.4016732633292674,4.1807215043127535,-0.3615492197986692
1772527327522916900,6.991916748046875,8.411839901432394,4.404139799076319,-0.5506406263401732
1772527327532898600,7.001898681640625,9.256572231706976,4.535412894105911,-0.8069374371483922
1772527327542880800,7.011880859375,9.775418410912156,4.562603683370352,-0.9593366145759821
1772527327552861700,7.02186181640625,9.884224238067866,4.53399718208909,-1.2452533049590886
1772527327562844000,7.031843994140625,9.941351900434494,4.291221860426664,-1.7621229233942926
1772527327572825600,7.04182568359375,10.41197502374053,3.799382053829729,-2.4733421246275302
1772527327582807800,7.051807861328125,11.383784750920533,3.397815515615046,-3.1236765029177067
1772527327592789800,7.061789794921875,12.622745531606673,3.2031112741604444,-3.495171727995574
1772527327602771700,7.071771728515625,13.738295036679505,3.228802764777839,-3.604883271819353
1772527327612754000,7.08175390625,14.48786837235689,3.485124965755641,-3.4367148628517983
1772527327622735600,7.091735595703125,14.680790991091728,3.5877725625425576,-3.013170593845844
1772527327632717800,7.1017177734375,14.49025555975437,4.052758556744456,-2.949020193235576
1772527327642699800,7.11169970703125,14.388181671202181,5.10342028684318,-3.504456273691356
1772527327652681000,7.121680908203125,13.895523241698742,5.152900649327039,-3.690014501138031
1772527327662662700,7.13166259765625,12.648798841273784,4.744933304159343,-3.5191537843465803
1772527327672644900,7.141644775390625,11.03979128075242,4.460416689832508,-3.514440199828148
1772527327682626800,7.151626708984375,9.566453004392981,3.8720848864689468,-3.515957618653774
1772527327692608800,7.16160888671875,8.178706268340349,2.9589968128487465,-3.503858015537262
1772527327702590700,7.1715908203125,6.392044385364652,1.9114479540735483,-3.196008748678863
1772527327712573000,7.181572998046875,3.7809307435989377,0.6527236115142703,-1.9604136450335383
1772527327722554600,7.1915546875,0.03323883725702762,-0.4094245582386851,-0.5381857435125857
1772527327732536800,7.201536865234375,-5.0263317864656445,-1.5821587165623903,0.5730011093713343
1772527327742518800,7.211518798828125,-11.054288592660427,-2.8449109994634982,1.681529629766196
1772527327752500700,7.221500732421875,-16.975821498399974,-3.875182267962396,2.4956825512513516
1772527327762481700,7.231481689453125,-22.394211990022658,-4.21781204856187,2.3572290431983767
1772527327772463900,7.2414638671875,-28.250204794359206,-4.124946717859804,1.848269613365829
1772527327782445600,7.251445556640625,-33.57282838861942,-3.4715587972179054,1.4429577511429785
1772527327792427800,7.261427734375,-36.59808923323154,-2.9571359874129293,1.7170182917766272
1772527327802409700,7.27140966796875,-35.38610413775444,-0.7545233593001961,-0.5378417158478871
1772527327812391700,7.2813916015625,-27.339094158291815,-1.0768208382278681,-1.7463950467780232
1772527327822374000,7.291373779296875,-16.318305684173104,-3.743224405539036,-0.5147982920538634
1772527327832355800,7.30135595703125,-7.496086992517113,-3.9208123847588894,-0.7927073978744447
1772527327842337800,7.311337890625,-2.361235794621706,-4.338728000228107,0.5226424662156031
1772527327852319700,7.32131982421875,-0.6584124708056449,-4.428022194445133,2.825129609672725
1772527327862301000,7.331301025390625,-1.4175544298171996,-3.0645974142223595,4.142764990884065
1772527327872282600,7.34128271484375,-2.7028514297425748,-1.4268226089000702,4.66783048299551
1772527327882264800,7.351264892578125,-3.3473972877591844,-0.4522404943972826,4.967655141091346
1772527327892246800,7.361246826171875,-3.35827933177948,0.0803308432996273,4.5960205075427885
1772527327902228700,7.371228759765625,-2.4026637835532427,0.8775035500198602,3.6409678538963197
1772527327912210700,7.381210693359375,-0.2026373725414276,1.8580927959829567,2.4354691978290677
1772527327922193000,7.39119287109375,2.451371408098936,2.172635130739212,0.8792604766897857
1772527327932174600,7.401174560546875,4.764113513186573,2.1266958018630744,-0.7448094092112034
1772527327942156800,7.41115673828125,6.59020373570919,2.1836083601742984,-2.0136527755290268
1772527327952138800,7.421138671875,7.749308304870128,2.232199664863944,-2.7083757461220026
1772527327962120000,7.431119873046875,8.35643950124979,2.1746599145650864,-3.013213263943791
1772527327972101600,7.4411015625,8.6241417588979,2.1961726581931114,-3.1272499774903055
1772527327982083800,7.451083740234375,8.607744166326523,2.549757840310037,-2.9505685917213555
1772527327992065800,7.461065673828125,8.333157994383573,3.1365590731054542,-2.3357138153523205
1772527328002047700,7.4710478515625,7.779072159492969,3.6257144629240035,-1.4803943323507904
1772527328012030000,7.481030029296875,6.991231929263472,3.8895468934014437,-0.6063519556354731
1772527328022011600,7.49101171875,6.317099911278486,3.8670910237044094,0.0927599706314504
1772527328031993900,7.500993896484375,6.059531509631872,3.842935948874056,0.5180421693459153
1772527328041975800,7.510975830078125,6.2823284576267,3.9218177624091504,0.7269714816384018
1772527328051957800,7.520957763671875,6.792665167161822,3.9399917170032857,0.8650621477283537
1772527328061938700,7.530938720703125,7.4409367677032945,3.8834205194756386,1.0555229063943028
1772527328071921000,7.5409208984375,8.096386297050119,3.6956449082404372,1.0185793694004417
1772527328081902800,7.55090283203125,8.51270733680427,3.2858100156351924,0.8096586788058281
1772527328091884800,7.560884765625,8.615237152430415,2.9249884525239467,0.46252537624202666
1772527328101866200,7.5708662109375,8.464345749217271,2.843417546035349,0.042255818057805296
1772527328111848400,7.580848388671875,8.01547853064537,2.863893640092015,-0.34237923990450797
1772527328121830100,7.590830078125,7.364698746675252,2.89872237688899,-0.650121831518039
1772527328131812400,7.600812255859375,6.570259848833084,2.970665331071615,-0.7846502020165323
1772527328141794300,7.610794189453125,5.563941702851653,3.0487708995372054,-0.5978284574400633
1772527328151776300,7.6207763671875,4.492554580110311,2.9608547156751155,-0.15635953242592512
1772527328161757200,7.630757080078125,3.6795787395805117,2.795332437302172,0.39269459190778433
1772527328171739400,7.640739501953125,3.0219185484468936,2.998073854739964,0.5082614376310258
1772527328181721000,7.65072119140625,2.2643010225236413,2.8984292391613122,0.5627911924589425
1772527328191703300,7.660703369140625,1.5163316149115562,2.157474094225466,0.8517129829421639
1772527328201685200,7.670685302734375,0.9839438170880078,1.3379150759130716,1.1368903992652892
1772527328211667200,7.680667236328125,0.7751917610585689,0.38033991805166006,1.5342287983909249
1772527328221649400,7.6906494140625,0.5158481664329767,-0.6884338073208928,2.1694448102653023
1772527328231631400,7.70063134765625,-0.026914894932508468,-1.0213806905567646,1.9317567287392914
1772527328241613300,7.71061328125,-1.0170897153645753,-1.6430100756272672,1.321513099427521
1772527328251595300,7.72059521484375,-2.4135054955631494,-2.31159994931519,1.257360214599222
1772527328261577500,7.730577392578125,-4.257429480940103,-2.963188419319689,1.9519966759525238
1772527328271558400,7.740558349609375,-6.164083770996331,-3.0864421662837267,2.471563424517214
1772527328281540400,7.750540283203125,-7.562725995072722,-2.380320142059028,1.9046015953101216
1772527328291522300,7.760522216796875,-8.255071130618452,-1.9156454057633876,1.0182608049705624
1772527328301504300,7.770504150390625,-8.307932952234149,-2.3618615253046156,0.7160754090927541
1772527328311486200,7.780486328125,-7.937910137796401,-3.104943745397031,0.550510277958773
1772527328321468400,7.790468505859375,-7.509325828796625,-3.1380037189558148,0.2607567128265276
1772527328331450000,7.8004501953125,-7.197108722117543,-2.0881845771610736,-0.2974075870167464
1772527328341432300,7.810432373046875,-6.956765596038102,-0.8828104242563247,-0.9841665199279784
1772527328351414300,7.820414306640625,-6.8875839232623575,-0.34787498777657744,-0.9400514838695525
1772527328361396200,7.830396240234375,-7.1137582387357945,-0.3201727418586612,-0.2944576146373525
1772527328371377200,7.840377197265625,-7.414391290605068,-0.33559505965709685,0.4481408039934933
1772527328381359400,7.850359375,-7.603035793629288,-0.3614639526680112,0.8665161459289491
1772527328391341300,7.86034130859375,-7.564808646565675,-0.4677703642234206,0.7947966983038932
1772527328401323300,7.8703232421875,-7.393358439448475,-0.7219096682041883,0.4151754864482209
1772527328411305500,7.880305419921875,-6.855550954663753,-1.0176400427237153,-0.09156719891661777
1772527328421287400,7.890287353515625,-5.819008935332298,-1.261991527661681,-0.7585138171758502
1772527328431269400,7.900269287109375,-4.455494138738513,-1.4071829656675456,-1.4662569397963583
1772527328441251300,7.910251220703125,-3.1005051784276962,-1.5887579686969517,-2.006507872210443
1772527328451233300,7.9202333984375,-2.004558783969283,-1.558656260421872,-2.1828107800558207
1772527328461215200,7.93021533203125,-1.2542863601118326,-1.109080016797781,-1.9445476751208304
1772527328471197400,7.940197509765625,-0.8695674963235854,-0.4981418293505907,-1.4740885102048515
1772527328481178400,7.950178466796875,-0.5768745898038149,0.1419341897755861,-0.9446794359311461
1772527328491160300,7.960160400390625,-0.23483751440048217,0.6989616310760378,-0.36671193632408977
1772527328501142300,7.970142333984375,0.03406652025282383,1.0304182757541536,0.13235004007872192
1772527328511124500,7.98012451171875,0.28950667769908905,1.110827444986999,0.3509016421213746
1772527328521106200,7.990106201171875,0.7158394083797931,1.164769170793891,0.2997952676045708
1772527328531088400,8.00008837890625,1.2977823874890804,1.2511498156517744,0.037950398781732654
1772527328541070300,8.0100703125,2.028840992310643,1.36577192787081,-0.2907282553832978
1772527328551052300,8.02005224609375,2.856864179846644,1.5183151899442076,-0.6075730949282646
1772527328561034200,8.0300341796875,3.5752433358371256,1.6036317127019166,-0.8316327563352882
1772527328571016200,8.04001611328125,4.10167017942965,1.63631876129508,-0.7798176672935485
1772527328580997000,8.0499970703125,4.291536333203315,1.5073364075511693,-0.48941199492812154
1772527328590979300,8.059979248046876,4.1861540507555,1.2783920428425073,-0.193076640252769
1772527328600961300,8.069961181640625,3.9712019710421558,1.202846680253744,-0.06561429915037005
1772527328610943200,8.079943115234375,3.801336987289786,1.2707792297512293,-0.06438084836527705
1772527328620925400,8.089925537109375,3.74043740516901,1.2136948220044375,-0.22736849369406698
1772527328630907400,8.099907470703124,3.7677754939496513,1.019881976431608,-0.4146067831821739
1772527328640889300,8.109889404296876,3.794020526796579,0.7917498048886656,-0.5285015309747308
1772527328650871300,8.119871337890626,3.76736808219254,0.5781698903113603,-0.5619726060850545
1772527328660853500,8.129853515625,3.4642361992448567,0.34619331829994915,-0.471878420596756
1772527328670835200,8.139835205078125,2.8791262805372475,0.25769524289667606,-0.23241858015786854
1772527328680817400,8.1498173828125,2.2206991966843606,0.36262685896754265,-0.005794073231518268
1772527328690798300,8.15979833984375,1.6670798102617264,0.5590627465203404,0.059082047837413845
1772527328700780300,8.1697802734375,1.279463471466303,0.7005489002674817,-0.0657448667274788
1772527328710762200,8.17976220703125,0.9933727396905422,0.7801005758881568,-0.22968124588215721
1772527328720744400,8.189744384765625,0.7080804648160934,0.8297413896307348,-0.2911638155226596
1772527328730726100,8.19972607421875,0.5045931974470615,0.9162573513060808,-0.2417938728770241
1772527328740708400,8.209708251953124,0.23150164797604084,1.064933124296367,-0.12099829618744551
1772527328750690300,8.219690185546876,-0.1001771150201559,1.389160694503784,-0.02453839332582429
1772527328760672300,8.22967236328125,-0.27316169209778307,1.801149842533469,-0.06578002937240526
1772527328770654200,8.239654296875,-0.13099603165388107,1.936234312544763,-0.4189999035745859
1772527328780636400,8.249636474609375,0.3367740403085947,1.5677017366647719,-1.188724923659861
1772527328790617300,8.259617431640624,0.8998562516033649,0.8597910754576324,-1.9894512312084436
1772527328800599300,8.269599365234376,1.2050836455255747,0.0557353312253952,-2.527469436134398
1772527328810581200,8.279581298828125,1.2018915714859961,-0.6066016195476055,-2.695957578575611
1772527328820563200,8.289563232421875,0.9272527925729751,-0.9916372942000627,-2.5984806624248624
1772527328830545400,8.29954541015625,0.6206704769104718,-1.1332584725037216,-2.374525922697037
1772527328840527400,8.30952734375,0.4052963723927736,-1.0006921227931975,-2.0591355928093193
1772527328850509300,8.31950927734375,0.3603226736783981,-0.6254515737071633,-1.6410472511216998
1772527328860491300,8.3294912109375,0.22988953660428524,-0.35867373742759223,-1.0570571302242577
1772527328870473500,8.339473388671875,0.06539981614947318,-0.23654519510120153,-0.5370642286693676
1772527328880455200,8.349455078125,-0.1159498536914587,-0.07392857504189014,-0.25313012693822384
1772527328890437400,8.359437255859374,-0.41743280038833613,0.09292553645670414,-0.13738518470171837
1772527328900418300,8.369418212890626,-0.7507061390995979,0.1391392983600497,-0.2137383930746466
1772527328910400500,8.379400390625,-1.1310212149709462,0.04687807103097438,-0.36150644010286775
1772527328920382200,8.38938232421875,-1.6566110232174396,-0.0752852503478527,-0.5866237208040431
1772527328930364400,8.399364501953125,-1.9484902752667663,-0.2145420376077294,-0.7833443070497363
1772527328940346400,8.409346435546874,-2.0616753404200074,-0.5948004148557782,-0.8024033739153296
1772527328950328300,8.419328369140626,-2.040796218520403,-0.5301116695851087,-0.974458195862174
1772527328960310300,8.429310302734375,-1.610596875539422,-0.46908290812671183,-1.3635147965937853
1772527328970292200,8.439292236328125,-1.0880530108600854,-0.5497004594132304,-1.5348286639802158
1772527328980274200,8.449274169921875,-1.0095137271523476,-0.4809288287431001,-1.290442253859341
1772527328990256400,8.45925634765625,-1.3361246853649615,-0.4936886493340134,-1.0699198266677559
1772527329000237300,8.4692373046875,-1.2450129203319549,-0.047694940371811385,-1.2064742961663752
1772527329010219300,8.47921923828125,-0.43550913982689377,0.4104518554598093,-1.2046233345374464
1772527329020201200,8.489201171875,0.6596160013765097,0.1982864838555455,-0.8112938787922263
