time,seconds_elapsed,z,y,x
1772527320615436000,0.08443603515625,-0.15457141399383545,0.3148628771305084,0.30255407094955444
1772527320625418200,0.094418212890625,-0.27058908343315125,0.33022958040237427,0.3224007487297058
1772527320635400000,0.10439990234375,-0.34787675738334656,0.29151567816734314,0.35307589173316956
1772527320645382100,0.114382080078125,-0.397532194852829,0.2224266231060028,0.37399157881736755
1772527320655364000,0.124364013671875,-0.4421417713165283,0.1539318561553955,0.37910565733909607
1772527320665346000,0.134345947265625,-0.49498847126960754,0.130597785115242,0.3556229770183563
1772527320675328300,0.144328369140625,-0.5224370360374451,0.17638087272644043,0.31890904903411865
1772527320685310200,0.154310302734375,-0.48180970549583435,0.33010730147361755,0.2812578082084656
1772527320695292200,0.164292236328125,-0.38204967975616455,0.6338769197463989,0.26536285877227783
1772527320705274000,0.174274169921875,-0.20446103811264038,1.1462013721466064,0.14543963968753815
1772527320715255300,0.18425537109375,-0.0910792276263237,1.400577187538147,-0.1118631362915039
1772527320725237200,0.1942373046875,-0.029948225244879723,1.3378350734710693,-0.41112762689590454
1772527320735219200,0.20421923828125,0.04028512164950371,1.1511375904083252,-0.6334100961685181
1772527320745201200,0.214201171875,0.08776821941137314,0.9216066002845764,-0.7326589226722717
1772527320755183000,0.22418310546875,0.06341583281755447,0.5895848274230957,-0.7592605352401733
1772527320765165000,0.2341650390625,-0.04527895525097847,0.05891455337405205,-0.7970407009124756
1772527320775147300,0.244147216796875,-0.2649078667163849,-0.5591124892234802,-0.8876988887786865
1772527320785129000,0.25412890625,-0.5959044098854065,-0.13637693226337433,-0.9711881875991821
1772527320795111200,0.264111083984375,-0.7437306642532349,0.09992033243179321,-0.8352579474449158
1772527320805093000,0.274093017578125,-0.6656747460365295,0.5266016125679016,-0.3970947265625
1772527320815075000,0.284074951171875,-0.5569307208061218,0.5831397175788879,0.1932106763124466
1772527320825057000,0.29405712890625,-0.6136752367019653,0.3898160755634308,0.6844663619995117
1772527320835039200,0.304039306640625,-0.7195845246315002,0.018623383715748787,1.0159311294555664
1772527320845021200,0.314021240234375,-0.6880513429641724,-0.45411381125450134,1.202164888381958
1772527320855002000,0.324002197265625,-0.4903843104839325,-0.9061652421951294,1.2838374376296997
1772527320864984000,0.333984130859375,-0.2230772227048874,-1.229044795036316,1.1972639560699463
1772527320874966300,0.34396630859375,0.012422580271959305,-1.231208086013794,0.9523845911026001
1772527320884948200,0.3539482421875,0.14208737015724182,-0.5302594900131226,0.6253284215927124
1772527320894930200,0.36393017578125,0.23657231032848358,0.6500346660614014,0.326116144657135
1772527320904912100,0.373912109375,0.47687065601348877,1.5868269205093384,0.17826807498931885
1772527320914894000,0.38389404296875,0.9396753311157227,1.9949744939804077,0.17160703241825104
1772527320924876300,0.393876220703125,1.4500077962875366,2.258019208908081,0.12633676826953888
1772527320934858000,0.40385791015625,1.8767337799072266,2.598027229309082,-0.05066217854619026
1772527320944840200,0.413840087890625,2.169874668121338,2.870527982711792,-0.26760461926460266
1772527320954822100,0.423822265625,2.1950719356536865,2.2959673404693604,-0.82785964012146
1772527320964804000,0.43380419921875,1.7048115730285645,0.3815343976020813,-2.0103108882904053
1772527320974785000,0.443784912109375,1.4371010065078735,0.3458663821220398,-2.4441335201263428
1772527320984767200,0.453767333984375,2.3855268955230713,2.168442726135254,-2.1905159950256348
1772527320994749200,0.463749267578125,3.7643914222717285,3.075627565383911,-1.042649507522583
1772527321004731100,0.473731201171875,4.056099891662598,4.157440185546875,0.8084733486175537
1772527321014713000,0.483713134765625,2.778322458267212,4.605622291564941,2.5621914863586426
1772527321024695000,0.493695068359375,0.9822552800178528,3.6320648193359375,3.7529869079589844
1772527321034677000,0.503677001953125,-0.7936306595802307,2.0542795658111572,4.4361443519592285
1772527321044659200,0.5136591796875,-2.0141992568969727,0.6481701731681824,4.481870174407959
1772527321054641200,0.52364111328125,-2.819681406021118,-0.015152054838836193,3.8698203563690186
1772527321064623000,0.533623046875,-2.5667877197265625,0.16977065801620483,2.496617555618286
1772527321074605300,0.543605224609375,-1.916576862335205,0.83558189868927,0.7190209627151489
1772527321084587000,0.5535869140625,-1.6475658416748047,1.7324120998382568,-0.7834506034851074
1772527321094568400,0.563568359375,-1.5399335622787476,2.0330920219421387,-1.925735354423523
1772527321104550400,0.57355029296875,-1.5216230154037476,1.8752079010009766,-2.5175857543945312
1772527321114532400,0.583532470703125,-1.541438102722168,1.5156304836273193,-2.698312282562256
1772527321124514300,0.593514404296875,-1.4171233177185059,1.0817630290985107,-2.5933008193969727
1772527321134496500,0.60349658203125,-1.2230498790740967,0.14256715774536133,-2.389829635620117
1772527321144478200,0.613478271484375,-1.0403543710708618,-1.1430385112762451,-2.152681350708008
1772527321154460400,0.62346044921875,-0.849066972732544,-2.488490104675293,-2.0987823009490967
1772527321164442400,0.6334423828125,-0.7214706540107727,-3.5681710243225098,-2.210224151611328
1772527321174424300,0.64342431640625,-0.4901718497276306,-3.901439905166626,-2.2642366886138916
1772527321184406300,0.65340625,-0.10332956910133362,-3.5531063079833984,-2.1125080585479736
1772527321194388500,0.663388427734375,0.2642514407634735,-2.689908981323242,-1.9152982234954834
1772527321204370400,0.673370361328125,0.46767672896385193,-1.751994252204895,-1.7431795597076416
1772527321214351400,0.683351318359375,0.5566274523735046,-0.9682215452194214,-1.4623106718063354
1772527321224333300,0.693333251953125,0.6339219808578491,-0.5854579210281372,-1.1426637172698975
1772527321234315500,0.7033154296875,0.7146129608154297,-0.63927161693573,-0.8589908480644226
1772527321244297500,0.71329736328125,0.8190344572067261,-0.9596379399299622,-0.6078536510467529
1772527321254279400,0.723279541015625,0.9047774076461792,-1.58417546749115,-0.5234984159469604
1772527321264261400,0.733261474609375,0.8880399465560913,-2.3968796730041504,-0.7257620096206665
1772527321274243300,0.743243408203125,0.8392845392227173,-2.7890543937683105,-1.0281696319580078
1772527321284225500,0.7532255859375,0.82831871509552,-2.570136547088623,-1.3269377946853638
1772527321294207200,0.763207275390625,0.8138967156410217,-1.9861642122268677,-1.6077207326889038
1772527321304189400,0.773189453125,0.7894755601882935,-1.2136058807373047,-1.7797971963882446
1772527321314171400,0.78317138671875,0.7633284330368042,-0.5565425157546997,-1.7673985958099365
1772527321324153300,0.7931533203125,0.663953959941864,-0.32977962493896484,-1.6157158613204956
1772527321334135300,0.80313525390625,0.4553844630718231,-0.7137994766235352,-1.5211364030838013
1772527321344116500,0.813116455078125,0.19068460166454315,-1.4412305355072021,-1.6734094619750977
1772527321354098400,0.823098388671875,-0.08884160965681076,-1.9828271865844727,-2.013306140899658
1772527321364080400,0.833080322265625,-0.2826337218284607,-1.8255153894424438,-2.3187084197998047
1772527321374062300,0.843062255859375,-0.26607048511505127,-0.907069981098175,-2.3502819538116455
1772527321384044300,0.853044189453125,-0.08845707774162292,0.5396914482116699,-1.9318649768829346
1772527321394026200,0.863026123046875,0.013695230707526207,1.7099058628082275,-1.2460511922836304
1772527321404008400,0.873008544921875,-0.10209421813488007,2.3818068504333496,-0.5188727974891663
1772527321413990400,0.882990478515625,-0.40141114592552185,2.773496150970459,0.6252405643463135
1772527321423972400,0.892972412109375,-0.6347245573997498,2.4955170154571533,2.291476011276245
1772527321433954600,0.90295458984375,-0.780835747718811,1.020302653312683,3.9123120307922363
1772527321443936300,0.912936279296875,-0.9392924904823303,-0.9035161733627319,4.986340522766113
1772527321453918500,0.92291845703125,-0.9670969247817993,-1.9786304235458374,5.48598575592041
1772527321463899400,0.9328994140625,-0.8407770395278931,-1.9227122068405151,5.305909156799316
1772527321473881600,0.942881591796875,-0.7696704268455505,-0.8891133666038513,4.506138801574707
1772527321483863300,0.95286328125,-0.6553569436073303,0.8008042573928833,3.5969250202178955
1772527321493845500,0.962845458984375,-0.5052711963653564,2.570939779281616,2.9862890243530273
1772527321503827500,0.972827392578125,-0.09197736531496048,3.441171884536743,2.7716736793518066
1772527321513809400,0.982809326171875,0.20216698944568634,2.949056386947632,2.679725408554077
1772527321523791400,0.992791259765625,-0.16606590151786804,1.6198558807373047,2.699833869934082
1772527321533773300,1.002773193359375,-0.5849549174308777,0.19220398366451263,3.1720588207244873
1772527321543755300,1.01275537109375,-0.7061820030212402,-1.1243525743484497,4.153507709503174
1772527321553737500,1.022737548828125,-0.7297096252441406,-2.75639009475708,5.045931339263916
1772527321563719400,1.032719482421875,-0.5627350211143494,-3.7430789470672607,5.2863898277282715
1772527321573700400,1.042700439453125,-0.10999561846256256,-3.3650684356689453,4.728867530822754
1772527321583682300,1.052682373046875,0.5920077562332153,-2.302727460861206,3.378427028656006
1772527321593664500,1.06266455078125,1.2663792371749878,-1.1446467638015747,1.5952811241149902
1772527321603646200,1.072646240234375,1.6084269285202026,-0.029524851590394974,-0.13524016737937927
1772527321613628400,1.08262841796875,1.7409026622772217,0.7741117477416992,-1.527174949645996
1772527321623610600,1.092610595703125,1.7026692628860474,1.2546695470809937,-2.3470535278320312
1772527321633592300,1.10259228515625,1.5217938423156738,1.3842651844024658,-2.4679880142211914
1772527321643574500,1.112574462890625,1.2621968984603882,0.9300884008407593,-2.235318660736084
1772527321653556200,1.12255615234375,1.069682002067566,0.020856667309999466,-1.912121057510376
1772527321663538400,1.132538330078125,1.011139154434204,-1.0031394958496094,-1.6791139841079712
1772527321673520400,1.142520263671875,1.047132968902588,-1.7813526391983032,-1.6051896810531616
1772527321683502300,1.15250244140625,1.1610174179077148,-2.0982303619384766,-1.7082526683807373
1772527321693483300,1.162483154296875,1.3224329948425293,-1.876125454902649,-1.9443811178207397
1772527321703465500,1.172465576171875,1.5047783851623535,-1.162634253501892,-2.2061750888824463
1772527321713447400,1.182447509765625,1.6653279066085815,-0.19619214534759521,-2.3524773120880127
1772527321723429400,1.192429443359375,1.7369996309280396,0.7554064393043518,-2.3383989334106445
1772527321733411300,1.202411376953125,1.7456607818603516,1.373917579650879,-2.175950288772583
1772527321743393500,1.2123935546875,1.7086673974990845,1.467782735824585,-1.906502604484558
1772527321753375200,1.222375244140625,1.6059012413024902,1.2228330373764038,-1.5212271213531494
1772527321763357400,1.232357421875,1.432871699333191,0.725707471370697,-1.1285288333892822
1772527321773339400,1.24233935546875,1.1872931718826294,0.08583925664424896,-0.7955007553100586
1772527321783321300,1.2523212890625,0.9236607551574707,-0.454762727022171,-0.5884125828742981
1772527321793303600,1.262303466796875,0.6464564800262451,-0.8410145044326782,-0.5676867961883545
1772527321803285200,1.27228515625,0.4706000089645386,-0.8900273442268372,-0.6641262769699097
1772527321813266200,1.28226611328125,0.3721550703048706,-0.46671801805496216,-0.8538153767585754
1772527321823248400,1.292248291015625,0.37274789810180664,0.260276198387146,-1.1001676321029663
1772527321833230600,1.302230712890625,0.3968414068222046,1.0599007606506348,-1.3954668045043945
1772527321843212300,1.31221240234375,0.36748990416526794,1.7487307786941528,-1.6616297960281372
1772527321853194500,1.322194580078125,0.2897326946258545,2.1957192420959473,-1.871637225151062
1772527321863176400,1.332176513671875,0.15833474695682526,2.4574949741363525,-1.9750853776931763
1772527321873158400,1.342158447265625,-0.017498228698968887,2.456505537033081,-1.9627792835235596
1772527321883140400,1.352140380859375,-0.22876785695552826,2.236649513244629,-1.7883031368255615
1772527321893122600,1.36212255859375,-0.4144694209098816,1.8985625505447388,-1.4628018140792847
1772527321903104300,1.372104248046875,-0.4863939583301544,1.45156991481781,-1.0932551622390747
1772527321913086500,1.38208642578125,-0.4219014048576355,0.9329832196235657,-0.7725006937980652
1772527321923068200,1.392068115234375,-0.24323870241641998,0.4765395522117615,-0.5342375636100769
1772527321933049300,1.40204931640625,-0.050121601670980453,0.06923992931842804,-0.38835713267326355
1772527321943031300,1.41203125,0.05572573468089104,-0.501310408115387,-0.4235345423221588
1772527321953013500,1.422013427734375,-0.03706654533743858,-1.2530218362808228,-0.687311053276062
1772527321962995200,1.4319951171875,-0.29337501525878906,-1.8864262104034424,-1.1700897216796875
1772527321972977400,1.441977294921875,-0.602565348148346,-2.0755844116210938,-1.9885356426239014
1772527321982959600,1.451959716796875,-0.8631495237350464,-2.0904524326324463,-3.1231601238250732
1772527321992941300,1.46194140625,-0.9351440668106079,-1.1309280395507812,-3.527909994125366
1772527322002923500,1.471923583984375,-0.5765049457550049,0.4119296371936798,-2.3199050426483154
1772527322012905500,1.481905517578125,0.8824360966682434,1.4727128744125366,1.1185622215270996
1772527322022887400,1.491887451171875,2.6751949787139893,2.904381513595581,5.7372565269470215
1772527322032869400,1.501869384765625,1.7360438108444214,-1.5055609941482544,6.1891679763793945
1772527322042850600,1.5118505859375,-0.5395423769950867,-8.309724807739258,3.232189416885376
1772527322052832300,1.521832275390625,-1.6290680170059204,-9.021072387695312,1.1143593788146973
1772527322062814500,1.531814453125,-1.7363409996032715,-5.150936126708984,-0.6566441655158997
1772527322072796400,1.54179638671875,-1.3871954679489136,-1.4447053670883179,-2.526350259780884
1772527322082778400,1.5517783203125,-1.0842951536178589,0.8772685527801514,-3.482875108718872
1772527322092760000,1.561760009765625,-0.8561005592346191,1.9614839553833008,-3.191293954849243
1772527322102742000,1.571741943359375,-0.5324545502662659,1.9538211822509766,-1.814019799232483
1772527322112724000,1.581723876953125,-0.10303739458322525,0.9691354036331177,0.05895309895277023
1772527322122706200,1.5917060546875,-0.09376586228609085,-0.38991299271583557,1.6400617361068726
1772527322132688100,1.601688232421875,-0.4641837179660797,-1.3872612714767456,2.658710241317749
1772527322142670000,1.611670166015625,-0.8270666003227234,-1.6892333030700684,3.068716287612915
1772527322152652000,1.621652099609375,-0.9439005255699158,-1.4861345291137695,2.9652984142303467
1772527322162633000,1.631633056640625,-0.8193700313568115,-0.8366098403930664,2.499093770980835
1772527322172615200,1.641615234375,-0.49700266122817993,0.20074264705181122,1.8706401586532593
1772527322182597000,1.65159716796875,-0.09153186529874802,1.286573052406311,1.283208966255188
1772527322192579000,1.6615791015625,0.2704114317893982,2.163212299346924,0.8521009683609009
1772527322202561000,1.67156103515625,0.5094383358955383,2.8451855182647705,0.6969649195671082
1772527322212543000,1.68154296875,0.5022339820861816,3.2446188926696777,0.7391549944877625
1772527322222525200,1.691525146484375,0.22777606546878815,3.2093093395233154,0.8389174938201904
1772527322232507000,1.7015068359375,-0.20359450578689575,2.748302698135376,0.9301848411560059
1772527322242489000,1.711489013671875,-0.6351121068000793,1.9910733699798584,0.9280732274055481
1772527322252471000,1.721470947265625,-0.9555212259292603,1.1468865871429443,0.7680382132530212
1772527322262453000,1.731452880859375,-1.1207793951034546,0.5096890330314636,0.45599988102912903
1772527322272434000,1.741433837890625,-1.152079701423645,0.2517920434474945,0.07101479917764664
1772527322282416000,1.751416015625,-1.0755279064178467,0.33111855387687683,-0.32147443294525146
1772527322292398000,1.761398193359375,-0.9089837074279785,0.49893999099731445,-0.7151538133621216
1772527322302380000,1.771380126953125,-0.7310448288917542,0.5346974730491638,-1.1157313585281372
1772527322312362000,1.781362060546875,-0.6423829793930054,0.420009583234787,-1.4744856357574463
1772527322322344200,1.79134423828125,-0.5760319232940674,0.2018071860074997,-1.772087812423706
1772527322332326100,1.801326171875,-0.37481972575187683,-0.02296874113380909,-1.9929291009902954
1772527322342308000,1.81130810546875,-0.07348039001226425,-0.15428733825683594,-2.169919729232788
1772527322352290000,1.8212900390625,0.15781790018081665,-0.24211983382701874,-2.4031877517700195
1772527322362272000,1.83127197265625,0.2683050036430359,-0.4837140738964081,-2.7161004543304443
1772527322372254200,1.841254150390625,0.37941545248031616,-0.4660348892211914,-2.8804619312286377
1772527322382236000,1.85123583984375,0.3389710783958435,0.12230132520198822,-2.7688241004943848
1772527322392217000,1.861217041015625,0.17365743219852448,0.7225708365440369,-2.41428542137146
1772527322402199000,1.871198974609375,-0.022745901718735695,0.879098653793335,-1.8571596145629883
1772527322412181200,1.88118115234375,-0.17261895537376404,0.6115076541900635,-1.1528455018997192
1772527322422163000,1.891162841796875,-0.19992540776729584,0.1806444376707077,-0.34189778566360474
1772527322432145200,1.901145263671875,-0.11655431985855103,-0.1614639014005661,0.5725259184837341
1772527322442127000,1.911127197265625,-0.07122465968132019,-0.36357998847961426,1.6074076890945435
1772527322452109000,1.921109130859375,-0.07371445000171661,-0.6331724524497986,2.68515682220459
1772527322462091000,1.931091064453125,-0.16557805240154266,-0.894788920879364,3.6822781562805176
1772527322472073000,1.941072998046875,-0.32811155915260315,-1.1554499864578247,4.338770866394043
1772527322482055000,1.951054931640625,-0.48581355810165405,-1.33034348487854,4.450822353363037
1772527322492037000,1.961037109375,-0.6891639232635498,-1.1644889116287231,4.089482307434082
1772527322502018000,1.97101806640625,-0.9145911931991577,-0.7998852133750916,3.411339282989502
1772527322512000000,1.981,-1.1182136535644531,-0.487250417470932,2.473670721054077
1772527322521982000,1.99098193359375,-1.2635087966918945,-0.2549426257610321,1.4111394882202148
1772527322531964200,2.000964111328125,-1.3576722145080566,-0.10201902687549591,0.4934866428375244
1772527322541946000,2.010946044921875,-1.297135591506958,0.07398955523967743,-0.14686833322048187
1772527322551928000,2.020927978515625,-1.0852943658828735,0.36112773418426514,-0.5594517588615417
1772527322561910300,2.03091015625,-0.8805952668190002,0.6958546042442322,-0.8505986332893372
1772527322571892000,2.04089208984375,-0.8543277382850647,0.8845110535621643,-1.0949019193649292
1772527322581874200,2.050874267578125,-0.934263288974762,0.67158043384552,-1.372501015663147
1772527322591856000,2.060856201171875,-1.0476287603378296,-0.057031698524951935,-1.7861416339874268
1772527322601838000,2.070838134765625,-1.0938116312026978,-0.9870325922966003,-2.200533390045166
1772527322611819000,2.080819091796875,-0.8924596309661865,-1.6236482858657837,-2.3272032737731934
1772527322621801200,2.09080126953125,-0.4419316351413727,-1.8606126308441162,-2.0591423511505127
1772527322631783000,2.100782958984375,-0.004829633515328169,-1.9863094091415405,-1.4961999654769897
1772527322641765000,2.11076513671875,0.30420756340026855,-2.0353615283966064,-0.7609553337097168
1772527322651747000,2.1207470703125,0.5156852602958679,-1.7536169290542603,-0.021577775478363037
1772527322661729000,2.13072900390625,0.7171145677566528,-1.2105003595352173,0.6499688625335693
1772527322671711000,2.1407109375,0.8667241334915161,-0.7960611581802368,1.2559192180633545
1772527322681693200,2.150693115234375,0.9173569679260254,-0.740166187286377,1.7857334613800049
1772527322691675000,2.1606748046875,0.8369777202606201,-1.079514980316162,2.203680992126465
1772527322701657000,2.170656982421875,0.6240217685699463,-1.774166464805603,2.444593906402588
1772527322711639000,2.18063916015625,0.32831889390945435,-2.5531270503997803,2.5113980770111084
1772527322721620000,2.190619873046875,0.017926136031746864,-3.0863537788391113,2.437777042388916
1772527322731602000,2.200601806640625,-0.20949921011924744,-3.107349395751953,2.2090747356414795
1772527322741584100,2.210584228515625,-0.3276924192905426,-2.6985459327697754,1.8455729484558105
1772527322751566000,2.220566162109375,-0.36909228563308716,-2.0863802433013916,1.3987263441085815
1772527322761548000,2.230548095703125,-0.3660930395126343,-1.349857211112976,0.8935108780860901
1772527322771530200,2.2405302734375,-0.307841420173645,-0.5837852358818054,0.3489428460597992
1772527322781512000,2.250511962890625,-0.2295559048652649,0.06329710781574249,-0.1552843600511551
1772527322791494100,2.260494140625,-0.1792418509721756,0.47274595499038696,-0.5597322583198547
1772527322801476000,2.27047607421875,-0.16951997578144073,0.6717954277992249,-0.8715210556983948
1772527322811458000,2.2804580078125,-0.17099039256572723,0.7026432156562805,-1.079161524772644
1772527322821440000,2.29043994140625,-0.17083832621574402,0.6372972726821899,-1.1602624654769897
1772527322831421200,2.300421142578125,-0.15521754324436188,0.5426385402679443,-1.1292997598648071
1772527322841403000,2.31040283203125,-0.1312626749277115,0.5063124895095825,-0.9807537794113159
1772527322851385000,2.320385009765625,-0.08644838631153107,0.493412047624588,-0.7482776045799255
1772527322861367000,2.330366943359375,-0.04099568724632263,0.5490236878395081,-0.49249184131622314
1772527322871349000,2.340348876953125,-0.0002328353002667427,0.743330180644989,-0.25692540407180786
1772527322881331000,2.3503310546875,0.005613602232187986,0.9275271892547607,-0.13853271305561066
1772527322891313200,2.360313232421875,-0.005757431033998728,0.953082799911499,-0.26471397280693054
1772527322901294800,2.370294921875,-0.0006905007176101208,0.9247811436653137,-0.6667194366455078
1772527322911277000,2.380277099609375,0.09749118983745575,0.8958272337913513,-1.3601832389831543
1772527322921259300,2.39025927734375,0.23378677666187286,0.7753194570541382,-2.5182251930236816
1772527322931241000,2.400240966796875,0.14529109001159668,0.5938637852668762,-4.182799816131592
1772527322941223200,2.41022314453125,-0.36048951745033264,0.7442381381988525,-5.824713706970215
1772527322951204000,2.4202041015625,-1.1256401538848877,1.879515290260315,-6.600494861602783
1772527322961186000,2.43018603515625,-1.3963736295700073,3.8472201824188232,-5.755768775939941
1772527322971168000,2.44016796875,-0.68096923828125,5.37040901184082,-3.6137118339538574
1772527322981150200,2.450150146484375,1.2909138202667236,5.53648042678833,-0.4126439690589905
1772527322991132000,2.4601318359375,2.3041512966156006,3.7704412937164307,2.9171996116638184
1772527323001114000,2.470114013671875,1.316487193107605,-0.4754461348056793,4.388801574707031
1772527323011096000,2.480095947265625,0.18858331441879272,-4.506842136383057,4.38411808013916
1772527323021078000,2.490078125,0.0287499837577343,-5.711816787719727,4.202598571777344
1772527323031060000,2.50006005859375,0.785511314868927,-4.394768714904785,3.9492483139038086
1772527323041042200,2.510042236328125,1.5424977540969849,-2.3251020908355713,3.292483329772949
1772527323051023000,2.520023193359375,1.8772544860839844,-0.5355627536773682,2.6208722591400146
1772527323061005000,2.530005126953125,1.8886610269546509,0.5008367896080017,2.1464526653289795
1772527323070987000,2.539987060546875,1.700820803642273,0.8631117343902588,1.8151253461837769
1772527323080969200,2.54996923828125,1.4233481884002686,0.9320306181907654,1.50392484664917
1772527323090951000,2.559950927734375,1.0659966468811035,1.036908507347107,1.1608175039291382
1772527323100933000,2.56993310546875,0.7367678284645081,1.3318668603897095,0.8042727708816528
1772527323110915000,2.5799150390625,0.46814507246017456,1.5713037252426147,0.48906993865966797
1772527323120897000,2.58989697265625,0.25486502051353455,1.7560317516326904,0.46466127038002014
1772527323130879200,2.599879150390625,0.0856272503733635,1.7833671569824219,0.6962811946868896
1772527323140861000,2.60986083984375,-0.06956873089075089,1.6656906604766846,1.019485354423523
1772527323150843100,2.619843017578125,-0.1501198410987854,1.4038993120193481,1.2810025215148926
1772527323160824000,2.629823974609375,-0.22224995493888855,1.0741450786590576,1.3160479068756104
1772527323170806300,2.63980615234375,-0.28596407175064087,0.9109565019607544,1.1769379377365112
1772527323180788000,2.6497880859375,-0.33043673634529114,1.0128849744796753,0.9410871267318726
1772527323190770200,2.659770263671875,-0.4041323959827423,1.2356135845184326,0.6635382175445557
1772527323200752400,2.66975244140625,-0.6501836776733398,1.273936152458191,0.3296110928058624
1772527323210734000,2.679734130859375,-0.9682050347328186,1.0542994737625122,-0.08850838989019394
1772527323220716300,2.68971630859375,-1.2091865539550781,0.8225285410881042,-0.5327960848808289
1772527323230698000,2.699697998046875,-1.3206901550292969,0.7132655382156372,-0.9543017745018005
1772527323240680200,2.70968017578125,-1.2999545335769653,0.7622218728065491,-1.3609369993209839
1772527323250662100,2.719662109375,-1.1465409994125366,0.9212205410003662,-1.7010712623596191
1772527323260644000,2.72964404296875,-0.8666590452194214,1.1414703130722046,-1.8807499408721924
1772527323270625000,2.739625,-0.5482993721961975,1.352128267288208,-1.8502142429351807
1772527323280607200,2.749607177734375,-0.2532874345779419,1.4378223419189453,-1.632602572441101
1772527323290589200,2.759589111328125,-0.006186006125062704,1.3379329442977905,-1.2947742938995361
1772527323300571100,2.769571044921875,0.2274741530418396,1.058079481124878,-0.9017468094825745
1772527323310553000,2.779552978515625,0.4524766504764557,0.6737802028656006,-0.5143147110939026
1772527323320535300,2.789535400390625,0.6522102355957031,0.26737892627716064,-0.1888771653175354
1772527323330517000,2.79951708984375,0.8127240538597107,-0.15483209490776062,0.03135456517338753
1772527323340499200,2.809499267578125,0.8951012492179871,-0.49769121408462524,0.1311437487602234
1772527323350481200,2.819481201171875,0.9490233659744263,-0.6955857872962952,0.12792576849460602
1772527323360463000,2.829463134765625,1.0445677042007446,-0.6847520470619202,0.10730144381523132
1772527323370445300,2.8394453125,1.1846001148223877,-0.5251674056053162,0.07657680660486221
1772527323380426200,2.84942626953125,1.367835521697998,-0.39499369263648987,-0.13300597667694092
1772527323390408000,2.859407958984375,1.5001819133758545,-0.41277626156806946,-0.6399198174476624
1772527323400390100,2.86939013671875,1.4847406148910522,-0.6695276498794556,-1.428716778755188
1772527323410372400,2.879372314453125,1.2022924423217773,-1.2822288274765015,-2.3992812633514404
1772527323420354000,2.88935400390625,0.6777148842811584,-1.8827292919158936,-3.273149251937866
1772527323430336300,2.899336181640625,-0.013857893645763397,-1.8655197620391846,-3.73054838180542
1772527323440318200,2.909318115234375,-0.7333236336708069,-0.8270092010498047,-3.588967800140381
1772527323450300200,2.919300048828125,-1.263332486152649,0.6356571912765503,-2.98646879196167
1772527323460282000,2.9292822265625,-0.8408007025718689,2.0485446453094482,-1.5025620460510254
1772527323470264300,2.939264404296875,0.18392547965049744,2.932509422302246,0.8049209117889404
1772527323480246000,2.94924609375,0.04705524817109108,2.0536000728607178,1.9412107467651367
1772527323490227200,2.959227294921875,-1.3385132551193237,-0.3075439929962158,1.5153424739837646
1772527323500209200,2.969209228515625,-2.4243383407592773,-2.21856951713562,0.7109537720680237
1772527323510191000,2.979191162109375,-2.634763479232788,-2.835463047027588,0.03718869388103485
1772527323520173000,2.989173095703125,-2.1993212699890137,-2.656949281692505,-0.5670186877250671
1772527323530155300,2.9991552734375,-1.596661925315857,-1.91672682762146,-1.0428085327148438
1772527323540137000,3.009136962890625,-1.1975361108779907,-1.087807297706604,-1.3295843601226807
1772527323550119200,3.019119140625,-1.0746170282363892,-0.36648762226104736,-1.3510502576828003
1772527323560101000,3.02910107421875,-1.066400408744812,0.035900041460990906,-1.2767586708068848
1772527323570083000,3.0390830078125,-0.964630126953125,0.11765018105506897,-1.2495975494384766
1772527323580065300,3.049065185546875,-0.7327041625976562,0.11488555371761322,-1.180824875831604
1772527323590047200,3.059047119140625,-0.4248647391796112,0.1917233169078827,-0.9941099882125854
1772527323600028200,3.069028076171875,-0.06750954687595367,0.20257408916950226,-0.7175820469856262
1772527323610010000,3.079010009765625,0.3339384198188782,0.08266134560108185,-0.429387629032135
1772527323619992300,3.088992431640625,0.7220810651779175,-0.05488640069961548,-0.15845626592636108
1772527323629974000,3.09897412109375,0.9997247457504272,-0.1559671312570572,0.04977302625775337
1772527323639956200,3.108956298828125,1.171144962310791,-0.22127610445022583,0.1758313626050949
1772527323649938200,3.118938232421875,1.2530009746551514,-0.25514551997184753,0.1996561884880066
1772527323659920100,3.128920166015625,1.3086373805999756,-0.23153367638587952,0.147472083568573
1772527323669902000,3.138902099609375,1.353833556175232,-0.07532388716936111,0.06675098091363907
1772527323679884300,3.14888427734375,1.3353956937789917,0.16015200316905975,-0.029206974431872368
1772527323689866000,3.158865966796875,1.2402710914611816,0.37520331144332886,-0.14309810101985931
1772527323699848200,3.16884814453125,1.070041298866272,0.4606812000274658,-0.24091386795043945
1772527323709829000,3.1788291015625,0.8828728795051575,0.4662521481513977,-0.3091637194156647
1772527323719811300,3.188811279296875,0.7206605076789856,0.43568331003189087,-0.3452697694301605
1772527323729793000,3.19879296875,0.6182292103767395,0.3909403085708618,-0.358950138092041
1772527323739775200,3.208775146484375,0.5730851888656616,0.2755332887172699,-0.34430941939353943
1772527323749757000,3.2187568359375,0.5742550492286682,0.10317139327526093,-0.3117205500602722
1772527323759739100,3.2287392578125,0.6046441197395325,-0.03892449662089348,-0.2511672079563141
1772527323769721000,3.23872119140625,0.6526868343353271,-0.090293288230896,-0.1558128446340561
1772527323779703000,3.248703125,0.7163276076316833,-0.10777614265680313,-0.01770397648215294
1772527323789685200,3.258685302734375,0.7839608788490295,-0.12143713980913162,0.16402365267276764
1772527323799667200,3.268667236328125,0.8535652160644531,-0.07836849242448807,0.3930291533470154
1772527323809649200,3.278649169921875,0.9043888449668884,-0.0021478203125298023,0.6458495259284973
1772527323819630000,3.288630126953125,0.943584680557251,-0.00425491388887167,0.8701339960098267
1772527323829612300,3.2986123046875,0.9825586676597595,-0.086724653840065,1.0203971862792969
1772527323839594200,3.30859423828125,1.0122158527374268,-0.15608374774456024,1.0864731073379517
1772527323849576200,3.318576171875,1.069640040397644,-0.12172140926122665,1.0815552473068237
1772527323859558100,3.32855810546875,1.1349101066589355,0.023197153583168983,1.0035128593444824
1772527323869540000,3.3385400390625,1.2371363639831543,0.21177303791046143,0.7481956481933594
1772527323879522000,3.34852197265625,1.427234411239624,0.520987868309021,0.2983861267566681
1772527323889504300,3.358504150390625,1.6316277980804443,0.8641858100891113,-0.2906914949417114
1772527323899486000,3.36848583984375,1.724295973777771,0.8644683957099915,-0.8693181276321411
1772527323909468200,3.37846826171875,1.6994551420211792,0.5689682960510254,-1.164882779121399
1772527323919449000,3.388448974609375,1.3845325708389282,-0.012267649173736572,-1.1680107116699219
1772527323929431300,3.398431396484375,0.711134135723114,-0.5959475636482239,-1.025620937347412
1772527323939413000,3.4084130859375,0.08027895539999008,-0.7173246145248413,-0.7954745292663574
1772527323949395200,3.418395263671875,0.17148251831531525,0.13899214565753937,0.19379563629627228
1772527323959377200,3.428377197265625,1.381611704826355,2.1702022552490234,3.060067892074585
1772527323969359000,3.438359130859375,1.4562724828720093,2.4354164600372314,4.4473161697387695
1772527323979341000,3.448341064453125,0.3436828553676605,0.6046790480613708,2.7156283855438232
1772527323989323300,3.4583232421875,-0.3906116187572479,-0.15796524286270142,0.7480984330177307
1772527323999305200,3.46830517578125,-0.5690609812736511,0.24753138422966003,-0.15142710506916046
1772527324009287200,3.478287109375,-0.2867979407310486,0.44948330521583557,-0.4315713346004486
1772527324019269000,3.48826904296875,0.10044245421886444,0.3874646723270416,-0.30538037419319153
1772527324029250000,3.49825,0.20346571505069733,0.09359396994113922,0.061982497572898865
1772527324039232300,3.508232177734375,0.14441411197185516,-0.3908084034919739,0.5187153816223145
1772527324049214200,3.518214111328125,0.1287710964679718,-0.9718846082687378,0.9061623811721802
1772527324059196200,3.528196044921875,0.19368644058704376,-1.4673337936401367,1.0601290464401245
1772527324069178000,3.53817822265625,0.26519376039505005,-1.6862165927886963,0.9593392014503479
1772527324079160300,3.548160400390625,0.3179115653038025,-1.5460667610168457,0.7241687774658203
1772527324089142000,3.55814208984375,0.34458109736442566,-1.0633336305618286,0.45800861716270447
1772527324099124200,3.568124267578125,0.3393746018409729,-0.34970971941947937,0.24304838478565216
1772527324109106200,3.578106201171875,0.2986034154891968,0.32081592082977295,0.1286451518535614
1772527324119088000,3.588088134765625,0.23327447474002838,0.8050907254219055,0.14457377791404724
1772527324129070000,3.598070068359375,0.1728655844926834,1.0557359457015991,0.27109912037849426
1772527324139051300,3.60805126953125,0.13331817090511322,1.0226973295211792,0.44537317752838135
1772527324149033000,3.618032958984375,0.09130232036113739,0.7899981737136841,0.6611531376838684
1772527324159015200,3.62801513671875,0.037055596709251404,0.4551760256290436,0.8748044371604919
1772527324168997000,3.6379970703125,-0.04103965312242508,0.10779984295368195,1.0184746980667114
1772527324178979000,3.64797900390625,-0.1258477419614792,-0.21179866790771484,1.0560052394866943
1772527324188961000,3.6579609375,-0.1876204013824463,-0.46692147850990295,1.0053411722183228
1772527324198943200,3.667943115234375,-0.23779624700546265,-0.604587197303772,0.8854581117630005
1772527324208925200,3.67792529296875,-0.24813392758369446,-0.5823639035224915,0.6605990529060364
1772527324218907100,3.6879072265625,-0.23876254260540009,-0.43141886591911316,0.35208621621131897
1772527324228889300,3.697889404296875,-0.2163417935371399,-0.25712689757347107,0.01253492571413517
1772527324238871000,3.70787109375,-0.16805095970630646,-0.11146130412817001,-0.3226161599159241
1772527324248852200,3.717852294921875,-0.100703164935112,0.014583508484065533,-0.6405333280563354
1772527324258834200,3.727834228515625,-0.020420311018824577,0.14185915887355804,-0.8822423815727234
1772527324268816100,3.737816162109375,0.07702385634183884,0.2700901925563812,-0.9963270425796509
1772527324278798000,3.747798095703125,0.18710002303123474,0.3212335407733917,-0.9942609071731567
1772527324288780300,3.7577802734375,0.2764160931110382,0.3281952738761902,-0.9024525284767151
1772527324298762000,3.767761962890625,0.33488231897354126,0.32059115171432495,-0.7328914999961853
1772527324308744200,3.777744140625,0.34694045782089233,0.309237003326416,-0.5302413105964661
1772527324318726100,3.78772607421875,0.3356974124908447,0.32071149349212646,-0.33099475502967834
1772527324328708000,3.7977080078125,0.3282721936702728,0.3776184320449829,-0.21173861622810364
1772527324338689000,3.80768896484375,0.345849871635437,0.43065741658210754,-0.237711101770401
1772527324348671200,3.817671142578125,0.41936224699020386,0.4302288889884949,-0.38887935876846313
1772527324358653200,3.827653076171875,0.5169284343719482,0.4539443254470825,-0.5899876952171326
1772527324368635100,3.83763525390625,0.6167489290237427,0.7602066993713379,-0.7712761163711548
1772527324378617000,3.8476171875,0.7432847619056702,1.3252578973770142,-0.9444801211357117
1772527324388599000,3.85759912109375,0.7777020931243896,1.758332371711731,-1.3355993032455444
1772527324398581000,3.8675810546875,0.6723183989524841,1.7611420154571533,-1.990297555923462
1772527324408563200,3.877563232421875,0.45740342140197754,1.5869139432907104,-2.5453524589538574
1772527324418545200,3.887545166015625,0.11531157791614532,1.4505220651626587,-2.5956547260284424
1772527324428527000,3.897527099609375,0.014486321248114109,1.3401812314987183,-1.743522047996521
1772527324438509300,3.90750927734375,1.0267970561981201,1.5025200843811035,0.8829447031021118
1772527324448490200,3.917490234375,1.9920088052749634,1.6491183042526245,4.040413856506348
1772527324458472200,3.92747216796875,1.4957278966903687,0.0743333101272583,4.732526779174805
1772527324468454100,3.9374541015625,0.15806372463703156,-2.007863759994507,3.3605940341949463
1772527324478436400,3.947436279296875,-0.9872750639915466,-2.9395923614501953,1.5788086652755737
1772527324488418000,3.95741796875,-1.1495164632797241,-2.7183423042297363,-0.08522861450910568
1772527324498400300,3.967400146484375,-0.7098772525787354,-1.5256317853927612,-1.462751865386963
1772527324508382200,3.97738232421875,-0.2035757452249527,0.10624418407678604,-2.2789387702941895
1772527324518364200,3.9873642578125,0.243334099650383,1.0613325834274292,-2.488170623779297
1772527324528346000,3.99734619140625,0.620164155960083,1.2792845964431763,-2.0335025787353516
1772527324538328000,4.007328125,0.9476434588432312,0.9808893799781799,-1.056952953338623
1772527324548310000,4.01731005859375,1.131951093673706,0.27103471755981445,0.006111048627644777
1772527324558291200,4.027291259765625,1.160646677017212,-0.5684990882873535,0.8591731786727905
1772527324568273200,4.037273193359375,1.0703520774841309,-1.356490969657898,1.3708702325820923
1772527324578255000,4.047255126953125,0.9090456962585449,-1.8756557703018188,1.4969019889831543
1772527324588237000,4.057237060546875,0.7733607292175293,-1.885543942451477,1.315392017364502
1772527324598219300,4.06721923828125,0.6835267543792725,-1.35124671459198,0.9491718411445618
1772527324608201000,4.077200927734375,0.6338567733764648,-0.4555417597293854,0.5514739751815796
1772527324618183200,4.08718310546875,0.6115509271621704,0.5103113651275635,0.2581704258918762
1772527324628165000,4.0971650390625,0.5695399641990662,1.2673413753509521,0.140456423163414
1772527324638147000,4.10714697265625,0.4981006681919098,1.654462456703186,0.19736817479133606
1772527324648129300,4.11712939453125,0.39152422547340393,1.6588183641433716,0.41498836874961853
1772527324658110200,4.127110107421875,0.2433195561170578,1.3068372011184692,0.7034478187561035
1772527324668092200,4.137092041015625,0.06752723455429077,0.7543315291404724,0.9652389287948608
1772527324678074000,4.14707421875,-0.11819123476743698,0.18104957044124603,1.1616395711898804
1772527324688056300,4.157056396484375,-0.30778199434280396,-0.24920015037059784,1.2439392805099487
1772527324698038000,4.1670380859375,-0.49595192074775696,-0.4837426245212555,1.1836941242218018
1772527324708020200,4.177020263671875,-0.6624187231063843,-0.5230251550674438,0.9838262796401978
1772527324718002200,4.187002197265625,-0.8073521852493286,-0.35358235239982605,0.6917648315429688
1772527324727984000,4.196984130859375,-0.9027895927429199,-0.008996141143143177,0.3951444923877716
1772527324737966000,4.206966064453125,-0.9504132866859436,0.47857964038848877,0.10365565866231918
1772527324747948300,4.2169482421875,-0.9615074396133423,1.0147725343704224,-0.19692078232765198
1772527324757930000,4.226929931640625,-0.9393144845962524,1.4396699666976929,-0.4672321677207947
1772527324767911200,4.2369111328125,-0.927230179309845,1.6116724014282227,-0.6772350668907166
1772527324777893000,4.24689306640625,-0.9605798721313477,1.4901292324066162,-0.881860613822937
1772527324787875000,4.256875,-0.9376450181007385,1.1548868417739868,-1.0730375051498413
1772527324797857000,4.26685693359375,-0.7859721183776855,0.711723804473877,-1.174058198928833
1772527324807839200,4.276839111328125,-0.4780268371105194,0.1397835612297058,-1.0736585855484009
1772527324817821000,4.286821044921875,-0.015616828575730324,-0.47184574604034424,-0.7290975451469421
1772527324827803100,4.29680322265625,0.44275984168052673,-0.8534569144248962,-0.2060777246952057
1772527324837785300,4.306785400390625,0.648317277431488,-1.0358200073242188,0.3141539990901947
1772527324847767000,4.31676708984375,0.4748934507369995,-1.2576110363006592,0.5706484317779541
1772527324857749200,4.326749267578125,-0.06409121304750443,-1.629745364189148,0.4010498523712158
1772527324867730200,4.336730224609375,-0.7211678624153137,-1.9951878786087036,-0.09394317120313644
1772527324877712100,4.346712158203125,-1.1229040622711182,-2.07381272315979,-0.6237292289733887
1772527324887694000,4.356694091796875,-1.1340566873550415,-1.943643569946289,-1.0237071514129639
1772527324897676300,4.36667626953125,-0.6655939221382141,-1.5779087543487549,-0.8090925812721252
1772527324907658000,4.376657958984375,0.2399112582206726,-0.684910774230957,0.5430983304977417
1772527324917640200,4.38664013671875,1.025763750076294,0.43626248836517334,2.6849606037139893
1772527324927622100,4.3966220703125,1.1714742183685303,0.23309090733528137,3.500304698944092
1772527324937604000,4.40660400390625,0.7402269244194031,-0.9031573534011841,2.5568349361419678
1772527324947586000,4.4165859375,0.22441227734088898,-1.536362648010254,1.1730067729949951
1772527324957568300,4.426568359375,-0.07408013939857483,-1.3891716003417969,0.008366672322154045
1772527324967549200,4.436549072265625,-0.21585381031036377,-1.0432803630828857,-0.8434461355209351
1772527324977531100,4.44653125,-0.24594886600971222,-0.6695724725723267,-1.2128492593765259
1772527324987513000,4.45651318359375,-0.17349137365818024,-0.4872564971446991,-1.1763237714767456
1772527324997495300,4.466495361328125,-0.0768391340970993,-0.5771475434303284,-0.8478122353553772
1772527325007477000,4.47647705078125,-0.0026527796871960163,-0.8118492960929871,-0.361526221036911
1772527325017459200,4.486459228515625,0.028947222977876663,-0.9140022993087769,0.15117168426513672
1772527325027441200,4.496441162109375,0.04118698090314865,-0.8085677623748779,0.5892077684402466
1772527325037423000,4.506423095703125,0.03749903291463852,-0.5932796597480774,0.8524969816207886
1772527325047405300,4.5164052734375,-0.006730236113071442,-0.3162055015563965,0.9809712767601013
1772527325057387000,4.526386962890625,-0.058147624135017395,-0.11815847456455231,0.9892649054527283
1772527325067369200,4.536369140625,-0.10688599199056625,0.017611399292945862,0.925284206867218
1772527325077350100,4.54635009765625,-0.1446421593427658,0.13601207733154297,0.8264737725257874
1772527325087332400,4.556332275390625,-0.16892889142036438,0.22616665065288544,0.7125064134597778
1772527325097314300,4.566314208984375,-0.18267665803432465,0.26931464672088623,0.5853021740913391
1772527325107296300,4.576296142578125,-0.16994152963161469,0.34495142102241516,0.43532422184944153
1772527325117278500,4.586278564453125,-0.14439301192760468,0.47720587253570557,0.2603742480278015
1772527325127260200,4.59626025390625,-0.13313409686088562,0.5979192852973938,0.07516858726739883
1772527325137242400,4.606242431640625,-0.1544622927904129,0.6499180197715759,-0.13052543997764587
1772527325147224000,4.61622412109375,-0.20399540662765503,0.6170855164527893,-0.3429965674877167
1772527325157206300,4.626206298828125,-0.28410011529922485,0.5866208672523499,-0.5148138403892517
1772527325167188200,4.636188232421875,-0.40588173270225525,0.5766088962554932,-0.6323063373565674
1772527325177169400,4.64616943359375,-0.5262547135353088,0.5948600769042969,-0.6986936330795288
1772527325187151000,4.656151123046875,-0.6125330924987793,0.6487194895744324,-0.7209648489952087
1772527325197133300,4.66613330078125,-0.6470996141433716,0.6815791726112366,-0.7511749863624573
1772527325207115300,4.676115234375,-0.6332737803459167,0.6764760613441467,-0.8322315216064453
1772527325217097200,4.68609716796875,-0.566912829875946,0.6464707851409912,-0.9451351761817932
1772527325227079200,4.6960791015625,-0.4677898585796356,0.5749714970588684,-1.0774990320205688
1772527325237061400,4.706061279296875,-0.34229159355163574,0.5296255946159363,-1.1654807329177856
1772527325247043300,4.716043212890625,-0.15096858143806458,0.49108588695526123,-1.1903796195983887
1772527325257025300,4.726025390625,0.06145181134343147,0.4408099353313446,-1.1936235427856445
1772527325267007200,4.73600732421875,0.18330559134483337,0.3825802206993103,-1.2277607917785645
1772527325276988200,4.74598828125,0.1802096664905548,0.25553226470947266,-1.2519044876098633
1772527325286970400,4.755970458984375,0.10228434950113297,0.07285750657320023,-1.2091963291168213
1772527325296952300,4.765952392578125,0.043738216161727905,-0.09564361721277237,-1.113436222076416
1772527325306934300,4.775934326171875,-0.01805894821882248,-0.2313934564590454,-1.0882683992385864
1772527325316916200,4.785916259765625,-0.14529307186603546,-0.2660219967365265,-1.2830533981323242
1772527325326898400,4.7958984375,-0.373737633228302,-0.2475484013557434,-1.8592606782913208
1772527325336880000,4.805880126953125,-0.7216484546661377,-0.20491066575050354,-2.5920817852020264
1772527325346862300,4.8158623046875,-1.1133170127868652,0.29991719126701355,-2.839271306991577
1772527325356844300,4.82584423828125,-1.2152225971221924,1.1846333742141724,-2.1229565143585205
1772527325366826200,4.835826171875,-0.5163262486457825,1.8301472663879395,-0.27168893814086914
1772527325376807200,4.84580712890625,0.5504564642906189,2.0172083377838135,2.30580997467041
1772527325386789400,4.855789306640625,0.9018892049789429,1.4466930627822876,4.169734001159668
1772527325396771000,4.86577099609375,0.37143146991729736,0.01877233386039734,4.560554504394531
1772527325406753300,4.875753173828125,-0.536324143409729,-1.6410363912582397,3.9019055366516113
1772527325416735200,4.8857353515625,-1.2197781801223755,-2.598773956298828,3.026688814163208
1772527325426717200,4.89571728515625,-1.474600076675415,-2.967867612838745,2.05578351020813
1772527325436699100,4.90569921875,-1.4992090463638306,-2.891573190689087,1.017988920211792
1772527325446681300,4.915681396484375,-1.479333519935608,-2.1256914138793945,0.17374876141548157
1772527325456663300,4.925663330078125,-1.4388185739517212,-0.904142439365387,-0.31166186928749084
1772527325466645200,4.935645263671875,-1.4157010316848755,0.08246096968650818,-0.5506238341331482
1772527325476626200,4.945626220703125,-1.3813344240188599,0.59255051612854,-0.5940341353416443
1772527325486608400,4.9556083984375,-1.2610291242599487,0.7882354259490967,-0.43978139758110046
1772527325496590300,4.96559033203125,-1.1102323532104492,0.7764565348625183,-0.17186260223388672
1772527325506572300,4.975572265625,-0.9858314394950867,0.553687334060669,0.08878906816244125
1772527325516554200,4.98555419921875,-0.8880622982978821,0.26341739296913147,0.3017039895057678
1772527325526536200,4.9955361328125,-0.7969008088111877,0.041619956493377686,0.5261349081993103
1772527325536518400,5.005518310546875,-0.6992629170417786,-0.08477898687124252,0.7815259099006653
1772527325546500000,5.0155,-0.6102232933044434,-0.07468171417713165,1.02333664894104
1772527325556482300,5.025482421875,-0.5378686785697937,0.013532296754419804,1.179559588432312
1772527325566464300,5.03546435546875,-0.47407975792884827,0.07951193302869797,1.225136160850525
1772527325576446200,5.0454462890625,-0.4195035994052887,0.12452441453933716,1.1524816751480103
1772527325586427100,5.05542724609375,-0.3832484781742096,0.11679735034704208,0.938941240310669
1772527325596409300,5.065409423828125,-0.34738874435424805,0.08715663850307465,0.6528783440589905
1772527325606391300,5.075391357421875,-0.3165881931781769,0.06019962579011917,0.38398486375808716
1772527325616373200,5.085373291015625,-0.3083438575267792,0.053119078278541565,0.1703633815050125
1772527325626355200,5.095355224609375,-0.328792005777359,0.027867499738931656,0.00048097874969244003
1772527325636337400,5.10533740234375,-0.38979995250701904,-0.02898113802075386,-0.15613019466400146
1772527325646319000,5.115319091796875,-0.47164255380630493,-0.08224308490753174,-0.3019295036792755
1772527325656301300,5.12530126953125,-0.5610222816467285,-0.11059217154979706,-0.4475889801979065
1772527325666283300,5.135283203125,-0.6359868049621582,-0.1099187359213829,-0.5993888974189758
1772527325676264200,5.14526416015625,-0.6917685270309448,-0.08282666653394699,-0.7453445196151733
1772527325686246100,5.15524609375,-0.7112823128700256,-0.054596588015556335,-0.852084219455719
1772527325696228400,5.165228271484375,-0.6723650097846985,-0.01268056221306324,-0.8977119326591492
1772527325706210300,5.175210205078125,-0.5629414319992065,0.006822052411735058,-0.8852937817573547
1772527325716192300,5.185192138671875,-0.4057116210460663,0.014651212841272354,-0.8429900407791138
1772527325726174500,5.195174560546875,-0.2442687749862671,-0.028301473706960678,-0.7704381346702576
1772527325736156200,5.20515625,-0.07940391451120377,-0.13145795464515686,-0.6772237420082092
1772527325746138400,5.215138427734375,0.07942064106464386,-0.29760730266571045,-0.6019421815872192
1772527325756120300,5.225120361328125,0.22197458148002625,-0.4563937485218048,-0.5811513662338257
1772527325766102300,5.235102294921875,0.3661492168903351,-0.54689621925354,-0.5710805058479309
1772527325776084200,5.245084228515625,0.4896053969860077,-0.6081923246383667,-0.5850589275360107
1772527325786065400,5.2550654296875,0.5327154397964478,-0.6766946315765381,-0.6937921643257141
1772527325796047000,5.265047119140625,0.5082391500473022,-0.76500403881073,-0.9823518395423889
1772527325806029300,5.275029296875,0.4430896043777466,-1.074571967124939,-1.5640802383422852
1772527325816011300,5.28501123046875,0.21394191682338715,-1.5664045810699463,-2.5174269676208496
1772527325825993200,5.2949931640625,-0.2080305516719818,-1.95281183719635,-3.7172796726226807
1772527325835975200,5.30497509765625,-0.7322551608085632,-1.6781609058380127,-4.625889301300049
1772527325845957400,5.314957275390625,-1.0463682413101196,-0.11818744242191315,-4.118594646453857
1772527325855939000,5.32493896484375,-0.3940061628818512,1.879449725151062,-1.6539076566696167
1772527325865921300,5.33492138671875,1.4698196649551392,3.656557083129883,2.1116178035736084
1772527325875903500,5.344903564453125,2.3865010738372803,3.868542432785034,4.700997352600098
1772527325885884200,5.35488427734375,1.6465165615081787,1.6584581136703491,5.045711517333984
1772527325895866000,5.3648662109375,0.11385036259889603,-1.2777115106582642,4.300976753234863
1772527325905848300,5.374848388671875,-1.0573551654815674,-3.1601104736328125,3.4463069438934326
1772527325915830300,5.384830322265625,-1.5618382692337036,-3.671142101287842,2.509281873703003
1772527325925812200,5.394812255859375,-1.6533050537109375,-2.861284017562866,1.5664122104644775
1772527325935794400,5.40479443359375,-1.5070167779922485,-1.2494484186172485,0.7220173478126526
1772527325945776000,5.414776123046875,-1.2119169235229492,0.4135062098503113,0.09303052723407745
1772527325955758300,5.42475830078125,-0.9178181290626526,1.5015678405761719,-0.33188506960868835
1772527325965740300,5.434740234375,-0.7288891077041626,1.7488489151000977,-0.6173737049102783
1772527325975722200,5.44472216796875,-0.573910653591156,1.3541953563690186,-0.7605066299438477
1772527325985703200,5.454703125,-0.46555936336517334,0.7061066627502441,-0.719525158405304
1772527325995685400,5.464685302734375,-0.4019790589809418,0.0345410518348217,-0.572261393070221
1772527326005667300,5.474667236328125,-0.3188445270061493,-0.489162415266037,-0.42067399621009827
1772527326015649300,5.484649169921875,-0.2108413279056549,-0.8165645599365234,-0.19740229845046997
1772527326025631200,5.49463134765625,-0.10269453376531601,-0.9247410893440247,0.177166149020195
1772527326035613200,5.50461328125,-0.02754332311451435,-0.8630048036575317,0.6085566878318787
1772527326045595100,5.51459521484375,0.03162459656596184,-0.7275723218917847,0.9363985061645508
1772527326055577300,5.524577392578125,0.08904368430376053,-0.5552599430084229,1.0911654233932495
1772527326065559000,5.53455908203125,0.1375003308057785,-0.3906857669353485,1.0975284576416016
1772527326075541200,5.544541259765625,0.17459683120250702,-0.23747864365577698,1.0212013721466064
1772527326085522200,5.554522216796875,0.21339520812034607,-0.1141490489244461,0.9040911197662354
1772527326095504400,5.56450439453125,0.2342189997434616,-0.03215831145644188,0.7523990869522095
1772527326105485800,5.57448583984375,0.22998376190662384,-0.00010081427171826363,0.573481023311615
1772527326115467800,5.5844677734375,0.19459834694862366,0.04176194593310356,0.37243765592575073
1772527326125450000,5.594449951171875,0.14480863511562347,0.08744413405656815,0.14416036009788513
1772527326135431700,5.604431640625,0.06813089549541473,0.13977710902690887,-0.10310588777065277
1772527326145414000,5.614413818359375,-0.02308589592576027,0.17740817368030548,-0.38404616713523865
1772527326155395800,5.624395751953125,-0.09991196542978287,0.180154949426651,-0.659688413143158
1772527326165377800,5.634377685546875,-0.1477540284395218,0.16286058723926544,-0.8497379422187805
1772527326175359700,5.64435986328125,-0.13647393882274628,0.17389486730098724,-0.8896582126617432
1772527326185341000,5.6543408203125,-0.07582104951143265,0.242525115609169,-0.8023653626441956
1772527326195322600,5.664322509765625,0.0041954913176596165,0.3471788167953491,-0.6513531804084778
1772527326205304800,5.674304931640625,0.04384907707571983,0.31272003054618835,-0.5387325286865234
1772527326215286800,5.684286865234375,-0.051401544362306595,0.09115807712078094,-0.5714819431304932
1772527326225268700,5.694268798828125,-0.20598208904266357,-0.2789766490459442,-0.7225183248519897
1772527326235250700,5.704250732421875,-0.3098682761192322,-0.6876192688941956,-0.8481601476669312
1772527326245233000,5.71423291015625,-0.2454831600189209,-0.9120399355888367,-0.8388343453407288
1772527326255214600,5.724214599609375,-0.03520660847425461,-0.8111264109611511,-0.8215768337249756
1772527326265196800,5.73419677734375,0.30091479420661926,-0.4357326924800873,-0.9304085373878479
1772527326275177700,5.744177734375,0.6168889403343201,-0.007088395766913891,-1.288320541381836
1772527326285160000,5.754159912109375,0.7436896562576294,0.2665793001651764,-1.8643862009048462
1772527326295141600,5.7641416015625,0.6698359847068787,0.27391818165779114,-2.370786190032959
1772527326305123800,5.774123779296875,0.4897022843360901,-0.1131892204284668,-2.5108776092529297
1772527326315105800,5.784105712890625,0.3096185326576233,-0.7885567545890808,-2.0880420207977295
1772527326325087700,5.794087646484375,0.1476219892501831,-1.5702635049819946,-0.9919410347938538
1772527326335070000,5.804070068359375,0.08467870950698853,-2.012316942214966,0.8009618520736694
1772527326345051600,5.8140517578125,-0.20467735826969147,-1.7810795307159424,2.639176845550537
1772527326355033900,5.824033935546875,-0.8316709399223328,-1.3452225923538208,3.1654958724975586
1772527326365015800,5.834015869140625,-1.334592342376709,-1.011823058128357,1.853470802307129
1772527326374997000,5.8439970703125,-1.4912362098693848,-0.39759793877601624,-0.1890043020248413
1772527326384978700,5.853978759765625,-1.5506718158721924,0.5058147311210632,-1.6995134353637695
1772527326394961000,5.8639609375,-1.7221155166625977,1.201554536819458,-2.252281427383423
1772527326404942800,5.87394287109375,-1.8744502067565918,1.4907861948013306,-1.8845467567443848
1772527326414924800,5.8839248046875,-1.5855128765106201,1.5073877573013306,-0.7536274790763855
1772527326424906800,5.89390673828125,-0.914903461933136,1.1188769340515137,0.4826452434062958
1772527326434889000,5.903888916015625,-0.2681902050971985,0.474011093378067,1.4132516384124756
1772527326444870700,5.91387060546875,0.1874007284641266,-0.2727126479148865,2.063534736633301
1772527326454852900,5.923852783203125,0.4360811114311218,-0.9973161220550537,2.477459669113159
1772527326464834800,5.933834716796875,0.4921896457672119,-1.541764259338379,2.7032546997070312
1772527326474815700,5.943815673828125,0.4015873074531555,-1.7211891412734985,2.670309543609619
1772527326484797700,5.953797607421875,0.273492693901062,-1.471247911453247,2.3760223388671875
1772527326494780000,5.96377978515625,0.1909077912569046,-0.7973690629005432,1.8915103673934937
1772527326504761600,5.97376171875,0.1959555298089981,0.1834012269973755,1.277320146560669
1772527326514743800,5.983743896484375,0.26684436202049255,1.2451692819595337,0.6388906240463257
1772527326524726000,5.99372607421875,0.3536326289176941,2.0578746795654297,0.12219782918691635
1772527326534707700,6.003707763671875,0.4425419867038727,2.4922780990600586,-0.17409668862819672
1772527326544690000,6.01368994140625,0.5306490063667297,2.575892448425293,-0.22902926802635193
1772527326554671900,6.023671875,0.6236367225646973,2.3829517364501953,-0.05751502886414528
1772527326564653800,6.03365380859375,0.6932267546653748,1.9824167490005493,0.22190436720848083
1772527326574634800,6.043634765625,0.7013922929763794,1.4907528162002563,0.4613262712955475
1772527326584617000,6.053616943359375,0.615898847579956,1.0689289569854736,0.5936111211776733
1772527326594598700,6.0635986328125,0.4636683464050293,0.7403826713562012,0.609036922454834
1772527326604580900,6.073580810546875,0.24617676436901093,0.5453269481658936,0.4989834725856781
1772527326614562800,6.083562744140625,-0.008703213185071945,0.45535925030708313,0.2683483958244324
1772527326624544800,6.093544677734375,-0.23576724529266357,0.4030033051967621,-0.0508357398211956
1772527326634526700,6.103526611328125,-0.3777094781398773,0.3361816704273224,-0.4404093325138092
1772527326644509000,6.113509033203125,-0.42388325929641724,0.21995382010936737,-0.8643277287483215
1772527326654490600,6.12349072265625,-0.3835882842540741,0.12322462350130081,-1.2203342914581299
1772527326664472800,6.133472900390625,-0.26079559326171875,0.13360953330993652,-1.4429757595062256
1772527326674455000,6.143455078125,-0.10307413339614868,0.22368189692497253,-1.5475733280181885
1772527326684436000,6.15343603515625,0.06898859143257141,0.32797473669052124,-1.590530276298523
1772527326694417700,6.163417724609375,0.21824651956558228,0.42170602083206177,-1.6205291748046875
1772527326704400000,6.17339990234375,0.3201797306537628,0.5209288001060486,-1.6372814178466797
1772527326714381600,6.183381591796875,0.34020909667015076,0.5931859612464905,-1.6490752696990967
1772527326724363800,6.19336376953125,0.3231945037841797,0.5883948802947998,-1.6374236345291138
1772527326734346000,6.203345947265625,0.3281351923942566,0.44013938307762146,-1.568209171295166
1772527326744327700,6.21332763671875,0.4415406882762909,0.21299216151237488,-1.4390838146209717
1772527326754310000,6.223309814453125,0.649138867855072,0.1641247421503067,-1.296266794204712
1772527326764291800,6.233291748046875,0.7648746371269226,0.36097538471221924,-1.2780295610427856
1772527326774273000,6.24327294921875,0.7128391265869141,0.5098059177398682,-1.466589331626892
1772527326784254700,6.253254638671875,0.5096505880355835,0.46362584829330444,-1.8230568170547485
1772527326794237000,6.26323681640625,0.3368593752384186,0.33967381715774536,-2.1253364086151123
1772527326804219000,6.273218994140625,0.2899535298347473,0.19162492454051971,-2.0887889862060547
1772527326814200800,6.283200927734375,0.41084080934524536,-0.10727628320455551,-1.4496486186981201
1772527326824182800,6.293182861328125,1.116962194442749,-0.41993004083633423,0.0905003547668457
1772527326834164700,6.303164794921875,1.9686274528503418,-0.456341028213501,2.334977149963379
1772527326844146700,6.313146728515625,1.7068208456039429,-0.673062264919281,3.795884370803833
1772527326854129000,6.32312890625,0.7459565997123718,-1.1185665130615234,3.9897496700286865
1772527326864110600,6.333110595703125,-0.09308313578367233,-1.8619357347488403,3.3629250526428223
1772527326874091800,6.343091796875,-0.6202433705329895,-2.2453207969665527,2.3098864555358887
1772527326884073700,6.35307373046875,-0.8411866426467896,-2.156989336013794,1.1098213195800781
1772527326894056000,6.363055908203125,-0.8918623328208923,-1.6960285902023315,0.14146772027015686
1772527326904037600,6.37303759765625,-0.803244411945343,-1.127003788948059,-0.474875271320343
1772527326914019800,6.383019775390625,-0.6045414209365845,-0.7585669755935669,-0.7574960589408875
1772527326924001800,6.393001708984375,-0.32556653022766113,-0.7181529402732849,-0.7641379833221436
1772527326933983700,6.402983642578125,-0.009374222718179226,-1.0035276412963867,-0.61505126953125
1772527326943966000,6.412966064453125,0.22901320457458496,-1.429093837738037,-0.39057332277297974
1772527326953948000,6.422947998046875,0.390581876039505,-1.7877252101898193,-0.14509005844593048
1772527326963928600,6.432928466796875,0.5007599592208862,-1.9651051759719849,0.05012953281402588
1772527326973910800,6.442910888671875,0.5408453345298767,-1.9014705419540405,0.13035859167575836
1772527326983893000,6.45289306640625,0.5419603586196899,-1.5370393991470337,0.06715571135282516
1772527326993874700,6.462874755859375,0.5427523851394653,-0.9228008389472961,-0.11847194284200668
1772527327003857000,6.47285693359375,0.5353342294692993,-0.1790260523557663,-0.3424220085144043
1772527327013838800,6.4828388671875,0.5313184261322021,0.5477569699287415,-0.49437639117240906
1772527327023820800,6.49282080078125,0.5420252084732056,1.1119569540023804,-0.5595445036888123
1772527327033802800,6.502802734375,0.6142812967300415,1.4460302591323853,-0.5528082847595215
1772527327043785000,6.512784912109375,0.7227646708488464,1.5659362077713013,-0.45821526646614075
1772527327053766700,6.5227666015625,0.7958700060844421,1.5175734758377075,-0.3111504316329956
1772527327063747800,6.532747802734375,0.8118157386779785,1.3413084745407104,-0.1350497603416443
1772527327073729800,6.542729736328125,0.7965616583824158,1.1601594686508179,0.045902714133262634
1772527327083711700,6.552711669921875,0.7631977200508118,1.0004656314849854,0.20858074724674225
1772527327093693700,6.562693603515625,0.7246633768081665,0.8690107464790344,0.3126506805419922
1772527327103676700,6.5726767578125,0.6831865906715393,0.7282522320747375,0.31163355708122253
1772527327113658600,6.58265869140625,0.6162261962890625,0.569144070148468,0.1934421807527542
1772527327123640800,6.592640869140625,0.5208941698074341,0.40842464566230774,-0.04468206316232681
1772527327133622800,6.602622802734375,0.4097341001033783,0.2751411497592926,-0.37649860978126526
1772527327143604700,6.612604736328125,0.2751971483230591,0.173770472407341,-0.7341042757034302
1772527327153587000,6.6225869140625,0.17392274737358093,0.15795236825942993,-1.0018517971038818
1772527327163567900,6.63256787109375,0.180691659450531,0.2584942579269409,-1.0953025817871094
1772527327173549600,6.642549560546875,0.303560346364975,0.5082374811172485,-1.0216039419174194
1772527327183531800,6.65253173828125,0.4914272427558899,0.8206921815872192,-0.7982228398323059
1772527327193514000,6.662513916015625,0.6934799551963806,1.1300902366638184,-0.43927982449531555
1772527327203495700,6.67249560546875,0.7932969331741333,1.3412144184112549,-0.08061130344867706
1772527327213478000,6.682477783203125,0.7260750532150269,1.3750625848770142,0.14507907629013062
1772527327223459800,6.6924599609375,0.5712786316871643,1.286847472190857,0.2238243818283081
1772527327233441800,6.70244189453125,0.3761298954486847,1.0913141965866089,0.1357155740261078
1772527327243423700,6.712423828125,0.1651914268732071,0.7350851893424988,-0.06402431428432465
1772527327253405700,6.72240576171875,0.046879690140485764,0.29061558842658997,-0.2027806043624878
1772527327263386600,6.73238671875,0.12317370623350143,0.04145461693406105,-0.1595471352338791
1772527327273368800,6.742368896484375,0.37620916962623596,0.05555339157581329,0.10241124033927917
1772527327283350800,6.752350830078125,0.5490001440048218,-0.21418142318725586,0.4293358325958252
1772527327293332700,6.762332763671875,0.4871103763580322,-0.9861231446266174,0.6657726168632507
1772527327303314700,6.772314697265625,0.30811676383018494,-1.8920984268188477,0.7981955409049988
1772527327313297000,6.782296875,0.31709399819374084,-2.3376481533050537,0.9881950616836548
1772527327323278600,6.792278564453125,0.6469440460205078,-1.8849550485610962,1.1083526611328125
1772527327333260800,6.8022607421875,1.1430275440216064,-0.8362512588500977,0.9551966190338135
1772527327343243000,6.812242919921875,1.37289297580719,0.13030852377414703,0.41872498393058777
1772527327353224700,6.822224609375,1.0751856565475464,0.673185408115387,-0.3641633987426758
1772527327363205600,6.83220556640625,0.5778809189796448,0.8170233368873596,-1.0234715938568115
1772527327373187800,6.842187744140625,0.307467520236969,0.7322458624839783,-1.3508071899414062
1772527327383169500,6.85216943359375,0.3034651577472687,0.5740204453468323,-1.327850580215454
1772527327393151700,6.86215185546875,0.4687025845050812,0.4183243215084076,-1.0319371223449707
1772527327403134000,6.872134033203125,0.6896784901618958,0.25012290477752686,-0.6038399934768677
1772527327413115600,6.88211572265625,0.8787674307823181,-0.019600192084908485,-0.15210981667041779
1772527327423097900,6.892097900390625,0.9794937968254089,-0.24139507114887238,0.2622245252132416
1772527327433079800,6.902079833984375,0.9879639744758606,-0.33712825179100037,0.5701826214790344
1772527327443061800,6.912061767578125,0.8668895363807678,-0.2840803563594818,0.7169312834739685
1772527327453042700,6.922042724609375,0.5820748209953308,-0.13009053468704224,0.6278315186500549
1772527327463025000,6.93202490234375,0.17295464873313904,-0.011839373037219048,0.3508790135383606
1772527327473006800,6.9420068359375,-0.227189302444458,-0.040585532784461975,0.08032210916280746
1772527327482988800,6.95198876953125,-0.40946727991104126,-0.035641804337501526,0.042429082095623016
1772527327492970800,6.961970703125,-0.3646728992462158,0.0326048918068409,0.2202291637659073
1772527327502952700,6.97195263671875,-0.2132159173488617,0.07630898803472519,0.46184736490249634
1772527327512934700,6.9819345703125,-0.05729050561785698,0.042155805975198746,0.700080156326294
1772527327522916900,6.991916748046875,0.0579969696700573,-0.09591470658779144,0.8849343061447144
1772527327532898600,7.001898681640625,0.1357136070728302,-0.23788437247276306,1.0165187120437622
1772527327542880800,7.011880859375,0.18309113383293152,-0.30108797550201416,1.1341047286987305
1772527327552861700,7.02186181640625,0.2542675733566284,-0.2981331944465637,1.288673758506775
1772527327562844000,7.031843994140625,0.29718226194381714,-0.1482466459274292,1.467193365097046
1772527327572825600,7.04182568359375,0.254867821931839,0.05205635353922844,1.614485263824463
1772527327582807800,7.051807861328125,0.12195196747779846,0.14404480159282684,1.6875722408294678
1772527327592789800,7.061789794921875,-0.06716176867485046,0.09644373506307602,1.6395245790481567
1772527327602771700,7.071771728515625,-0.2629653513431549,-0.01442309096455574,1.466458797454834
1772527327612754000,7.08175390625,-0.4143436849117279,-0.08643895387649536,1.1908743381500244
1772527327622735600,7.091735595703125,-0.5059604048728943,-0.10915403813123703,0.861785888671875
1772527327632717800,7.1017177734375,-0.6111224889755249,-0.05591399222612381,0.4971938133239746
1772527327642699800,7.11169970703125,-0.7729473114013672,-0.09479335695505142,0.030050843954086304
1772527327652681000,7.121680908203125,-0.9106727242469788,-0.33246102929115295,-0.48277541995048523
1772527327662662700,7.13166259765625,-1.041076898574829,-0.5154459476470947,-0.8617516160011292
1772527327672644900,7.141644775390625,-1.177369475364685,-0.5481293201446533,-1.1329327821731567
1772527327682626800,7.151626708984375,-1.2999050617218018,-0.4277254045009613,-1.387558102607727
1772527327692608800,7.16160888671875,-1.4494301080703735,-0.24780039489269257,-1.701399326324463
1772527327702590700,7.1715908203125,-1.6100540161132812,-0.12035279721021652,-2.0321433544158936
1772527327712573000,7.181572998046875,-1.703533411026001,-0.18256957828998566,-2.2310070991516113
1772527327722554600,7.1915546875,-1.7329554557800293,-0.6944326758384705,-2.2251131534576416
1772527327732536800,7.201536865234375,-1.7184921503067017,-1.5099666118621826,-2.043945789337158
1772527327742518800,7.211518798828125,-1.6239374876022339,-2.213376522064209,-1.6945664882659912
1772527327752500700,7.221500732421875,-1.4961347579956055,-2.647284984588623,-1.3299189805984497
1772527327762481700,7.231481689453125,-1.3079801797866821,-2.737502098083496,-1.0586729049682617
1772527327772463900,7.2414638671875,-1.0394374132156372,-2.2038276195526123,-0.568575382232666
1772527327782445600,7.251445556640625,-0.6519570350646973,-1.3100467920303345,0.3866034150123596
1772527327792427800,7.261427734375,-0.201085165143013,-0.32690244913101196,1.946076512336731
1772527327802409700,7.27140966796875,-0.07377700507640839,0.6455177068710327,3.804641008377075
1772527327812391700,7.2813916015625,-0.22384904325008392,0.8087135553359985,4.824267387390137
1772527327822374000,7.291373779296875,-0.46784186363220215,0.0708494633436203,4.7215962409973145
1772527327832355800,7.30135595703125,-0.8226348161697388,-0.888261079788208,3.884415626525879
1772527327842337800,7.311337890625,-0.9789572954177856,-1.5153213739395142,2.6784608364105225
1772527327852319700,7.32131982421875,-0.8121328949928284,-1.6889702081680298,1.497246265411377
1772527327862301000,7.331301025390625,-0.44950801134109497,-1.4984421730041504,0.6657553911209106
1772527327872282600,7.34128271484375,-0.0771847814321518,-1.232627034187317,0.2540764808654785
1772527327882264800,7.351264892578125,0.2267087697982788,-1.0777692794799805,0.2081679105758667
1772527327892246800,7.361246826171875,0.49688538908958435,-0.838928759098053,0.34280452132225037
1772527327902228700,7.371228759765625,0.7567009329795837,-0.18723011016845703,0.4232208728790283
1772527327912210700,7.381210693359375,0.9806147217750549,0.681210994720459,0.3118613064289093
1772527327922193000,7.39119287109375,1.0664727687835693,1.453151822090149,0.035649850964546204
1772527327932174600,7.401174560546875,0.95548415184021,2.1104819774627686,-0.36648985743522644
1772527327942156800,7.41115673828125,0.7231314182281494,2.6367480754852295,-0.8244767189025879
1772527327952138800,7.421138671875,0.43873196840286255,2.99224853515625,-1.2622021436691284
1772527327962120000,7.431119873046875,0.09491457045078278,3.2610409259796143,-1.6286450624465942
1772527327972101600,7.4411015625,-0.28951406478881836,3.4255616664886475,-1.8860019445419312
1772527327982083800,7.451083740234375,-0.628242552280426,3.361346483230591,-2.0255093574523926
1772527327992065800,7.461065673828125,-0.8892517685890198,3.0603139400482178,-2.0212786197662354
1772527328002047700,7.4710478515625,-1.063591718673706,2.543276309967041,-1.839318037033081
1772527328012030000,7.481030029296875,-1.1519408226013184,1.8750072717666626,-1.4784988164901733
1772527328022011600,7.49101171875,-1.178276538848877,1.1596686840057373,-0.9678285717964172
1772527328031993900,7.500993896484375,-1.1351888179779053,0.4861322343349457,-0.3870391547679901
1772527328041975800,7.510975830078125,-1.009033203125,-0.15905800461769104,0.1551462560892105
1772527328051957800,7.520957763671875,-0.8284974694252014,-0.7124407887458801,0.5889813303947449
1772527328061938700,7.530938720703125,-0.6466521620750427,-1.138059139251709,0.8558416366577148
1772527328071921000,7.5409208984375,-0.4957614243030548,-1.4942691326141357,0.9308916330337524
1772527328081902800,7.55090283203125,-0.40188172459602356,-1.6644750833511353,0.8255728483200073
1772527328091884800,7.560884765625,-0.3551786541938782,-1.6122270822525024,0.5794437527656555
1772527328101866200,7.5708662109375,-0.33159804344177246,-1.3956495523452759,0.23702095448970795
1772527328111848400,7.580848388671875,-0.33535122871398926,-1.0454750061035156,-0.14523665606975555
1772527328121830100,7.590830078125,-0.37297627329826355,-0.6525036692619324,-0.5201643705368042
1772527328131812400,7.600812255859375,-0.4512668251991272,-0.369019478559494,-0.8341635465621948
1772527328141794300,7.610794189453125,-0.5334820747375488,-0.2498110830783844,-1.0093930959701538
1772527328151776300,7.6207763671875,-0.5562835335731506,-0.27875804901123047,-1.0207016468048096
1772527328161757200,7.630757080078125,-0.5247399806976318,-0.38967710733413696,-0.9213415384292603
1772527328171739400,7.640739501953125,-0.5028533339500427,-0.5231480598449707,-0.7469593286514282
1772527328181721000,7.65072119140625,-0.4755193591117859,-0.5811567306518555,-0.49249836802482605
1772527328191703300,7.660703369140625,-0.43518924713134766,-0.5698025822639465,-0.18649260699748993
1772527328201685200,7.670685302734375,-0.39803120493888855,-0.5887756943702698,0.10390131175518036
1772527328211667200,7.680667236328125,-0.31614112854003906,-0.7149338722229004,0.30968934297561646
1772527328221649400,7.6906494140625,-0.30358874797821045,-1.0275837182998657,0.3512135446071625
1772527328231631400,7.70063134765625,-0.3794744610786438,-1.3834705352783203,0.2786919176578522
1772527328241613300,7.71061328125,-0.5023524761199951,-1.615439772605896,0.14206784963607788
1772527328251595300,7.72059521484375,-0.5739547610282898,-1.7833951711654663,-0.05292109027504921
1772527328261577500,7.730577392578125,-0.4864538013935089,-1.7718164920806885,-0.1643471121788025
1772527328271558400,7.740558349609375,-0.23166890442371368,-1.6181766986846924,-0.14741340279579163
1772527328281540400,7.750540283203125,0.05637415498495102,-1.311155080795288,-0.08417780697345734
1772527328291522300,7.760522216796875,0.24247877299785614,-0.7236814498901367,-0.04369828850030899
1772527328301504300,7.770504150390625,0.3182269334793091,-0.054987434297800064,-0.10496815294027328
1772527328311486200,7.780486328125,0.3326396942138672,0.333452969789505,-0.31351763010025024
1772527328321468400,7.790468505859375,0.35377752780914307,0.4486379325389862,-0.5849840641021729
1772527328331450000,7.8004501953125,0.3743254244327545,0.47550734877586365,-0.8394861221313477
1772527328341432300,7.810432373046875,0.32638683915138245,0.40607595443725586,-1.0754183530807495
1772527328351414300,7.820414306640625,0.26646891236305237,0.2946905791759491,-1.285780906677246
1772527328361396200,7.830396240234375,0.318196564912796,0.24819129705429077,-1.4373716115951538
1772527328371377200,7.840377197265625,0.5197733640670776,0.3251987397670746,-1.5091475248336792
1772527328381359400,7.850359375,0.7930910587310791,0.5268226861953735,-1.4743108749389648
1772527328391341300,7.86034130859375,1.0350877046585083,0.7676989436149597,-1.294837236404419
1772527328401323300,7.8703232421875,1.1773433685302734,1.013392448425293,-0.9642601013183594
1772527328411305500,7.880305419921875,1.215936303138733,1.1604620218276978,-0.5542733669281006
1772527328421287400,7.890287353515625,1.1468600034713745,1.1025394201278687,-0.14254409074783325
1772527328431269400,7.900269287109375,0.9497207999229431,0.8447466492652893,0.19673943519592285
1772527328441251300,7.910251220703125,0.6289469003677368,0.5097533464431763,0.42161795496940613
1772527328451233300,7.9202333984375,0.27195286750793457,0.1748371571302414,0.5298738479614258
1772527328461215200,7.93021533203125,-0.011887714266777039,-0.07404960691928864,0.5683168768882751
1772527328471197400,7.940197509765625,-0.18412207067012787,-0.17985087633132935,0.6153373718261719
1772527328481178400,7.950178466796875,-0.26584869623184204,-0.1972866803407669,0.6888610124588013
1772527328491160300,7.960160400390625,-0.26090189814567566,-0.20022813975811005,0.7851734161376953
1772527328501142300,7.970142333984375,-0.16614800691604614,-0.17535613477230072,0.9143887162208557
1772527328511124500,7.98012451171875,-0.018526064231991768,-0.07270567119121552,1.0585105419158936
1772527328521106200,7.990106201171875,0.1281462013721466,0.11414957791566849,1.18910551071167
1772527328531088400,8.00008837890625,0.24309489130973816,0.3637479543685913,1.2825380563735962
1772527328541070300,8.0100703125,0.31329846382141113,0.5986658930778503,1.3312534093856812
1772527328551052300,8.02005224609375,0.32667073607444763,0.7532432675361633,1.3281885385513306
1772527328561034200,8.0300341796875,0.3002749979496002,0.7762970924377441,1.2748277187347412
1772527328571016200,8.04001611328125,0.2658829391002655,0.6253392696380615,1.189662218093872
1772527328580997000,8.0499970703125,0.23488523066043854,0.3279142677783966,1.108929991722107
1772527328590979300,8.059979248046876,0.21255382895469666,0.04229183495044708,1.0477888584136963
1772527328600961300,8.069961181640625,0.2094387710094452,-0.11778806895017624,0.9878460764884949
1772527328610943200,8.079943115234375,0.2180493026971817,-0.14993536472320557,0.9183399677276611
1772527328620925400,8.089925537109375,0.22381813824176788,-0.07516545057296753,0.8205956816673279
1772527328630907400,8.099907470703124,0.2141745686531067,0.0650065690279007,0.6851035952568054
1772527328640889300,8.109889404296876,0.19272315502166748,0.20713426172733307,0.5114893913269043
1772527328650871300,8.119871337890626,0.15289504826068878,0.2502354085445404,0.29270485043525696
1772527328660853500,8.129853515625,0.1139884889125824,0.15303319692611694,0.06773926317691803
1772527328670835200,8.139835205078125,0.09820100665092468,-0.008866485208272934,-0.10554783046245575
1772527328680817400,8.1498173828125,0.1036791279911995,-0.11392437666654587,-0.18897050619125366
1772527328690798300,8.15979833984375,0.11435733735561371,-0.1221570149064064,-0.1964167058467865
1772527328700780300,8.1697802734375,0.10898960381746292,-0.07165741175413132,-0.1750876009464264
1772527328710762200,8.17976220703125,0.1069573387503624,0.021189171820878983,-0.1592945158481598
1772527328720744400,8.189744384765625,0.1274254471063614,0.1092282384634018,-0.15584637224674225
1772527328730726100,8.19972607421875,0.17941540479660034,0.10323932021856308,-0.15700004994869232
1772527328740708400,8.209708251953124,0.26558852195739746,-0.012758797965943813,-0.11403440684080124
1772527328750690300,8.219690185546876,0.3983052968978882,-0.16034266352653503,0.03794846311211586
1772527328760672300,8.22967236328125,0.5474844574928284,-0.3428274989128113,0.29764556884765625
1772527328770654200,8.239654296875,0.6754842400550842,-0.5976584553718567,0.5869839191436768
1772527328780636400,8.249636474609375,0.7037497758865356,-0.8289981484413147,0.7980946898460388
1772527328790617300,8.259617431640624,0.6054530143737793,-0.9672138094902039,0.8480576872825623
1772527328800599300,8.269599365234376,0.44897276163101196,-1.0101820230484009,0.7487072944641113
1772527328810581200,8.279581298828125,0.3045727014541626,-0.9623210430145264,0.5389982461929321
1772527328820563200,8.289563232421875,0.197757288813591,-0.7808269262313843,0.2871955931186676
1772527328830545400,8.29954541015625,0.11484003067016602,-0.5145374536514282,0.01556459628045559
1772527328840527400,8.30952734375,0.06267749518156052,-0.20075760781764984,-0.25224632024765015
1772527328850509300,8.31950927734375,0.021089304238557816,0.058150388300418854,-0.500036358833313
1772527328860491300,8.3294912109375,0.016939930617809296,0.2361762374639511,-0.7328563928604126
1772527328870473500,8.339473388671875,0.07636038213968277,0.433379590511322,-0.9230442047119141
1772527328880455200,8.349455078125,0.13463382422924042,0.6217234134674072,-1.055214285850525
1772527328890437400,8.359437255859374,0.16629375517368317,0.8124962449073792,-1.0764988660812378
1772527328900418300,8.369418212890626,0.16516780853271484,0.9499794244766235,-0.9943837523460388
1772527328910400500,8.379400390625,0.1144724041223526,0.932316243648529,-0.8338062763214111
1772527328920382200,8.38938232421875,0.010911962017416954,0.7825465798377991,-0.49422958493232727
1772527328930364400,8.399364501953125,-0.12058188766241074,0.19767166674137115,-0.14501270651817322
1772527328940346400,8.409346435546874,-0.24585667252540588,-0.19857287406921387,0.20979219675064087
1772527328950328300,8.419328369140626,-0.3433845639228821,-0.3444208800792694,0.5211189389228821
1772527328960310300,8.429310302734375,-0.4804629683494568,-0.4390973746776581,0.7365779280662537
1772527328970292200,8.439292236328125,-0.6313707232475281,-0.522887647151947,0.8321712613105774
1772527328980274200,8.449274169921875,-0.7261661291122437,-0.5387054681777954,0.9016879796981812
1772527328990256400,8.45925634765625,-0.7936261296272278,-0.4486858546733856,1.0634491443634033
1772527329000237300,8.4692373046875,-0.808247447013855,-0.25591424107551575,1.195332407951355
1772527329010219300,8.47921923828125,-0.8120749592781067,-0.06082039326429367,1.216574788093567
1772527329020201200,8.489201171875,-0.8181847929954529,-0.08277582377195358,1.107832908630371
