time,seconds_elapsed,z,y,x
1772526330732461600,0.083461669921875,-0.08742226286530494,0.0759076200298965,-0.1743436635363847
1772526330742443800,0.09344384765625,0.016149170768260956,0.018644494715332985,-0.17300386629998682
1772526330752425700,0.10342578125,0.1216489421159029,-0.019757132132351397,-0.13924093210361896
1772526330762408700,0.11340869140625,0.250142051038146,-0.012201602186262607,-0.12833294992446898
1772526330772391000,0.123390869140625,0.3129974434018135,-0.021002456018328664,-0.15219496009238062
1772526330782373600,0.13337353515625,0.3074456544935703,-0.05898702649772167,-0.2090526464112103
1772526330792355800,0.14335595703125,0.24129589675962923,-0.11585165401399135,-0.26050226314142344
1772526330802337800,0.153337890625,0.14103051893413066,-0.16230390084832905,-0.30819596140421923
1772526330812320800,0.16332080078125,0.09364625194668769,-0.16839374215602873,-0.3557851033139974
1772526330822302700,0.173302734375,0.07969429896175861,-0.15612404316961764,-0.35855486028827727
1772526330832284700,0.18328466796875,0.10359656807482243,-0.14953531242907048,-0.32177813122868537
1772526330842267600,0.193267578125,0.1312082130998373,-0.15982231316566467,-0.2834470853991806
1772526330852249900,0.203249755859375,0.15676877081394194,-0.15713877317011354,-0.27456059911027547
1772526330862232600,0.213232666015625,0.17585341051220893,-0.14507365684509277,-0.23248664042539893
1772526330872214800,0.22321484375,0.14860007740557193,-0.11881079608052968,-0.18727328773625193
1772526330882197800,0.23319775390625,0.0842564923107624,-0.09297025238126516,-0.19533282168172297
1772526330892179700,0.2431796875,0.022212416329979896,-0.06540741493403911,-0.20109905705824493
1772526330902162000,0.253161865234375,-0.03916062852144241,-0.05764350293427705,-0.2220462757579982
1772526330912144600,0.26314453125,-0.015652911683917043,-0.04923369424641132,-0.22300839878842232
1772526330922126800,0.273126953125,0.04819558337032795,-0.04395283123403787,-0.19621376923471687
1772526330932108800,0.28310888671875,0.13294775024354458,-0.026208792489767072,-0.12790646814070641
1772526330942091800,0.293091796875,0.14900047490000723,-0.004393851044774055,-0.046549715859442946
1772526330952073700,0.30307373046875,0.057035307908058164,0.01134089370369911,-0.007262684479355811
1772526330962057000,0.313056884765625,-0.0994844565808773,0.04496171601563692,-0.009646803136914968
1772526330972038700,0.32303857421875,-0.24496552518308162,0.0743050071388483,0.00023395488634705543
1772526330982020900,0.333020751953125,-0.30682606129050255,0.10589125488325953,0.02965023818053305
1772526330992003600,0.343003662109375,-0.3140641958504915,0.13090879176184533,0.08975085194334387
1772526331001985800,0.35298583984375,-0.3004541881710291,0.1524884631462395,0.15150931591577826
1772526331011968800,0.36296875,-0.25136428630948066,0.16386618172898887,0.22856785954646766
1772526331021950700,0.37295068359375,-0.19918577078282831,0.1650761420406401,0.27933343953527506
1772526331031933000,0.382932861328125,-0.17700258054733276,0.14179200482591986,0.2749495253626257
1772526331041915600,0.39291552734375,-0.16756372107267378,0.12089154787734151,0.23978519993573424
1772526331051897900,0.40289794921875,-0.1180015255242586,0.08948547900542617,0.21096417912095783
1772526331061880800,0.412880859375,-0.015733575704693793,0.0558507742986083,0.19160269524268805
1772526331071862800,0.42286279296875,0.07470423558950423,0.007696984243392944,0.19890359284058212
1772526331081844700,0.4328447265625,0.15041618691682815,-0.016066753181815146,0.22579174589663742
1772526331091828000,0.442827880859375,0.18182020996212958,-0.022664982403069734,0.24292656670138238
1772526331101809700,0.4528095703125,0.15606149932742117,-0.022788608782738445,0.2157813701443374
1772526331111793000,0.46279296875,0.11562544404268264,-0.034564094511419535,0.157232150541991
1772526331121774600,0.472774658203125,0.05886719951033592,-0.0345415904186666,0.08167685108110308
1772526331131756800,0.4827568359375,0.007478957578539848,-0.06983166111707687,0.037163024963438505
1772526331141739800,0.49273974609375,0.002878770306706428,-0.0804712746836245,0.05402538550235331
1772526331151721700,0.5027216796875,0.012401800933480263,-0.05365896334275603,0.09340513666719198
1772526331161704700,0.51270458984375,0.024630583387613297,-0.007849544456601142,0.11774572413228451
1772526331171687000,0.52268701171875,0.007596446478366851,0.033247020563483234,0.10463022197149693
1772526331181668900,0.5326689453125,-0.047339843323826784,0.03891556771919131,0.047759603105857966
1772526331191651800,0.54265185546875,-0.0931622678220272,0.04214855829104781,0.018176584942638872
1772526331201633800,0.5526337890625,-0.10908347505331038,0.0271378900334239,0.002814034507423639
1772526331211615700,0.56261572265625,-0.12168284438550471,0.029280455020070074,0.026245325107872485
1772526331221599000,0.572598876953125,-0.11152736107409,0.08247954576611519,0.06431092493422329
1772526331231580700,0.58258056640625,-0.13736147503256796,0.1411225811317563,0.09086590051315724
1772526331241564000,0.59256396484375,-0.1985322753101587,0.1784375817865133,0.1089282844915986
1772526331251545600,0.602545654296875,-0.27334464744925496,0.2096460822597146,0.09498268818221986
1772526331261527800,0.61252783203125,-0.29742753382623194,0.22307985658943652,0.061425505691021676
1772526331271510800,0.6225107421875,-0.2657406021863222,0.19680618216991425,0.06885207549519837
1772526331281492700,0.63249267578125,-0.20900924566090107,0.15212503666132687,0.09336706967912614
1772526331291475700,0.642475830078125,-0.1604962669044733,0.13156038753837346,0.09202800309509038
1772526331301458000,0.6524580078125,-0.1019417866051197,0.15409341412484645,0.09474515309929847
1772526331311440000,0.66243994140625,-0.04525426922142505,0.16763357143849134,0.09492869297266006
1772526331321422800,0.6724228515625,0.0032458500534296034,0.12468261072337626,0.021696064305678008
1772526331331404800,0.68240478515625,0.03907002762854099,0.020607903742790222,0.008941796672716737
1772526331341387800,0.6923876953125,0.10968027190268038,-0.0723944973424077,0.0014545096572488546
1772526331351370000,0.702369873046875,0.2090554228901863,-0.11150661054700613,-0.04229052404500544
1772526331361351700,0.7123515625,0.2834235583931207,-0.13525427362024783,-0.06846607185229658
1772526331371335000,0.7223349609375,0.33234570247232914,-0.15981734472960232,-0.07102079783640801
1772526331381316600,0.732316650390625,0.3856517607241869,-0.14140110581219195,-0.0957215238507837
1772526331391299800,0.7422998046875,0.4346013773322105,-0.1641296549707651,-0.08758921693004668
1772526331401281800,0.75228173828125,0.4562649276077747,-0.1858607175245881,-0.07145122514292597
1772526331411263700,0.762263671875,0.4514566505432129,-0.19136632920354604,-0.07584514925293624
1772526331421246700,0.772246826171875,0.360406844830513,-0.18045505908876655,-0.09495616550147533
1772526331431229000,0.78222900390625,0.23734803591668605,-0.17107406728118657,-0.1258857029028237
1772526331441211600,0.792211669921875,0.15438158341646194,-0.1491939516454935,-0.14170074634589255
1772526331451193900,0.80219384765625,0.08918693445026873,-0.11900690317451953,-0.13731281358525158
1772526331461175800,0.81217578125,-0.01570025795698166,-0.1067126542687416,-0.11867810961157083
1772526331471158800,0.82215869140625,-0.0874415520876646,-0.056282151453196996,-0.1448814222086221
1772526331481140700,0.832140625,-0.0968698901683092,-0.01428454594016075,-0.1586512235596776
1772526331491123700,0.842123779296875,-0.09887187764048576,0.004910860656201839,-0.1274798402264714
1772526331501105700,0.852105712890625,-0.05880757827758789,0.018084522745013237,-0.06920015828050673
1772526331511087600,0.862087646484375,-0.014852116695046423,0.06789484783560037,-0.0023172639664262532
1772526331521070600,0.872070556640625,0.007457914790511131,0.14409312137514352,0.006956760335341095
1772526331531052800,0.882052734375,0.026978607818484306,0.20348697510808705,-0.01590001831278205
1772526331541034800,0.89203466796875,0.056826633593440055,0.1972629860267043,-0.037549466997757554
1772526331551017700,0.902017822265625,0.08543898009359836,0.15543080020844935,-0.034966245571523905
1772526331561000000,0.912,0.1295733053743839,0.11472703389823435,-0.011167363767698406
1772526331570982700,0.921982666015625,0.17524550774693487,0.1122112516850233,-0.0010412526812404394
1772526331580964900,0.93196484375,0.21020693101286886,0.12525164278298614,0.011574702459573745
1772526331590946600,0.941946533203125,0.19839082101285457,0.1408390880152583,0.005688420899957418
1772526331600929800,0.9519296875,0.1925900257796049,0.16608020451664923,-0.003978109850734472
1772526331610911700,0.961911865234375,0.16070026504397392,0.17550503546595572,-0.030714287215471266
1772526331620894700,0.971894775390625,0.0483282698392868,0.1448822259262204,-0.07401311152018607
1772526331630876700,0.981876708984375,-0.025994272956252097,0.1216293606325984,-0.09181976717188954
1772526331640859000,0.99185888671875,-0.010811316871643066,0.10670008704811335,-0.07020685110501945
1772526331650841600,1.001841552734375,0.020815993535518645,0.0975362451225519,-0.010125964955985545
1772526331660823800,1.01182373046875,0.028001521125435826,0.07744564325213432,0.04330978409014642
1772526331670806800,1.021806884765625,0.054010991650819774,0.10138356820046901,0.035158261012285946
1772526331680789000,1.0317890625,0.08803250371813774,0.1158472700998187,0.011548033648356795
1772526331690771000,1.04177099609375,0.08902385284304619,0.07535130132138729,-0.006376695425063372
1772526331700754000,1.05175390625,0.08678045783042908,0.03585515723526478,-0.032489699390158056
1772526331710736100,1.061736083984375,0.12538579055666924,0.0009393266767263412,-0.04495470175296068
1772526331720718800,1.07171875,0.1791968757212162,-0.08237345504313708,-0.03441716032139957
1772526331730701000,1.081701171875,0.1356172617137432,-0.1203197393387556,-0.018303791518881916
1772526331740682800,1.091682861328125,0.08188917865753173,-0.12053864278644323,-0.060343847934156654
1772526331750666000,1.101666015625,0.04328033879995346,-0.10742109479904174,-0.10261296386495232
1772526331760648000,1.11164794921875,0.01258884793817997,-0.12029518941938877,-0.10537344155423342
1772526331770630000,1.1216298828125,0.003877718216180801,-0.15712240655720233,-0.08278371634446084
1772526331780612900,1.13161279296875,-0.016706220129132268,-0.15040011256486177,-0.06873539031296969
1772526331790595000,1.141594970703125,-0.050427287945151326,-0.12230360663235187,-0.07041844802908599
1772526331800577800,1.151577880859375,-0.10100479801595211,-0.10627689319998025,-0.06297682678624987
1772526331810560000,1.16156005859375,-0.18273323315382003,-0.07426701321601867,-0.05807341878414154
1772526331820542000,1.1715419921875,-0.2654991946458816,-0.04961187990903854,-0.06563179827444254
1772526331830525000,1.18152490234375,-0.30832243732810016,-0.045749651522934434,-0.052139790951460596
1772526331840507100,1.191507080078125,-0.3175491153568029,-0.06407850441783666,-0.005232055434584618
1772526331850489900,1.20148974609375,-0.3097802349209785,-0.04660363800376653,0.04678074813634157
1772526331860472000,1.21147216796875,-0.2500304073572159,-0.0076142743960022925,0.053671749759092925
1772526331870453800,1.221453857421875,-0.20292787992060182,0.01229249534010887,0.06932166576832532
1772526331880437000,1.23143701171875,-0.16202186903655527,0.01180412730127573,0.09833645558953284
1772526331890419000,1.2414189453125,-0.11494389151930809,0.01818798311948776,0.129182406360656
1772526331900402000,1.25140185546875,-0.06426701272726058,0.027567221361398695,0.11101831557340919
1772526331910383900,1.2613837890625,-0.049068859073519704,0.038514731833338735,0.07988536455444992
1772526331920366000,1.271365966796875,-0.03345101870298386,0.03134557085633278,0.06286693667098879
1772526331930348800,1.281348876953125,-0.012645546561479568,0.05264379495084286,0.06524974015429616
1772526331940331000,1.2913310546875,0.03633212709724903,0.05808364791721105,0.07001264370717108
1772526331950314000,1.30131396484375,0.11040507904589175,0.07533873410075903,0.09196874718852341
1772526331960296000,1.3112958984375,0.22093933742940425,0.0858516525477171,0.10957125857025385
1772526331970278100,1.321278076171875,0.27527941490411756,0.09803455003350972,0.10975954768396913
1772526331980260900,1.3312607421875,0.308884162864089,0.08880027322024106,0.09416706095039844
1772526331990243000,1.3412431640625,0.32775779016017914,0.08988602263033389,0.08334324992336332
1772526332000224800,1.351224853515625,0.3228787859469652,0.11064005684554576,0.050257703531906006
1772526332010208000,1.3612080078125,0.27202596606612206,0.09799480254501104,0.05695354790873825
1772526332020190000,1.37118994140625,0.25391280174851416,0.09304039500802755,0.06825579010248184
1772526332030173000,1.3811728515625,0.26507541627585884,0.1255564709484577,0.06498677836917341
1772526332040155000,1.39115478515625,0.2517716980665922,0.14160364264696837,0.06462276736237109
1772526332050137000,1.40113720703125,0.22899463359117506,0.10836685121655464,0.05020940741077065
1772526332060119800,1.411119873046875,0.25542437535524365,0.09572276595979928,0.040422172889858485
1772526332070102000,1.42110205078125,0.3174626061171293,0.12903203810453415,0.005829875197261572
1772526332080085000,1.4310849609375,0.3236924404174089,0.1118169916704297,0.022080095187202095
1772526332090067000,1.44106689453125,0.2811801633805036,0.0539686138138175,0.02766724766977131
1772526332100049000,1.451048828125,0.24009295071065426,0.03088409082442522,0.019126798339560627
1772526332110032000,1.461031982421875,0.2396148118048906,0.05724164413511753,-0.00081759999319911
1772526332120014000,1.47101416015625,0.17957623042762277,0.031983576498925685,0.020658830212429164
1772526332129997000,1.4809970703125,0.09156476949751377,0.011553075149655341,0.05800605263635516
1772526332139979000,1.49097900390625,0.06127250708639621,0.05116203196048736,0.05305296027362346
1772526332149961000,1.5009609375,0.04083469921350479,0.0821016523644328,0.0757267105050385
1772526332159944000,1.51094384765625,0.017325813332200048,0.06568915448486805,0.1339665718972683
1772526332169926000,1.52092578125,-0.007087327912449836,0.05378302811384201,0.15880239553339778
1772526332179908000,1.530908203125,-0.0005289923101663589,0.07457154912054538,0.12174977214187382
1772526332189890800,1.540890869140625,-0.011537293058633803,0.07023731930851936,0.10413432821333407
1772526332199873000,1.550873046875,-0.031997897285223,0.02307750872671604,0.10403408270925282
1772526332209856000,1.56085595703125,-0.011061492240428924,0.003198211519420147,0.08447627254128455
1772526332219838000,1.570837890625,0.007087327912449836,0.004626198495924472,0.07895202922709285
1772526332229820000,1.58081982421875,-0.010461188259720802,-0.024461072039604185,0.06404869380146265
1772526332239803000,1.590802978515625,-0.01279050799012184,-0.02285568266957998,0.06072079148776829
1772526332249784800,1.600784912109375,0.0007125321835279464,-0.0033048867642879484,0.05844897409826517
1772526332259768000,1.61076806640625,-0.02102057619690895,-0.024573592503368852,0.09920045200772583
1772526332269749800,1.620749755859375,-0.05033902513980865,-0.04503887290507555,0.11413966246433556
1772526332279732000,1.63073193359375,-0.03633738779425621,-0.04025456123799085,0.10041618447303771
1772526332289715000,1.64071484375,-0.00019289222359657285,-0.0390349563151598,0.06904964389391242
1772526332299697000,1.65069677734375,0.031599253356456754,-0.09458791671097277,0.06432488039433956
1772526332309679900,1.660679931640625,0.10610475150346756,-0.12777999221682548,0.04712174359373748
1772526332319661800,1.670661865234375,0.19957681592702864,-0.11043839679360389,0.00653634296618402
1772526332329644000,1.68064404296875,0.20668694019317627,-0.11645984904021024,0.0030221973653882742
1772526332339627000,1.690626953125,0.15196809253394603,-0.10985972012281417,0.015972572092339394
1772526332349609000,1.70060888671875,0.07166764437258243,-0.0540597992286086,-0.00010316811352968215
1772526332359592000,1.710592041015625,-0.04870996263325214,-0.007937515000998973,-0.01711633529998362
1772526332369574000,1.720573974609375,-0.1359913557231426,0.0271183085501194,-0.015166589471697807
1772526332379555800,1.730555908203125,-0.15535656592845914,0.062119479304552076,-0.03235810889974236
1772526332389539000,1.7405390625,-0.13301964643597602,0.03841916250437498,-0.008304594747722148
1772526332399520800,1.750520751953125,-0.11468962449729442,-0.00423632239550352,-0.017136282109469176
1772526332409503000,1.7605029296875,-0.05541209062039852,-0.013587503586709498,-0.03799713770002126
1772526332419486000,1.77048583984375,0.024672084441781043,-0.014334522561728954,-0.05122837519496679
1772526332429468000,1.780468017578125,0.06260813960433007,-0.03793897777199745,-0.013187544483691454
1772526332439451000,1.790450927734375,0.07286357615888119,-0.03351911550313234,0.008234744381904602
1772526332449432800,1.800432861328125,0.0645972675949335,-0.011869886013865471,-0.03646196402199566
1772526332459415000,1.8104150390625,0.023687165057659148,-0.01956014825552702,-0.057171501508355135
1772526332469398000,1.82039794921875,-0.01925415104627609,-0.02012947257608175,-0.07201821137592196
1772526332479380000,1.8303798828125,-0.05203472314178943,-0.017774433882534503,-0.08451850424781442
1772526332489363000,1.840363037109375,-0.07033434994220733,-0.01674275274723768,-0.07403861128762364
1772526332499345000,1.850344970703125,-0.05102233122885227,-0.008000058843195438,-0.0553545882795006
1772526332509326800,1.860326904296875,-0.01559913567006588,-0.007317045015096664,-0.03702347036227584
1772526332519310000,1.87031005859375,0.026304654079675673,-0.019402035084366796,-0.02398037585057318
1772526332529291800,1.880291748046875,0.02662204946577549,-0.0351809112355113,-0.03564027237556874
1772526332539275000,1.89027490234375,-0.00882218888103962,-0.07441723534166812,-0.05780066625736653
1772526332549257000,1.900257080078125,-0.061304071268439286,-0.1135182426303625,-0.11005758078247307
1772526332559239000,1.910239013671875,-0.11336743598282337,-0.12249123815894127,-0.1534085736658424
1772526332569222000,1.920221923828125,-0.1221323417186737,-0.13322218327075241,-0.1629644105836749
1772526332579203800,1.930203857421875,-0.09064765465259551,-0.12124649879485368,-0.14044219765216112
1772526332589186000,1.94018603515625,-0.063330024138093,-0.0978656232073903,-0.1294828506119549
1772526332599169000,1.9501689453125,-0.021758827343583104,-0.07846271134018898,-0.09285057152435183
1772526332609151000,1.96015087890625,0.013159341302514076,-0.07944295454919338,-0.09427687800042331
1772526332619134000,1.970134033203125,0.05422258857488632,-0.09407675231844186,-0.09515066516026854
1772526332629116200,1.9801162109375,0.052580082064867015,-0.14074731807857752,-0.1018546928435564
1772526332639097900,1.990097900390625,0.04985679458081722,-0.16845920860767363,-0.11829882797040045
1772526332649081000,2.0000810546875,0.05864508119225502,-0.15520049858391283,-0.12197269417755305
1772526332659062800,2.010062744140625,0.057497080200910565,-0.1306701607003808,-0.09601502690464257
1772526332669046000,2.0200458984375,0.07939034757912158,-0.1150412144139409,-0.05914119414612651
1772526332679028000,2.030028076171875,0.0889969648361206,-0.08636836989820003,-0.011119944429397583
1772526332689010200,2.04001025390625,0.10102993245720862,-0.07050532259494066,0.010220072980225085
1772526332698993200,2.0499931640625,0.10431903713047504,-0.06425941394269466,0.022813524028286337
1772526332708975000,2.05997509765625,0.10698913312256336,-0.06088380002975464,0.013458543444797397
1772526332718958000,2.0699580078125,0.11258768378198146,-0.055684185560047623,-0.001550078986212611
1772526332728940300,2.079940185546875,0.11731938847899437,-0.04003799587786198,-0.011281564731895923
1772526332738922200,2.089922119140625,0.14290858776569365,-0.009587035773694515,0.0053571431189775465
1772526332748905200,2.0999052734375,0.1482704070597887,0.026607436418533324,0.04198620733618736
1772526332758887200,2.10988720703125,0.11893442246019839,0.04346797032654285,0.1213937983110547
1772526332768869000,2.119869140625,0.03562193300127983,0.09077508042454718,0.18360840855315327
1772526332778852400,2.129852294921875,-0.027871172744035718,0.16572978364378213,0.18485380550436675
1772526332788834000,2.139833984375,-0.028462708896398542,0.23996727850437163,0.15193192524202168
1772526332798817300,2.1498173828125,0.029531799432635307,0.2829199927851558,0.12102774147763848
1772526332808799200,2.15979931640625,0.10516776291429995,0.24717735601365565,0.12146642515584825
1772526332818781200,2.16978125,0.1788262888431549,0.221788355474174,0.09253668326959014
1772526332828764200,2.17976416015625,0.24302198989987372,0.2202674295172095,0.04336597125679254
1772526332838746000,2.18974609375,0.2547948452800512,0.22460428967773913,-0.0037296149823814627
1772526332848729000,2.19972900390625,0.29119302335083486,0.2258569200873375,-0.003134352502971887
1772526332858711300,2.209711181640625,0.33363398871719835,0.22242139268070457,0.031212372930720447
1772526332868693000,2.21969287109375,0.3844049755334854,0.23896628476828335,0.04829845922291279
1772526332878676200,2.22967626953125,0.3989730145901441,0.23736411026865242,0.047222500554472205
1772526332888658200,2.239658203125,0.42670156399309633,0.2453238371014595,0.038046748995408414
1772526332898641200,2.24964111328125,0.4146791177660227,0.25280221015810966,0.015998583316430448
1772526332908623000,2.259623046875,0.3519961593598127,0.2316357957497239,-0.0027300094857811924
1772526332918605000,2.26960498046875,0.22952245685756206,0.2048591402441263,-0.04604768462143838
1772526332928588000,2.279588134765625,0.0919072993248701,0.1660840039089322,-0.10524579658657311
1772526332938570200,2.2895703125,-0.0373223071783781,0.12441022352278232,-0.1382939335770905
1772526332948552200,2.29955224609375,-0.1370458332121372,0.05999065058231354,-0.16113061928525566
1772526332958535200,2.30953515625,-0.1796791062802076,0.000436053329706192,-0.16607063297070562
1772526332968517400,2.319517333984375,-0.1416167943894863,-0.023404840984940528,-0.15387823700420558
1772526332978500000,2.3295,-0.08535247085392475,-0.06401859092414379,-0.13414806594401596
1772526332988482300,2.339482421875,-0.023126024043560026,-0.08979512947648763,-0.13620645977854728
1772526332998464000,2.349464111328125,0.0283773687005043,-0.12002192543596028,-0.13962949302978814
1772526333008447200,2.359447265625,0.03582710018455982,-0.16744038695394992,-0.13789251316934822
1772526333018429200,2.36942919921875,0.02490823128521442,-0.2058461054548621,-0.1538771410256624
1772526333028412200,2.379412109375,0.017383096477389334,-0.205935829564929,-0.16790113633349538
1772526333038394000,2.38939404296875,0.008991115707159042,-0.20296382801681756,-0.16632577677555382
1772526333048376000,2.3993759765625,0.02229366487264633,-0.19489771820008753,-0.15175832224078475
1772526333058359000,2.409359130859375,0.05297171173095703,-0.19915888277590274,-0.11005750771723687
1772526333068341200,2.41934130859375,0.08708382469117641,-0.1873991791382432,-0.06376132822744549
1772526333078323200,2.4293232421875,0.07626432451307773,-0.15971446887701748,-0.014529752872884273
1772526333088306200,2.43930615234375,0.017693477600812912,-0.1303521807923913,-0.0006108253747224808
1772526333098288400,2.449288330078125,-0.014448796591162681,-0.08484276776611804,-0.012450900772213934
1772526333108271000,2.45927099609375,-0.004752747485041618,-0.04344458945095539,-0.012493717000633477
1772526333118253300,2.46925341796875,0.012734978410601614,-0.02072305455505848,-0.007342690913006663
1772526333128235000,2.479235107421875,0.0210445415943861,-0.02157733329683542,-0.004285349169000983
1772526333138218200,2.48921826171875,0.014393851533532141,-0.01256663610637188,0.013584434846788644
1772526333148200200,2.4992001953125,-0.01097498300075531,0.011985036826133727,0.0120510147344321
1772526333158183200,2.50918310546875,-0.03823533037006855,0.04023556427657604,0.00005012275204062462
1772526333168165000,2.5191650390625,-0.03490647820830345,0.05775514661520719,-0.01310826870240271
1772526333178147000,2.52914697265625,-0.025123335340619085,0.07431026783585548,-0.016207769087702033
1772526333188130000,2.539130126953125,-0.002864157259464264,0.08331628885120153,-0.008005173409730195
1772526333198112300,2.5491123046875,-0.02605564775466919,0.07571428941488266,0.01571830507032573
1772526333208095000,2.559094970703125,-0.06406769076287747,0.0904281666830182,0.032875556902587415
1772526333218077200,2.5690771484375,-0.09665537063479424,0.13219634735435246,0.021441724218428132
1772526333228059400,2.579059326171875,-0.13302782974243163,0.1522670754805207,0.0049593029078096144
1772526333238042000,2.5890419921875,-0.12035539517402648,0.1582698230266571,-0.019611366986110806
1772526333248024300,2.5990244140625,-0.07167991933226585,0.16085574786663054,-0.03468107195459306
1772526333258006000,2.609006103515625,-0.01860065557360649,0.13249182316958905,-0.037944457664713264
1772526333267989200,2.6189892578125,0.03247428262531757,0.10299392600655555,-0.04459989696592092
1772526333277971200,2.62897119140625,0.09295242446362972,0.09214140034168958,-0.06864325505010783
1772526333287954200,2.6389541015625,0.15617898822724818,0.08570289172679185,-0.08568374863490462
1772526333297936100,2.64893603515625,0.1875228055179119,0.0763113785251975,-0.07689414684921503
1772526333307918000,2.65891796875,0.21278116541504857,0.04798223288059234,-0.05521152654699981
1772526333317901000,2.668901123046875,0.2307312481254339,0.038160511568188664,-0.04628996894471347
1772526333327883300,2.67888330078125,0.2626899824440479,0.057624213711917394,-0.06932743792198598
1772526333337866200,2.6888662109375,0.30075521694421764,0.02540244454294443,-0.11268288778476417
1772526333347848200,2.69884814453125,0.3381090883046388,0.011165244875848293,-0.1238903643671423
1772526333357830400,2.708830322265625,0.369446475854516,0.0031198855862021443,-0.08466609602496028
1772526333367813000,2.718813232421875,0.3520288925856352,0.008842939408123493,-0.045817309931665655
1772526333377795300,2.72879541015625,0.31215280927121636,0.030763679315149783,-0.040189094786345955
1772526333387778300,2.7387783203125,0.2597849086523056,0.05330108981579542,-0.028680881691724062
1772526333397760300,2.74876025390625,0.19635142413973808,0.04870061028301716,-0.02181516064070165
1772526333407742200,2.7587421875,0.15506079785227775,0.014460779289901256,-0.013902268624305724
1772526333417725200,2.76872509765625,0.11754326036274433,-0.024586159723997116,-0.014193652786314487
1772526333427707100,2.77870703125,0.08193769397437572,-0.037765374770760536,-0.03164674575999379
1772526333437689300,2.788689453125,0.028009119910001753,-0.042160979381203646,-0.05636347306109964
1772526333447672000,2.798672119140625,-0.04609013552367687,-0.043456864410638806,-0.053901978318393225
1772526333457654300,2.808654296875,-0.1444622469484806,-0.012912380804121493,-0.04100026503875851
1772526333467637200,2.81863720703125,-0.20954992840886114,0.019140753799676894,-0.032652196475490926
1772526333477619200,2.828619140625,-0.26033552827239037,0.03183715376555919,-0.0302433087028563
1772526333487601400,2.838601318359375,-0.28257483260929583,0.023953999300301072,-0.014793445310369134
1772526333497584000,2.848584228515625,-0.3002501900315285,0.007675941455364227,-0.0037099604338407515
1772526333507566300,2.85856640625,-0.3131926737129688,-0.006121990011632442,-0.021387802074104546
1772526333517549300,2.86854931640625,-0.3110235129803419,-0.003226560831069946,-0.03211845492497086
1772526333527531300,2.87853125,-0.24844576851427555,0.013853753307461738,-0.05547974902912974
1772526333537513200,2.88851318359375,-0.17424188366234303,0.017098726578056812,-0.06595839988030493
1772526333547496200,2.89849609375,-0.09964286201298236,-0.0033908114820718764,-0.034812077923119064
1772526333557478100,2.90847802734375,-0.0010486322700977325,-0.010563771851360797,-0.028326296100392934
1772526333567461400,2.91846142578125,0.0806751266926527,-0.006126081664860248,-0.05675115720443427
1772526333577443000,2.928443115234375,0.11403203737139701,-0.008303425703942775,-0.091506974895671
1772526333587425300,2.93842529296875,0.130994278088212,-0.017827917635440824,-0.10962941849827766
1772526333597408300,2.948408203125,0.1310948158532381,-0.018099428053200244,-0.1398445240199566
1772526333607390200,2.95839013671875,0.12505202855765818,-0.007253624390065669,-0.15621610536724329
1772526333617372200,2.9683720703125,0.1400572899878025,-0.02212415352463722,-0.13496398543678223
1772526333627355100,2.978355224609375,0.15601532209813593,-0.0108054716527462,-0.11045973184257746
1772526333637337000,2.988337158203125,0.16922668584883213,-0.004043430171906948,-0.08707154973149299
1772526333647320300,2.9983203125,0.1654156031280756,-0.00008913958817720413,-0.09772226921394467
1772526333657302000,3.008302001953125,0.15774083071649073,0.010544774889945983,-0.10131086829043924
1772526333667284200,3.0182841796875,0.14632453368902207,0.021058277858793734,-0.09025909372642636
1772526333677267200,3.02826708984375,0.12520984946787356,0.016703882041573522,-0.0733801473788917
1772526333687249400,3.03824951171875,0.10769172843396663,0.013720482316613197,-0.06521810290701686
1772526333697232100,3.048232177734375,0.10575871454477309,0.03307604791074991,-0.0798090113826096
1772526333707214300,3.05821435546875,0.12384966703057289,0.02713613646775484,-0.07537599737122655
1772526333717196300,3.0681962890625,0.17449205903112888,0.011191256099939345,-0.045533086162805554
1772526333727179300,3.07817919921875,0.207843709012866,0.0044093408748507494,-0.020798019487410783
1772526333737161500,3.088161376953125,0.19397709622383116,-0.0024006314009428023,0.016862871995568275
1772526333747143200,3.09814306640625,0.14585399356782436,-0.0018166940331459044,0.041206966591998934
1772526333757126400,3.10812646484375,0.07696165912747382,0.02193681425899267,0.04501731866039335
1772526333767108000,3.118108154296875,0.011870470535755157,0.028724574702978133,0.0591938011161983
1772526333777091300,3.12809130859375,-0.029312603724002836,0.010423486597836018,0.06974661318212746
1772526333787073300,3.1380732421875,-0.07471592602729797,0.01594721845537424,0.07530578167922794
1772526333797055200,3.14805517578125,-0.12614216188192368,0.005592997701466083,0.07705211388990282
1772526333807038200,3.1580380859375,-0.17183014634549618,0.00513736288845539,0.09119264824949204
1772526333817020400,3.1680205078125,-0.23973463879227636,0.004972527715563774,0.09448694055452943
1772526333827003100,3.178003173828125,-0.287725639501214,0.00899812996983528,0.10016418247334659
1772526333836985300,3.1879853515625,-0.27695465463995933,0.011190087056159972,0.11315072449222206
1772526333846967300,3.19796728515625,-0.24117606977224348,0.017334288899600505,0.11636113790608942
1772526333856950300,3.2079501953125,-0.19563070864975451,0.035870647065341474,0.12094378952123223
1772526333866932500,3.217932373046875,-0.1591238095074892,0.025662849044799804,0.12892287864163518
1772526333876915200,3.227915283203125,-0.12893033129572867,0.015072189186513422,0.11527246588654816
1772526333886897400,3.2378974609375,-0.09021861558556556,-0.00244037888944149,0.09091200467720627
1772526333896879000,3.247879150390625,-0.03833937526643276,-0.01989858642965555,0.06430318001918495
1772526333906862300,3.2578623046875,0.0014683189868927,-0.0177832017108798,0.05170322616510093
1772526333916844300,3.26784423828125,0.037543256452679634,0.011239479155838488,0.060574880211055275
1772526333926826200,3.277826171875,0.08146423124372959,0.044611879664659494,0.07037402436546981
1772526333936809200,3.287809326171875,0.1423836871087551,0.06673281831890344,0.08316789335645734
1772526333946791400,3.29779150390625,0.20420739833712576,0.06565320638865232,0.09867686652503907
1772526333956774100,3.307774169921875,0.24530863953232765,0.07130787114948034,0.08931267972178757
1772526333966756400,3.31775634765625,0.26130700365304943,0.035145547661185265,0.08244410912655294
1772526333976738300,3.32773828125,0.26263153025507924,0.01530804376900196,0.052623775076121086
1772526333986721300,3.33772119140625,0.25982933231592176,0.015929682798683644,0.0087424016430974
1772526333996703500,3.347703369140625,0.2227455100685358,0.03707125502675771,-0.021062807903438806
1772526334006686200,3.357686279296875,0.1531675314515829,0.0462280826896429,0.0018081454005092381
1772526334016668400,3.36766845703125,0.08769172745645046,0.08726122708469629,0.032915158260613676
1772526334026650400,3.377650390625,0.06840192057490349,0.1524883170157671,0.0393178649097681
1772526334036633300,3.38763330078125,0.030915947267413136,0.17385463791042566,0.05078413855880499
1772526334046615300,3.397615234375,-0.008000935626029968,0.16520868237912653,0.061640902007371184
1772526334056597200,3.40759716796875,-0.03870879310071468,0.12490268321484327,0.0294284851886332
1772526334066580200,3.417580322265625,-0.04876666125655174,0.08578443253040313,-0.008318915534019469
1772526334076562400,3.4275625,-0.050693245404958724,0.055230888834595676,-0.028682123800739645
1772526334086545200,3.437545166015625,-0.05678747062683105,0.008853168541193009,-0.025315716107562183
1772526334096527400,3.44752734375,-0.049559857460856435,-0.005092354702949524,-0.013912790018320083
1772526334106509300,3.45750927734375,-0.03658931672871112,0.00801788676083088,-0.0044321372285485265
1772526334116492300,3.4674921875,-0.017273790884017943,0.0028854923084378242,-0.0023372838411480188
1772526334126474500,3.477474609375,0.021488778230547904,-0.0041398762837052345,-0.011932502921298145
1772526334136457200,3.487457275390625,0.056876317954063414,-0.010596505077183247,-0.02755085474848747
1772526334146439400,3.497439453125,0.07818447892069816,-0.007834931409358977,-0.03437456328868866
1772526334156421400,3.50742138671875,0.08104454452693462,-0.017778817796707154,-0.03389569373056292
1772526334166404400,3.517404296875,0.07603694549798964,-0.029489421595633027,-0.025940496942400932
1772526334176386300,3.52738623046875,0.06304536197781563,-0.02933686138242483,-0.027275983329862353
1772526334186368300,3.5373681640625,0.043833296507596965,-0.03273059547394514,-0.02264503559358418
1772526334196351200,3.547351318359375,0.04984218153357506,-0.029652503202855587,-0.0189895818259567
1772526334206333400,3.55733349609375,0.05229892703592777,-0.015389292311668395,-0.017912454113736747
1772526334216316200,3.567316162109375,0.037405893808603284,-0.0020186463460326195,-0.006203823076188564
1772526334226298400,3.57729833984375,0.004274608579277992,0.0057239306047558785,0.0024030425537377594
1772526334236280300,3.5872802734375,-0.017732056045532227,0.0038593057766556737,-0.005045812147483229
1772526334246263300,3.59726318359375,-0.02890285387933254,0.024373393756151197,-0.013153934475034474
1772526334256245200,3.607245361328125,-0.02326046407818794,0.0501867571875453,-0.022107640781253574
1772526334266228200,3.617228271484375,-0.012049918755888938,0.04429068488627672,-0.0026416736152023077
1772526334276210400,3.62721044921875,0.02239770976901054,0.06457593254595995,0.0024837796397507187
1772526334286192400,3.6371923828125,0.062113049563765524,0.08356909456849097,0.011040960909053682
1772526334296175400,3.64717529296875,0.07508008316457271,0.06842354788482188,0.051468832887336606
1772526334306157300,3.6571572265625,0.03712356973588466,0.04651186806708574,0.07029993621595204
1772526334316140300,3.667140380859375,0.01376958215534687,0.036485564093291754,0.05866166700087487
1772526334326122200,3.677122314453125,0.01435118143558502,0.033364801724255086,0.04036766622364521
1772526334336104400,3.6871044921875,0.04068915326297283,0.01026566568762064,0.03775762985572219
1772526334346087200,3.697087158203125,0.09431436046659945,-0.002554360657930374,0.034753187342733145
1772526334356069400,3.7070693359375,0.1375567053437233,-0.002721241657435894,0.04327412825487554
1772526334366051000,3.717051025390625,0.12052958269715308,-0.009643734396994114,0.057412909048795695
1772526334376034300,3.727034423828125,0.06463350795209408,-0.01500000073313713,0.044890988866984845
1772526334386016300,3.737016357421875,-0.019963760620355604,-0.0010758125379681587,0.02919752597697079
1772526334395999500,3.74699951171875,-0.10595745198726654,-0.004766483749449253,0.008640621769055723
1772526334405981200,3.756981201171875,-0.15842764393687248,0.009523322887718677,0.004351107881590724
1772526334415963400,3.76696337890625,-0.1472504163622856,0.008681026844680308,0.017623919495940207
1772526334425946000,3.776946044921875,-0.1069610760718584,0.017114216408133504,0.010740224396809935
1772526334435928300,3.78692822265625,-0.08978197773396969,0.010581307508051394,0.024329481549188493
1772526334445910300,3.79691015625,-0.07202887890040874,0.003167231859266758,0.026251316457241772
1772526334455893200,3.806893310546875,-0.03720131114721298,0.0012695815443992614,0.01888297964632511
1772526334465875500,3.81687548828125,0.006347907721996307,-0.011113806949555874,-0.023231457179412246
1772526334475858200,3.826858154296875,0.036280104649066926,-0.015158990687131882,-0.07488638722337781
1772526334485840400,3.83684033203125,0.08063947085738181,-0.05815846671909094,-0.10321567899845539
1772526334495822300,3.846822265625,0.1178314296543598,-0.06472966180294752,-0.0849409674435854
1772526334505805300,3.856805419921875,0.16005378383398056,-0.04343494483977556,-0.054236690165475006
1772526334515787300,3.866787353515625,0.20503508133292198,-0.020891396859288213,-0.022978213070705533
1772526334525770500,3.8767705078125,0.2641284908145666,-0.013105565288662909,-0.012346490549668668
1772526334535752200,3.886752197265625,0.31115444588363167,-0.01427548585087061,0.011856222814694046
1772526334545734400,3.896734375,0.36691783415973184,-0.03205401138663292,0.013279752811789511
1772526334555717000,3.906717041015625,0.45504327685832974,-0.04274287092238664,0.020634937880188227
1772526334565699300,3.91669921875,0.47972296008467674,-0.034925767430663106,0.037893385064601895
1772526334575681300,3.926681396484375,0.44684652639925476,-0.014068565101921558,0.057836175962165
1772526334585664300,3.936664306640625,0.3905132292807102,-0.005815116019546985,0.06216835994757711
1772526334595646500,3.946646484375,0.3423047864288091,0.020748188996315,0.060570130970701574
1772526334605629200,3.956629150390625,0.29850363862514495,0.04737462237626314,0.05488514413684606
1772526334615611400,3.966611328125,0.2672749721467495,0.035224458116292955,0.0745385966990143
1772526334625593300,3.97659326171875,0.2527519412755966,0.006261398482322693,0.12656747462190687
1772526334635576300,3.986576416015625,0.23115619553923605,0.011052724412083626,0.166771182455495
1772526334645558300,3.996558349609375,0.19370237093567846,0.023127485348284245,0.1909245037201792
1772526334655541500,4.00654150390625,0.13253332422375677,0.037872050015628336,0.2185796225607395
1772526334665523200,4.016523193359375,0.037892216020822524,0.05099135156869888,0.22795988371595738
1772526334675505400,4.02650537109375,-0.058957215881347655,0.08330956684947013,0.2553886464547366
1772526334685488400,4.03648828125,-0.14363807108402252,0.11555471689403056,0.300551218804717
1772526334695470300,4.04647021484375,-0.2204495080858469,0.14954934095442293,0.3109339350007474
1772526334705452500,4.05645263671875,-0.30574060414135457,0.23674919324070215,0.3059957479462027
1772526334715435500,4.066435546875,-0.3830529764026403,0.27424042724519965,0.2650755624063313
1772526334725417500,4.07641748046875,-0.3950000193059444,0.2725309929788112,0.25297157537564635
1772526334735400400,4.086400390625,-0.34270869105458257,0.2516866501316428,0.25087555294446645
1772526334745382400,4.09638232421875,-0.3541980533182621,0.135440443842113,0.18528920124694703
1772526334755364400,4.1063642578125,-0.3309218071490526,0.0826619165956974,0.08324505024589597
1772526334765347600,4.11634765625,-0.2615571790218353,0.06002601415663957,-0.03463431020341813
1772526334775329300,4.126329345703125,-0.16410101339817046,0.02373334228694439,-0.06872779152840376
1772526334785312500,4.1363125,-0.01834054333269596,-0.0054752165406942365,-0.07360080439224839
1772526334795294200,4.146294189453125,0.11333879441022872,-0.020799919183552264,-0.08071421659402549
1772526334805276400,4.1562763671875,0.1892307784795761,-0.027345979826152323,-0.14616444775648416
1772526334815259400,4.16625927734375,0.250308055254817,-0.03888736453801393,-0.2243476115029305
1772526334825241300,4.176241455078125,0.27474866902828216,-0.0873679023295641,-0.25884565504081547
1772526334835223600,4.1862236328125,0.2894260136783123,-0.11503478467315435,-0.29353512949757277
1772526334845206500,4.19620654296875,0.27790391818881033,-0.14159955099374055,-0.3205472011942416
1772526334855188500,4.2061884765625,0.2400420973062515,-0.16120704552233217,-0.3615050153307616
1772526334865171500,4.21617138671875,0.21848142288327216,-0.18104075002223252,-0.3734071231137961
1772526334875153400,4.2261533203125,0.21434826860129833,-0.18895839127898215,-0.3716916974980384
1772526334885135400,4.23613525390625,0.21075287445783614,-0.19361030873805282,-0.3758551007878035
1772526334895118600,4.24611865234375,0.21998832031488416,-0.2176987480729818,-0.36816732276417313
1772526334905100300,4.256100341796875,0.20147066684961318,-0.2056806857600808,-0.3459594364788383
1772526334915083500,4.26608349609375,0.14128303239047527,-0.1902533995255828,-0.3172611652608961
1772526334925065200,4.276065185546875,0.064797758603096,-0.1538420697122812,-0.28150303865931925
1772526334935047400,4.28604736328125,0.012311200040578842,-0.12079261754751204,-0.23332966712079942
1772526334945030400,4.296030517578125,-0.03555295941829681,-0.09401479299813509,-0.1781012625042349
1772526334955012400,4.306012451171875,-0.06669803926646709,-0.0694794866785407,-0.13302534552440046
1772526334964994300,4.315994384765625,-0.06951543477475643,-0.04151479043215513,-0.09658318218141794
1772526334974977500,4.3259775390625,-0.06936287456154823,-0.007934884652495384,-0.06073197046890855
1772526334984959500,4.33595947265625,-0.0617132365912199,-0.00848667331635952,-0.0025538492012768983
1772526334994942500,4.3459423828125,-0.09343523954451084,0.009142214615643024,0.0384861633259803
1772526335004924400,4.35592431640625,-0.1046644895672798,0.048076633165776726,0.04550685574300587
1772526335014906400,4.36590625,-0.12210486918985843,0.07700140661597252,0.07222564358152449
1772526335024889300,4.375889404296875,-0.10284721101224421,0.09565203881114721,0.09819675485789775
1772526335034871300,4.385871337890625,-0.0843921013891697,0.10690583875328302,0.11936740704998373
1772526335044853500,4.395853515625,-0.057764206704497334,0.09979980614036321,0.12373758495822548
1772526335054836500,4.40583642578125,-0.017107786667346952,0.09892740722000598,0.12601758565418422
1772526335064818400,4.415818359375,-0.020917700344324112,0.0958551601678133,0.13970299665741623
1772526335074801400,4.425801513671875,-0.04779167874455452,0.08890548716038466,0.14350195054896175
1772526335084783400,4.435783447265625,-0.03436287285089493,0.08922229802459478,0.13354732357189059
1772526335094765300,4.445765380859375,-0.009178747233748435,0.08983312339931726,0.09992321332432329
1772526335104748500,4.45574853515625,0.056011810079216955,0.07431056009680033,0.07760273350998759
1772526335114730200,4.465730224609375,0.1489846928089857,0.0328323022827506,0.06965060546174645
1772526335124713500,4.47571337890625,0.23573007932603357,-0.028421500103175637,0.07076053946502506
1772526335134695200,4.485695068359375,0.3137579063802957,-0.05388765753209591,0.043826720636337996
1772526335144677400,4.495677490234375,0.3477361638277769,-0.05929623857736587,0.02063990631625056
1772526335154660400,4.505660400390625,0.3532178101092577,-0.04706804064512252,0.015661094990372656
1772526335164642300,4.515642333984375,0.28041560874879357,-0.02857522936016321,0.03246390736177564
1772526335174624500,4.52562451171875,0.17990473172962665,-0.0005912438914179802,0.039748511411994696
1772526335184607500,4.535607421875,0.085594462916255,0.02983224368393421,0.010594020859152078
1772526335194589400,4.54558935546875,0.03754734810590744,0.05629647223949432,-0.019843276045843957
1772526335204572400,4.555572509765625,0.029222002831101417,0.03633592648953199,-0.005927855679020285
1772526335214554400,4.565554443359375,0.0517009611427784,0.021713234636187552,0.035792978719249365
1772526335224536300,4.575536376953125,0.08312544245421886,0.027917934495210645,0.06097279348745942
1772526335234519600,4.58551953125,0.05294716181159019,0.03955021236091852,0.07596475704461336
1772526335244501200,4.595501220703125,-0.0054214405268430705,0.037166532094776626,0.08282236785441636
1772526335254484500,4.605484375,-0.04492635244131088,0.050719841150939464,0.10602642557024955
1772526335264466200,4.615466064453125,-0.06656243018805981,0.06861351749897003,0.11715228828378021
1772526335274448400,4.625448486328125,-0.043780105015635486,0.07975888863056897,0.12817118349149823
1772526335284431400,4.635431396484375,-0.026607436418533324,0.055415597751736635,0.1420567932419479
1772526335294413300,4.645413330078125,-0.017294249150156975,0.03955605757981539,0.13199907121658325
1772526335304395500,4.6553955078125,-0.035600890213251114,0.02250847666710615,0.09840893630385399
1772526335314378500,4.66537841796875,-0.0628419483602047,-0.0036976854741573332,0.07192490706928074
1772526335324360400,4.6753603515625,-0.0718733960777521,-0.03612959026247263,0.06607537732347846
1772526335334343400,4.685343505859375,-0.05002513688504696,-0.058008829115331166,0.060598261086642735
1772526335344325400,4.695325439453125,-0.011947627425193785,-0.07187281155586242,0.0458452939171344
1772526335354307300,4.705307373046875,0.02200257297158241,-0.09275076441168785,0.058897886909544464
1772526335364290600,4.71529052734375,0.057066287568211554,-0.10902180799394845,0.05920059618316591
1772526335374272300,4.725272216796875,0.09149404234886169,-0.09049217182993888,0.04161956598088145
1772526335384255500,4.73525537109375,0.09875497326254844,-0.0969879635900259,0.03492620582208037
1772526335394237200,4.7452373046875,0.09055880732536316,-0.1033136594802141,0.023753216031193732
1772526335404219400,4.755219482421875,0.11507190181314944,-0.07127367661893368,-0.004423296334967017
1772526335414202400,4.765202392578125,0.12171557761132716,-0.056959904584288595,0.0004468669846653938
1772526335424184300,4.775184326171875,0.09718260937929153,-0.04859481182098389,0.012900032779201865
1772526335434166500,4.78516650390625,0.09601765725314616,-0.013402210147678851,0.01947531951628625
1772526335444149500,4.7951494140625,0.09080839817225933,0.015462649808824062,0.02581884332410991
1772526335454131500,4.80513134765625,0.09896715470850467,0.044591421398520466,0.045223143430799244
1772526335464114400,4.815114501953125,0.05670154590904712,0.05987579203099012,0.05316160827986896
1772526335474096400,4.825096435546875,0.016800912675261497,0.07854308310002088,0.03709470896758139
1772526335484078300,4.835078369140625,-0.034223756641149516,0.1054226144582033,0.01706234009042382
1772526335494061600,4.8450615234375,-0.07861936320662498,0.11583967131525277,0.009789864869415759
1772526335504043300,4.855043212890625,-0.09773673613071442,0.12944120342731474,-0.003465630283951759
1772526335514026500,4.865026611328125,-0.11672434519529341,0.1259101066917181,-0.013454378726333378
1772526335524008400,4.875008544921875,-0.11564940944015979,0.11656886237263679,-0.019143749474361538
1772526335533990400,4.884990478515625,-0.11236147381067275,0.0928901728823781,-0.01831139030344784
1772526335543973400,4.894973388671875,-0.0952706382781267,0.08803454954475164,-0.017827113917842505
1772526335553955300,4.904955322265625,-0.07163315758109093,0.06720598878860473,-0.02866027729511261
1772526335563937500,4.9149375,-0.05672901843786239,0.058869537597894664,-0.050062984677404165
1772526335573920500,4.92492041015625,-0.053664954692125316,0.04018441861122846,-0.093526790285483
1772526335583902500,4.93490234375,-0.041488779208064076,-0.010199030192196368,-0.10497691651731729
1772526335593885400,4.944885498046875,-0.012937222984433174,-0.05680763663202524,-0.10004187126792967
1772526335603867400,4.954867431640625,0.0398801749676466,-0.10799772564321755,-0.09373422249108553
1772526335613849300,4.964849365234375,0.09049860157072544,-0.12782733848989009,-0.09086524292603135
1772526335623832600,4.97483251953125,0.11793839716017246,-0.14966390724480153,-0.10070493828654288
1772526335633814300,4.984814208984375,0.11672551423907279,-0.14880378328412772,-0.1113552924428135
1772526335643796500,4.99479638671875,0.08855798889696598,-0.12302607568800449,-0.10298596189580857
1772526335653779500,5.004779541015625,0.04225216479599476,-0.11404752720147371,-0.10395093447044491
1772526335663761400,5.014761474609375,0.005673953983187675,-0.08146773837506771,-0.11318243480473757
1772526335673744400,5.024744384765625,-0.01799976707100868,-0.05607464618235826,-0.09422704750932752
1772526335683726300,5.034726318359375,0.00962649100124836,-0.048993163488805294,-0.059129795969277615
1772526335693708500,5.04470849609375,0.059653381451964374,-0.0459255926117301,-0.033587942955642935
1772526335703691500,5.05469140625,0.11706219884753226,-0.03325783421844244,-0.02607354873754084
1772526335713673500,5.064673583984375,0.14172960711419583,-0.031542846994102,-0.04388159262873232
1772526335723656400,5.074656494140625,0.11644961990714073,-0.023368308366835115,-0.050214887303486465
1772526335733638400,5.084638427734375,0.07798281886875628,0.00043809915632009506,-0.05911255257353186
1772526335743620600,5.09462060546875,-0.0031955811709165572,0.04206453326940536,-0.06229425134956836
1772526335753603600,5.104603515625,-0.08742226286530494,0.07771452332139014,-0.057552025258541105
1772526335763585500,5.11458544921875,-0.14948036737143994,0.11136252590119838,-0.06493439059481024
1772526335773567500,5.1245673828125,-0.16710253330171107,0.12029255907088518,-0.05798705567494034
1772526335783550500,5.134550537109375,-0.1328811147481203,0.11137363181710243,-0.03429119585417211
1772526335793532700,5.14453271484375,-0.10842588792741298,0.13402414730340242,-0.013570187125727533
1772526335803515400,5.154515380859375,-0.06509586476683617,0.15113982501626014,-0.005671615895628929
1772526335813497600,5.16449755859375,-0.01139759232699871,0.14297726908773184,0.016417100989446043
1772526335823479300,5.174479248046875,0.04932254157364368,0.1313499596580863,0.036025545366108414
1772526335833462500,5.184462646484375,0.11570844615101814,0.1219271745353937,0.04245477469600737
1772526335843444500,5.194444580078125,0.17695640331804752,0.12227262697219848,0.027316680666431784
1772526335853427500,5.204427490234375,0.20916239039599893,0.09962444957345723,0.013938728177174925
1772526335863409400,5.214409423828125,0.19483225174844263,0.08859948995113372,-0.0099967125531286
1772526335873391600,5.2243916015625,0.16025953553915023,0.09858604643642901,-0.03640292731113732
1772526335883374300,5.234374267578125,0.11226093604564666,0.10462824921011925,-0.041580987536162135
1772526335893356500,5.2443564453125,0.09535130229890346,0.11466390553414821,-0.048957434588298196
1772526335903338500,5.25433837890625,0.1286602821826935,0.10057488216608762,-0.04272248572148382
1772526335913321500,5.264321533203125,0.1528846228569746,0.06629676498919725,-0.021769567933306096
1772526335923303700,5.2743037109375,0.17732231402099133,0.03223404412865639,-0.005820668977499008
1772526335933286400,5.284286376953125,0.15056757808625698,0.00907090294510126,-0.02229118065461516
1772526335943268600,5.2942685546875,0.10132043983638286,-0.008067278860509395,-0.062366512868180866
1772526335953250300,5.304250244140625,0.03223229056298733,-0.027702245917916295,-0.11776201767995953
1772526335963233500,5.314233642578125,-0.024977789390087126,-0.057315001632273196,-0.15265147168822585
1772526335973215500,5.324215576171875,-0.0502151064991951,-0.11065496215373277,-0.154330656946823
1772526335983197400,5.334197509765625,-0.08229308328330516,-0.13789309769123792,-0.1622684642087668
1772526335993180400,5.344180419921875,-0.0678343498200178,-0.12688216659426688,-0.15212861685790122
1772526336003162600,5.35416259765625,-0.05448445438146591,-0.08570201494395732,-0.15397380633316934
1772526336013145300,5.364145263671875,-0.062218263503909105,-0.10682546699345111,-0.1510321268580854
1772526336023127600,5.37412744140625,-0.041913726621866224,-0.10036386976391076,-0.12569785218052565
1772526336033109500,5.384109619140625,-0.03971943144798278,-0.10170593202263116,-0.09262048909552395
1772526336043092500,5.394092529296875,-0.08725158247351646,-0.11659896524995565,-0.047186990849673746
1772526336053074700,5.40407470703125,-0.14519991357326506,-0.090339027094841,-0.02049523714855313
1772526336063057400,5.414057373046875,-0.17817863858938215,-0.05685498290508985,-0.013906214147061108
1772526336073039600,5.42403955078125,-0.17693185339868067,-0.03238280494958162,0.00668020841628313
1772526336083021600,5.434021484375,-0.140571084728837,-0.028013796085119246,0.02615684310682118
1772526336093004500,5.444004638671875,-0.07577391064763069,-0.01157791732996702,0.016716522327437994
1772526336102986500,5.453986572265625,-0.019920506000518798,-0.02213730526715517,0.006964724446088076
1772526336112968400,5.463968505859375,0.04123392766416072,-0.021275135479867455,-0.015955036435648797
1772526336122951400,5.473951416015625,0.09372983857691287,-0.027558453533053397,-0.020998729691281914
1772526336132933600,5.48393359375,0.14459551793932915,-0.008890870203077793,-0.015252733385190367
1772526336142916400,5.493916259765625,0.17479776397943494,0.011615326730906962,-0.0035126112308353184
1772526336152898600,5.503898681640625,0.1772019025117159,0.05538403356969356,0.02402479951418936
1772526336162880500,5.513880615234375,0.16717793662548064,0.09189093271195888,0.05037804197594523
1772526336172863500,5.523863525390625,0.16027999380528926,0.11351035158485173,0.07428418354652822
1772526336182845700,5.533845703125,0.14148352339863776,0.11178221261799334,0.08972776332870125
1772526336192827400,5.543827392578125,0.13880465957820415,0.09089841454327106,0.08814085946343839
1772526336202810600,5.553810546875,0.16296470284461975,0.0902189078465104,0.04986168995164335
1772526336212792600,5.56379248046875,0.17777064231038092,0.09036357701420783,0.0379163275487721
1772526336222775600,5.573775634765625,0.21395897702276706,0.08003565974533558,0.04675334867276251
1772526336232757500,5.583757568359375,0.24196458980143068,0.09416355381906032,0.05176613533347845
1772526336242739500,5.593739501953125,0.26071663654446603,0.1196507540360093,0.06013144729249179
1772526336252722400,5.603722412109375,0.23939561609625815,0.1097647353157401,0.07580445191636681
1772526336262704600,5.61370458984375,0.21274726314544676,0.07793342676907777,0.0843463625513017
1772526336272687400,5.623687255859375,0.22470891909599303,0.0624821751371026,0.07692308068275451
1772526336282669600,5.633669677734375,0.24478549244105816,0.05000613992363214,0.06563230973109603
1772526336292651500,5.643651611328125,0.22841654144227502,0.03624181846529245,0.05020356219187379
1772526336302634500,5.653634521484375,0.16837620649933813,0.036275720734894275,0.026876316487789154
1772526336312616700,5.66361669921875,0.09621931730508804,0.044997956372797486,-0.00742138217240572
1772526336322598400,5.673598388671875,0.0333095644056797,0.06396247682273387,-0.03463986316137015
1772526336332581600,5.68358154296875,-0.033440497308969495,0.05654518630355596,-0.05200191685073077
1772526336342563600,5.6935634765625,-0.08918108923137187,0.04058189349621534,-0.06510916263982654
1772526336352546600,5.703546630859375,-0.10915361768007278,0.030873277169466015,-0.06342186714001
1772526336362528500,5.713528564453125,-0.09941197586655616,0.009804477916657924,-0.06882650266252457
1772526336372510500,5.723510498046875,-0.05336860209405422,0.0032540333598852157,-0.058043973493948575
1772526336382493400,5.733493408203125,-0.03291968830525875,-0.020496552322804926,-0.03876344589740038
1772526336392475600,5.7434755859375,-0.0031190088033676146,-0.06375438703000545,-0.03308335443437099
1772526336402457600,5.75345751953125,-0.0018295535147190092,-0.09765490306615829,-0.07384250419363379
1772526336412440600,5.763440673828125,0.02701017200052738,-0.11759206794053316,-0.15094890555404125
1772526336422422500,5.773422607421875,0.07463000130951404,-0.11674012728631496,-0.2139970440108329
1772526336432405500,5.783405517578125,0.11958908697664737,-0.13202888183295727,-0.20315664717517792
1772526336442387500,5.793387451171875,0.11912263850867748,-0.1577162807971239,-0.17394319297671318
1772526336452369400,5.803369384765625,0.09388006070256233,-0.158184190569818,-0.16367087835259736
1772526336462352600,5.8133525390625,0.04754325694143772,-0.13736264407634735,-0.14275390866063534
1772526336472334600,5.82333447265625,0.0146352590739727,-0.12112404145896434,-0.12987382269091904
1772526336482317600,5.833317626953125,0.022619243565201758,-0.08983604600876569,-0.1264352265443653
1772526336492299500,5.843299560546875,0.04884498718976974,-0.08036006939411162,-0.10077237749956548
1772526336502281500,5.853281494140625,0.05989712707996368,-0.09414368007481097,-0.0721427145384252
1772526336512264400,5.863264404296875,0.06061901161372661,-0.07967325617372989,-0.07914915923438966
1772526336522246700,5.87324658203125,0.04806348142325878,-0.0510644168049097,-0.05900741169862449
1772526336532228400,5.883228271484375,0.04496200827658176,-0.012521920181810855,-0.026048487361520527
1772526336542211600,5.893211669921875,0.04435761264264583,0.0039323710128664965,-0.008937193562835455
1772526336552193500,5.903193603515625,0.0386076708137989,0.016852058340609072,0.006874781140312552
1772526336562176500,5.913176513671875,0.03295008344352245,0.013217208969593048,0.030913243853673337
1772526336572158500,5.923158447265625,0.042724458482861515,0.008962181873619557,0.08319076277539134
1772526336582140400,5.933140380859375,0.06908581118583679,0.04944587569236755,0.1294995825510472
1772526336592123400,5.943123291015625,0.08166179964244365,0.07786766805648804,0.18669877578392624
1772526336602105600,5.953105712890625,0.052795770642161365,0.09177782772630452,0.18034239249452946
1772526336612087600,5.963087646484375,0.008797054439783096,0.11153963603377341,0.19177965924479065
1772526336622070500,5.973070556640625,-0.0059440030962228775,0.11720423766672611,0.16529599533639847
1772526336632052500,5.983052490234375,0.022479542833566665,0.08171031495928764,0.13787519670836626
1772526336642035500,5.993035400390625,-0.0035737668335437773,0.06572773292958736,0.1489488177780062
1772526336652017700,6.003017578125,0.07361527130901813,0.11177870548665522,0.1265305766776204
1772526336661999400,6.012999267578125,0.13818623541891575,0.10161737695634364,0.1368964878693223
1772526336671982600,6.022982666015625,0.1912485480427742,0.06638093614131212,0.12262976984679698
1772526336681964500,6.032964599609375,0.2719108152538538,0.0414504930242896,0.061184755737707014
1772526336691947000,6.042947021484375,0.27680326347053047,-0.015373217959702014,0.05960055528618395
1772526336701929200,6.05292919921875,0.22767829029560088,-0.02450578796416521,0.02378149227760732
1772526336711911000,6.062910888671875,0.1994517282426357,0.02151975789070129,-0.0005552227299660444
1772526336721894100,6.07289404296875,0.20245675527751444,0.03706424076408148,-0.020428820848837494
1772526336731876000,6.0828759765625,0.2502548637628555,0.05095598799437284,-0.007049845446273684
1772526336741858000,6.092858154296875,0.3271475493073463,0.06551116756945848,-0.030366862017288804
1772526336751841000,6.102841064453125,0.39960254466533657,0.049560149721801276,-0.043858942405506966
1772526336761823200,6.1128232421875,0.46652679390311236,0.027021277916431427,-0.08537336751148104
1772526336771806000,6.122805908203125,0.4888602062642574,-0.01321925479620695,-0.13320574359260498
1772526336781788200,6.1327880859375,0.4446680133163929,-0.050692953144013876,-0.11915266832076013
1772526336791769900,6.142769775390625,0.3531944292336702,-0.04728022209107875,-0.08814056720249354
1772526336801753000,6.152753173828125,0.22563947794437408,-0.006536854422837496,-0.10511815161891282
1772526336811735000,6.162735107421875,0.08561901283562183,0.018814882846176623,-0.13505992009192705
1772526336821717000,6.172717041015625,-0.06381167017519473,-0.025440730726718902,-0.16519319254904985
1772526336831700000,6.182699951171875,-0.1258399640649557,-0.04838131520077586,-0.1401335700944066
1772526336841682000,6.192681884765625,-0.10386486362218857,-0.046599400220066305,-0.05815766300149262
1772526336851665000,6.202664794921875,-0.10843173314630984,-0.004600479532778263,-0.0003821311853826046
1772526336861647000,6.212647216796875,-0.11532090813815593,0.05501534638777375,0.018697174750640987
1772526336871629000,6.222629150390625,-0.10558043536841868,0.09981047366484999,0.020054799904674292
1772526336881612000,6.232612060546875,-0.07098083115220069,0.1290390523672104,0.0019760493133217094
1772526336891594200,6.24259423828125,-0.03984685721993446,0.10986483468934893,0.020211086444929242
1772526336901577000,6.252576904296875,-0.08942308129370212,0.046681817806512114,0.024300986107066273
1772526336911559200,6.26255908203125,-0.1679728863954544,0.013549655794352293,0.020740371016040444
1772526336921540900,6.272540771484375,-0.298035436591506,0.0067316463425755495,0.03607318390011787
1772526336931524000,6.282524169921875,-0.4146604130655527,-0.0018203472949564455,0.024960692124813794
1772526336941506000,6.292506103515625,-0.506917841002345,-0.001070697971433401,0.004823693829402328
1772526336951488000,6.302488037109375,-0.5689759455084801,-0.012188304313272237,0.004345116532221437
1772526336961471000,6.312470947265625,-0.5441372723281384,-0.009449380868673325,0.016656754964217542
1772526336971453000,6.322452880859375,-0.4365361447870731,0.008635434137284756,0.025847631027176975
1772526336981436000,6.332435791015625,-0.3254313930392265,0.01567278542816639,0.03936922977082431
1772526336991418000,6.342418212890625,-0.24235388137996194,0.018920827438682317,0.04650295410826802
1772526337001400000,6.352400146484375,-0.19539806893765926,0.05579626763239503,0.0381317238651216
1772526337011383000,6.362383056640625,-0.1383189218878746,0.09634294368475675,0.030865970645844936
1772526337021365200,6.372365234375,-0.1056885719180107,0.09799494867548346,0.04972717685177922
1772526337031347000,6.382346923828125,-0.06779577137529849,0.06323094767779111,0.04754406065903604
1772526337041330200,6.392330078125,0.014206804528832434,0.05768339655324816,0.014729659359157085
1772526337051311900,6.402311767578125,0.09973930812478064,0.06517462909147143,0.024805428497865795
1772526337061295000,6.412295166015625,0.14317805235683917,0.06015460897237062,0.0537255988381803
1772526337071277000,6.422277099609375,0.1680032815337181,0.04697743975222111,0.03998290468975901
1772526337081259000,6.432259033203125,0.168870712018013,0.05769990929663181,0.026064415583014488
1772526337091242000,6.442241943359375,0.14313129060566424,0.051625411688536404,0.004468596781417727
1772526337101224000,6.452223876953125,0.1097235265225172,0.03846446295082569,-0.04829714404866099
1772526337111206100,6.4622060546875,0.10812953532934189,0.021594138301163912,-0.07582118385545909
1772526337121189000,6.472189208984375,0.10976152044534683,-0.0008463876962661743,-0.04208747575357556
1772526337131171000,6.482171142578125,0.1494511412769556,-0.009878566066175699,-0.016513108709827064
1772526337141154000,6.492154052734375,0.21240707140564918,0.02203077615275979,-0.007823752428218722
1772526337151136300,6.50213623046875,0.24370354242324826,0.055622372370213266,0.0009787088390439747
1772526337161118000,6.512117919921875,0.23777064524292946,0.0528824260123074,0.013199454117193817
1772526337171101200,6.52210107421875,0.2064811884880066,0.03560951191112399,0.0032672581676393745
1772526337181083000,6.532082763671875,0.13687573734223843,0.011631839474290608,-0.028235549077019095
1772526337191065000,6.542065185546875,0.08740881886184215,-0.012425327939540147,-0.006802811882644891
1772526337201048000,6.552048095703125,0.044103345620632166,0.008996668665111065,0.04688172429278493
1772526337211030000,6.562030029296875,-0.017694646644592284,0.04076280302107334,0.059180941634625193
1772526337221013000,6.572012939453125,-0.07120061138272285,0.07710194438099861,0.06612864188067615
1772526337230995200,6.5819951171875,-0.07432780349254607,0.12667334614917636,0.048668169318139554
1772526337240977200,6.59197705078125,-0.064366965970397,0.10505962636470793,0.0536243304207921
1772526337250960100,6.601960205078125,-0.02268237192928791,0.07889993371367454,0.06575169832706451
1772526337260942000,6.611942138671875,-0.002299509114027023,0.06299480083435774,0.04641330306343734
1772526337270924000,6.621924072265625,0.012568389672040938,0.036441724951565266,0.037019086448103186
1772526337280907300,6.6319072265625,-0.027775311154127118,0.020444237613677977,0.02538205934204161
1772526337290889000,6.641888916015625,-0.05393675737082958,0.02791457349434495,0.012611571226641536
1772526337300872200,6.6518720703125,-0.060462944269180294,0.026100802070647477,-0.007753025279566645
1772526337310854000,6.66185400390625,-0.027291327029466628,0.02754033335447311,-0.016455679434165357
1772526337320836000,6.671836181640625,0.053011459219455714,0.0122258598446846,-0.043284284322708845
1772526337330819000,6.681819091796875,0.14863924037218093,-0.006173720198869705,-0.10476049728766083
1772526337340801000,6.691801025390625,0.19931436559855936,-0.04592997652590274,-0.07687631893157959
1772526337350783200,6.701783203125,0.1932218939423561,-0.05691635770350694,-0.02989617576561868
1772526337360766200,6.71176611328125,0.17462883715331554,-0.033795594356954096,-0.0061514353018254034
1772526337370748200,6.721748046875,0.12814239578843117,-0.0018332067765295505,0.011103358620777725
1772526337380731100,6.731731201171875,0.12405658777952193,0.015360212347656487,0.00043919513486325736
1772526337390713000,6.741713134765625,0.16103811869621276,-0.013142390167713165,-0.007480491948500275
1772526337400695000,6.751695068359375,0.22952245685756206,-0.02731032399088144,-0.031189284316077828
1772526337410678300,6.76167822265625,0.2898041993409395,-0.041429450236260885,-0.04582154771536588
1772526337420660000,6.771659912109375,0.29245500611066816,-0.047041444899141784,-0.021947774044424294
1772526337430642200,6.78164208984375,0.23719196857213973,-0.023810499176383018,-0.01729293397590518
1772526337440625000,6.791625,0.14942892944514752,0.026374212184548378,-0.0051511722180992365
1772526337450607000,6.801607177734375,0.04265490037798881,0.07584405327439307,0.026048414296284315
1772526337460590000,6.811590087890625,-0.06422843428254127,0.09255451118722557,0.060206412224844096
1772526337470572000,6.821572021484375,-0.1242453883498907,0.09524345801025628,0.05851239472329616
1772526337480554000,6.831553955078125,-0.13744856879413128,0.08225392031669616,0.05860263029001653
1772526337490537200,6.841537109375,-0.11274258208274841,0.05981514788493514,0.06014116496890783
1772526337500519000,6.851518798828125,-0.04933130940198898,0.0396871366135776,0.07970408970341086
1772526337510501000,6.861501220703125,-0.025547698232531547,0.014002367997914551,0.12646795977018774
1772526337520484000,6.871484130859375,-0.02920563621819019,0.007472820098698139,0.1460481279004365
1772526337530466000,6.881466064453125,-0.0342073900282383,0.028557109181582926,0.12954115667045116
1772526337540449000,6.891448974609375,-0.01183072304725647,0.02224748764336109,0.0802971602257341
1772526337550431000,6.901430908203125,0.02061842513680458,-0.01610518549606204,0.02678111248500645
1772526337560413200,6.9114130859375,0.043462709629535676,-0.05445435150414705,0.017524185448512433
1772526337570396000,6.92139599609375,0.05071721080243587,-0.06820946674272417,0.024272198403999207
1772526337580378000,6.931378173828125,0.04304477647840976,-0.04509294117987156,0.05199928650222718
1772526337590361000,6.941361083984375,0.03539689207375049,-0.01091375433281064,0.0472143903132528
1772526337600343000,6.951343017578125,0.06473813737034798,-0.003340980990976095,0.0503656939510256
1772526337610325000,6.961324951171875,0.10334697722792625,-0.010887450847774743,0.03798362063132226
1772526337620308200,6.97130810546875,0.1360796185284853,-0.02072510038167238,0.03681589202620089
1772526337630290000,6.9812900390625,0.14616788182258605,-0.03684723701253533,0.03223462865054607
1772526337640272100,6.991272216796875,0.17460545627772808,-0.011199877797812223,-0.019315598909929392
1772526337650254800,7.0012548828125,0.21526713701188563,-0.026705489965528247,-0.015242723447829483
1772526337660237000,7.011237060546875,0.16248305680751798,-0.04712956157401204,0.02176291899681091
1772526337670220000,7.021219970703125,0.10682079081833362,-0.0315786489598453,0.037930502204597
1772526337680202000,7.031201904296875,0.08667290580272674,0.03215089588984847,0.005515694681555033
1772526337690183400,7.041183349609375,0.1338052438557148,0.07366919345334172,-0.013918123780563472
1772526337700166400,7.05116650390625,0.20090952583551405,0.06372749902307986,0.010315934570133686
1772526337710148400,7.0611484375,0.26190263145864007,0.02848930464237928,0.03988580099083483
1772526337720130600,7.071130615234375,0.24264614232480525,0.010627338606864213,0.08102452465221285
1772526337730113500,7.081113525390625,0.1394599086165428,0.007080167519301176,0.12179470726214349
1772526337740095500,7.091095458984375,0.05820785881876945,0.054496729341149325,0.13042400391958653
1772526337750078500,7.101078369140625,0.033601825350522994,0.11676993790268897,0.10538936977572738
1772526337760060700,7.111060791015625,0.08757833020985126,0.12198621124625206,0.07512626039385795
1772526337770042400,7.12104248046875,0.1653489676326513,0.07596461091414093,0.052123643534258
1772526337780025600,7.131025634765625,0.23947452655136583,0.012616028206050395,0.04075001660473644
1772526337790007300,7.14100732421875,0.2737275092869997,-0.05431538142487406,0.07739734713099897
1772526337799989500,7.150989501953125,0.1921457891434431,0.00833045984134078,-0.007866641721874476
1772526337809972500,7.160972412109375,0.07454290754795075,0.05621083978265524,-0.0441447736095637
1772526337819954400,7.170954345703125,-0.004462824627757072,0.05798486371785402,-0.008524448043480515
1772526337829937400,7.1809375,-0.028683073648810384,0.08324234683215617,-0.026585443782433864
1772526337839919400,7.19091943359375,-0.013231237494945525,0.10852598730102181,-0.03699110246263444
1772526337849901300,7.2009013671875,-0.007713350856304168,0.07267784432843327,-0.03193067726790905
1772526337859884500,7.210884521484375,-0.0405336704403162,0.06253858149945736,0.004679828379303217
1772526337869866500,7.220866455078125,-0.07876315559148787,0.10404738058224319,0.03898256854079663
1772526337879848400,7.230848388671875,-0.07251052493751049,0.16573855147212743,0.0329828166693449
1772526337889831400,7.24083154296875,-0.08286474569141865,0.19089929621368645,0.029114669999107716
1772526337899813400,7.2508134765625,-0.06461831038296223,0.14168532958105207,0.0911754779189825
1772526337909796400,7.26079638671875,0.008750292688608169,0.1034763026960194,0.13085026650764048
1772526337919778300,7.2707783203125,0.09015081104636191,0.06728665280938148,0.1452097043149173
1772526337929760500,7.280760498046875,0.15208791952133177,0.027576281450688838,0.10654935346581042
1772526337939743500,7.290743408203125,0.1411941850632429,-0.018063187696039675,0.06671287150941789
1772526337949725400,7.300725341796875,0.08830196830928325,-0.018588672874867915,0.03290463686659932
1772526337959707400,7.310707275390625,0.09102525579333305,0.007612813091278076,0.041921033145487306
1772526337969690400,7.3206904296875,0.08471943364739418,0.013844839348644018,0.023341420359909534
