time,seconds_elapsed,z,y,x
1772526330732461600,0.083461669921875,0.07213737815618515,-0.23857860267162323,0.27520373463630676
1772526330742443800,0.09344384765625,0.06228300556540489,-0.23138676583766937,0.25646594166755676
1772526330752425700,0.10342578125,0.05704110488295555,-0.24226418137550354,0.21195413172245026
1772526330762408700,0.11340869140625,0.054902128875255585,-0.24472320079803467,0.1500115543603897
1772526330772391000,0.123390869140625,0.051461055874824524,-0.208906888961792,0.08239124715328217
1772526330782373600,0.13337353515625,0.04359682649374008,-0.15017415583133698,0.022277215495705605
1772526330792355800,0.14335595703125,0.028682861477136612,-0.09330394119024277,-0.029225654900074005
1772526330802337800,0.153337890625,0.012635891325771809,-0.03938203677535057,-0.06582885980606079
1772526330812320800,0.16332080078125,-0.002214428037405014,-0.005954305175691843,-0.08716423809528351
1772526330822302700,0.173302734375,-0.013381076976656914,0.020809901878237724,-0.0945286825299263
1772526330832284700,0.18328466796875,-0.027054812759160995,0.0160851888358593,-0.08351890742778778
1772526330842267600,0.193267578125,-0.04040025174617767,-0.002365870401263237,-0.07143259048461914
1772526330852249900,0.203249755859375,-0.053835634142160416,-0.03180019184947014,-0.05637108162045479
1772526330862232600,0.213232666015625,-0.06109844520688057,-0.06957707554101944,-0.04759988561272621
1772526330872214800,0.22321484375,-0.06625885516405106,-0.09392555803060532,-0.030174557119607925
1772526330882197800,0.23319775390625,-0.06102919578552246,-0.09519080817699432,-0.02542666345834732
1772526330892179700,0.2431796875,-0.06403882801532745,-0.09001841396093369,-0.013735387474298477
1772526330902162000,0.253161865234375,-0.07023920118808746,-0.08060653507709503,-0.002120543736964464
1772526330912144600,0.26314453125,-0.08192116022109985,-0.08569584041833878,-0.007006912026554346
1772526330922126800,0.273126953125,-0.09472452104091644,-0.10509581863880157,-0.02523476630449295
1772526330932108800,0.28310888671875,-0.09926174581050873,-0.13673363626003265,-0.058473411947488785
1772526330942091800,0.293091796875,-0.10865468531847,-0.1559962034225464,-0.08435052633285522
1772526330952073700,0.30307373046875,-0.12058351933956146,-0.14672307670116425,-0.10206481069326401
1772526330962057000,0.313056884765625,-0.1334933340549469,-0.10925030708312988,-0.1087866872549057
1772526330972038700,0.32303857421875,-0.1369013786315918,-0.0517694316804409,-0.10933210700750351
1772526330982020900,0.333020751953125,-0.13424141705036163,0.009474217891693115,-0.10743646323680878
1772526330992003600,0.343003662109375,-0.12317833304405212,0.042911384254693985,-0.10381096601486206
1772526331001985800,0.35298583984375,-0.10474007576704025,0.06670776009559631,-0.09429262578487396
1772526331011968800,0.36296875,-0.08624309301376343,0.07601843774318695,-0.07886333018541336
1772526331021950700,0.37295068359375,-0.0714740976691246,0.07750163227319717,-0.057131052017211914
1772526331031933000,0.382932861328125,-0.06182253360748291,0.07134999334812164,-0.02136053889989853
1772526331041915600,0.39291552734375,-0.06463412940502167,0.06534624099731445,0.009378014132380486
1772526331051897900,0.40289794921875,-0.067476786673069,0.0586601085960865,0.03147106617689133
1772526331061880800,0.412880859375,-0.06373991817235947,0.04865923896431923,0.038185786455869675
1772526331071862800,0.42286279296875,-0.06506191194057465,0.03207333758473396,0.039394062012434006
1772526331081844700,0.4328447265625,-0.061390046030282974,0.018381569534540176,0.029013412073254585
1772526331091828000,0.442827880859375,-0.05418512970209122,0.021874837577342987,0.02308494783937931
1772526331101809700,0.4528095703125,-0.04767361283302307,0.03724358230829239,0.019410494714975357
1772526331111793000,0.46279296875,-0.04744218289852142,0.049562834203243256,0.017193414270877838
1772526331121774600,0.472774658203125,-0.052610307931900024,0.059603501111269,0.022141840308904648
1772526331131756800,0.4827568359375,-0.06671919673681259,0.05536907538771629,0.02992146648466587
1772526331141739800,0.49273974609375,-0.06416178494691849,0.03194361552596092,0.03572075441479683
1772526331151721700,0.5027216796875,-0.05690440163016319,0.018677078187465668,0.039177004247903824
1772526331161704700,0.51270458984375,-0.04163063317537308,0.014836552552878857,0.04098503291606903
1772526331171687000,0.52268701171875,-0.02406814880669117,0.015479172579944134,0.04814893752336502
1772526331181668900,0.5326689453125,-0.016642456874251366,0.01747068390250206,0.054010819643735886
1772526331191651800,0.54265185546875,-0.013878894969820976,0.014587813057005405,0.06469994783401489
1772526331201633800,0.5526337890625,-0.009639064781367779,-0.0006591607816517353,0.0723138302564621
1772526331211615700,0.56261572265625,0.000334207434207201,-0.006090677808970213,0.07942473888397217
1772526331221599000,0.572598876953125,0.021083243191242218,-0.008635429665446281,0.08985811471939087
1772526331231580700,0.58258056640625,0.05563589558005333,-0.009743304923176765,0.1100187748670578
1772526331241564000,0.59256396484375,0.08702142536640167,-0.00791389774531126,0.15249548852443695
1772526331251545600,0.602545654296875,0.11583070456981659,-0.004505051299929619,0.20512832701206207
1772526331261527800,0.61252783203125,0.13953815400600433,-0.013483377173542976,0.2615569829940796
1772526331271510800,0.6225107421875,0.16302751004695892,-0.03367067128419876,0.30607226490974426
1772526331281492700,0.63249267578125,0.18633194267749786,-0.05055153742432594,0.3467755615711212
1772526331291475700,0.642475830078125,0.21927045285701752,-0.062046539038419724,0.37220582365989685
1772526331301458000,0.6524580078125,0.2493538111448288,-0.06296078115701675,0.4016771614551544
1772526331311440000,0.66243994140625,0.25995075702667236,-0.07133669406175613,0.4212953448295593
1772526331321422800,0.6724228515625,0.25290510058403015,-0.09451529383659363,0.4367315471172333
1772526331331404800,0.68240478515625,0.24016986787319183,-0.10908598452806473,0.43709373474121094
1772526331341387800,0.6923876953125,0.21780750155448914,-0.12730053067207336,0.41553235054016113
1772526331351370000,0.702369873046875,0.19004619121551514,-0.1399872899055481,0.3762403428554535
1772526331361351700,0.7123515625,0.16051606833934784,-0.1366129070520401,0.3281491696834564
1772526331371335000,0.7223349609375,0.13774684071540833,-0.12162064015865326,0.26467645168304443
1772526331381316600,0.732316650390625,0.11346264183521271,-0.10966364294290543,0.1906447410583496
1772526331391299800,0.7422998046875,0.09040818363428116,-0.09507538378238678,0.11315900832414627
1772526331401281800,0.75228173828125,0.07314087450504303,-0.06531012803316116,0.030298655852675438
1772526331411263700,0.762263671875,0.056563492864370346,-0.04031955450773239,-0.040960341691970825
1772526331421246700,0.772246826171875,0.03891579061746597,-0.005086197517812252,-0.09592771530151367
1772526331431229000,0.78222900390625,0.020580992102622986,0.03243614360690117,-0.12297851592302322
1772526331441211600,0.792211669921875,0.00046052318066358566,0.04810241609811783,-0.13569298386573792
1772526331451193900,0.80219384765625,-0.015622839331626892,0.045555636286735535,-0.13427245616912842
1772526331461175800,0.81217578125,-0.024057509377598763,0.04807224124670029,-0.1158093810081482
1772526331471158800,0.82215869140625,-0.04198377951979637,0.056356802582740784,-0.08902250975370407
1772526331481140700,0.832140625,-0.050286728888750076,0.05145709961652756,-0.06297973543405533
1772526331491123700,0.842123779296875,-0.06030074506998062,0.04400184378027916,-0.04215594753623009
1772526331501105700,0.852105712890625,-0.051482364535331726,0.030935019254684448,-0.02336101420223713
1772526331511087600,0.862087646484375,-0.033114541321992874,0.01530040055513382,-0.006481900345534086
1772526331521070600,0.872070556640625,-0.022150879725813866,0.005011467263102531,0.011886690743267536
1772526331531052800,0.882052734375,-0.01478138193488121,0.0037869459483772516,0.024021118879318237
1772526331541034800,0.89203466796875,-0.010783933103084564,-0.0054312353022396564,0.03252862021327019
1772526331551017700,0.902017822265625,-0.011372225359082222,-0.00976606272161007,0.031606100499629974
1772526331561000000,0.912,-0.013948479667305946,-0.018375886604189873,0.028093300759792328
1772526331570982700,0.921982666015625,-0.014427317306399345,-0.032646700739860535,0.01420864462852478
1772526331580964900,0.93196484375,-0.01267356239259243,-0.040935393422842026,-0.0031510144472122192
1772526331590946600,0.941946533203125,-0.010658081620931625,-0.03561093658208847,-0.019125185906887054
1772526331600929800,0.9519296875,-0.011717619374394417,-0.028554366901516914,-0.039001092314720154
1772526331610911700,0.961911865234375,-0.010564737021923065,-0.01588437892496586,-0.05085216462612152
1772526331620894700,0.971894775390625,-0.01863359473645687,0.007531175389885902,-0.05272581800818443
1772526331630876700,0.981876708984375,-0.025086967274546623,0.03116113878786564,-0.04645780473947525
1772526331640859000,0.99185888671875,-0.02260703220963478,0.03410472720861435,-0.046841297298669815
1772526331650841600,1.001841552734375,-0.010753418318927288,0.03416895121335983,-0.045351725071668625
1772526331660823800,1.01182373046875,0.00040789972990751266,0.04376567155122757,-0.03825386241078377
1772526331670806800,1.021806884765625,0.013310914859175682,0.04838359355926514,-0.03392036631703377
1772526331680789000,1.0317890625,0.01831154152750969,0.039266545325517654,-0.022333743050694466
1772526331690771000,1.04177099609375,0.021551277488470078,0.028510836884379387,-0.008184102363884449
1772526331700754000,1.05175390625,0.01964515633881092,0.009458390064537525,-0.001521856989711523
1772526331710736100,1.061736083984375,0.010364307090640068,-0.008551502600312233,-0.0072282119654119015
1772526331720718800,1.07171875,0.011431875638663769,-0.019540155306458473,-0.02032928168773651
1772526331730701000,1.081701171875,0.006407289765775204,-0.016015462577342987,-0.029607200995087624
1772526331740682800,1.091682861328125,-0.0017510377801954746,-0.002842934336513281,-0.0389743372797966
1772526331750666000,1.101666015625,-0.011113381013274193,0.009223315864801407,-0.047908976674079895
1772526331760648000,1.11164794921875,-0.019615348428487778,0.020252348855137825,-0.05929657071828842
1772526331770630000,1.1216298828125,-0.027729999274015427,0.02876301296055317,-0.07586701959371567
1772526331780612900,1.13161279296875,-0.03590739145874977,0.030192280188202858,-0.08430717885494232
1772526331790595000,1.141594970703125,-0.03540431708097458,0.032927609980106354,-0.09728902578353882
1772526331800577800,1.151577880859375,-0.03336640074849129,0.03492965176701546,-0.0904402807354927
1772526331810560000,1.16156005859375,-0.0318119153380394,0.03615417331457138,-0.07582858204841614
1772526331820542000,1.1715419921875,-0.03100082091987133,0.02948567271232605,-0.04888317361474037
1772526331830525000,1.18152490234375,-0.03188738971948624,0.023141223937273026,-0.016772910952568054
1772526331840507100,1.191507080078125,-0.03150373324751854,0.013129385188221931,0.01570042036473751
1772526331850489900,1.20148974609375,-0.028181172907352448,0.002075668890029192,0.04417174309492111
1772526331860472000,1.21147216796875,-0.02205641008913517,-0.01259216945618391,0.06471139192581177
1772526331870453800,1.221453857421875,-0.018044892698526382,-0.017216216772794724,0.07391873747110367
1772526331880437000,1.23143701171875,-0.0070764836855232716,-0.01115663442760706,0.08034450560808182
1772526331890419000,1.2414189453125,-0.0013142023235559464,-0.0052537377923727036,0.07845472544431686
1772526331900402000,1.25140185546875,-0.0005049738101661205,-0.004012387245893478,0.07633225619792938
1772526331910383900,1.2613837890625,-0.0013220319524407387,0.005122787319123745,0.07645982503890991
1772526331920366000,1.271365966796875,-0.008965730667114258,0.022851133719086647,0.07209323346614838
1772526331930348800,1.281348876953125,-0.008350539952516556,0.038134749978780746,0.06964179128408432
1772526331940331000,1.2913310546875,-0.007887391373515129,0.058869101107120514,0.05915827676653862
1772526331950314000,1.30131396484375,-0.002587967785075307,0.07417188584804535,0.042936161160469055
1772526331960296000,1.3112958984375,0.003314870409667492,0.07437283545732498,0.024960583075881004
1772526331970278100,1.321278076171875,0.008180465549230576,0.07134135812520981,0.009297733195126057
1772526331980260900,1.3312607421875,0.0033117858693003654,0.0636565089225769,0.00036275340244174004
1772526331990243000,1.3412431640625,-0.00025684991851449013,0.04375310614705086,-0.0015366128645837307
1772526332000224800,1.351224853515625,-0.001443810760974884,0.019228875637054443,0.001826699823141098
1772526332010208000,1.3612080078125,-0.000028606969863176346,0.00690323393791914,0.010274512693285942
1772526332020190000,1.37118994140625,0.004988168366253376,-0.005541092716157436,0.019888881593942642
1772526332030173000,1.3811728515625,0.006452107802033424,-0.026675673201680183,0.027678627520799637
1772526332040155000,1.39115478515625,0.012353479862213135,-0.03122207708656788,0.02070903405547142
1772526332050137000,1.40113720703125,0.011228825896978378,-0.012375153601169586,0.013674827292561531
1772526332060119800,1.411119873046875,0.011849455535411835,0.004380880855023861,-0.008088331669569016
1772526332070102000,1.42110205078125,0.011738134548068047,0.004328683018684387,-0.03409303352236748
1772526332080085000,1.4310849609375,0.011893639340996742,0.007761447690427303,-0.05966845154762268
1772526332090067000,1.44106689453125,0.012382062152028084,0.021698568016290665,-0.07713586091995239
1772526332100049000,1.451048828125,0.006961541716009378,0.019892297685146332,-0.08772335946559906
1772526332110032000,1.461031982421875,0.002585169393569231,0.006150386296212673,-0.09503106772899628
1772526332120014000,1.47101416015625,0.005144220311194658,-0.005238844081759453,-0.09210104495286942
1772526332129997000,1.4809970703125,0.006216940935701132,-0.00832065474241972,-0.0762467160820961
1772526332139979000,1.49097900390625,0.005718572065234184,-0.024654004722833633,-0.0611686110496521
1772526332149961000,1.5009609375,0.010665393434464931,-0.03869498893618584,-0.04496647045016289
1772526332159944000,1.51094384765625,0.02243242971599102,-0.04690633341670036,-0.03195938467979431
1772526332169926000,1.52092578125,0.03222434222698212,-0.04611483961343765,-0.01984359696507454
1772526332179908000,1.530908203125,0.034663014113903046,-0.04099408537149429,-0.018527334555983543
1772526332189890800,1.540890869140625,0.03602442145347595,-0.032595276832580566,-0.02139982022345066
1772526332199873000,1.550873046875,0.0402875691652298,-0.011361964046955109,-0.026192327961325645
1772526332209856000,1.56085595703125,0.039009250700473785,-0.0011854933109134436,-0.03423001617193222
1772526332219838000,1.570837890625,0.0340663380920887,0.008608372882008553,-0.045331574976444244
1772526332229820000,1.58081982421875,0.03382372483611107,0.023730600252747536,-0.04729539155960083
1772526332239803000,1.590802978515625,0.033285561949014664,0.030089285224676132,-0.04905238747596741
1772526332249784800,1.600784912109375,0.03814609721302986,0.024947520345449448,-0.043875470757484436
1772526332259768000,1.61076806640625,0.04282618686556816,0.017097026109695435,-0.029391400516033173
1772526332269749800,1.620749755859375,0.04704942926764488,0.01108280848711729,-0.012138912454247475
1772526332279732000,1.63073193359375,0.04681049659848213,0.005376887042075396,0.00367783778347075
1772526332289715000,1.64071484375,0.04259231686592102,0.007720202207565308,0.009885665960609913
1772526332299697000,1.65069677734375,0.037291377782821655,0.014408624731004238,0.009947359561920166
1772526332309679900,1.660679931640625,0.02793196588754654,0.007496124133467674,-0.005678738001734018
1772526332319661800,1.670661865234375,0.016838878393173218,-0.009534420445561409,-0.03100217506289482
1772526332329644000,1.68064404296875,0.009493079967796803,-0.02435358054935932,-0.053604159504175186
1772526332339627000,1.690626953125,0.007990534417331219,-0.026799941435456276,-0.06510687619447708
1772526332349609000,1.70060888671875,0.008383084088563919,-0.019649621099233627,-0.06478756666183472
1772526332359592000,1.710592041015625,0.014884121716022491,0.00522322952747345,-0.05465424060821533
1772526332369574000,1.720573974609375,0.025195881724357605,0.014080369845032692,-0.04515314847230911
1772526332379555800,1.730555908203125,0.031582679599523544,0.02269357442855835,-0.02743566408753395
1772526332389539000,1.7405390625,0.034724410623311996,0.025923456996679306,-0.010752025991678238
1772526332399520800,1.750520751953125,0.037910327315330505,0.03003665991127491,0.0015674741007387638
1772526332409503000,1.7605029296875,0.040072545409202576,0.025253089144825935,0.002647652290761471
1772526332419486000,1.77048583984375,0.041244883090257645,0.013159973546862602,0.00459603127092123
1772526332429468000,1.780468017578125,0.04368460550904274,0.0009025076869875193,0.00534517876803875
1772526332439451000,1.790450927734375,0.04888124763965607,-0.019325770437717438,0.004206421785056591
1772526332449432800,1.800432861328125,0.044720858335494995,-0.03553616628050804,0.008736459538340569
1772526332459415000,1.8104150390625,0.04181709885597229,-0.03873883932828903,0.011285175569355488
1772526332469398000,1.82039794921875,0.03689451143145561,-0.032260701060295105,0.018083427101373672
1772526332479380000,1.8303798828125,0.0363304540514946,-0.019682858139276505,0.02215992845594883
1772526332489363000,1.840363037109375,0.03507876768708229,-0.010547148995101452,0.023090703412890434
1772526332499345000,1.850344970703125,0.041009385138750076,-0.004060706123709679,0.023155435919761658
1772526332509326800,1.860326904296875,0.044791873544454575,-0.008326823823153973,0.018207814544439316
1772526332519310000,1.87031005859375,0.047309257090091705,-0.010088706389069557,0.009147020988166332
1772526332529291800,1.880291748046875,0.05099267512559891,-0.015563366934657097,0.007645531091839075
1772526332539275000,1.89027490234375,0.04553115367889404,-0.023553207516670227,0.011632991954684258
1772526332549257000,1.900257080078125,0.03822903335094452,-0.0294630266726017,0.024261966347694397
1772526332559239000,1.910239013671875,0.027750324457883835,-0.028902381658554077,0.03511357307434082
1772526332569222000,1.920221923828125,0.022854367271065712,-0.03391231968998909,0.04340559244155884
1772526332579203800,1.930203857421875,0.0201517716050148,-0.03322925418615341,0.047850657254457474
1772526332589186000,1.94018603515625,0.02080291509628296,-0.02977193519473076,0.04714571684598923
1772526332599169000,1.9501689453125,0.022923672571778297,-0.025856392458081245,0.04487394541501999
1772526332609151000,1.96015087890625,0.021161990240216255,-0.0239703431725502,0.0401361882686615
1772526332619134000,1.970134033203125,0.018489861860871315,-0.01955624483525753,0.03244541957974434
1772526332629116200,1.9801162109375,0.01124446652829647,-0.01510583609342575,0.031145529821515083
1772526332639097900,1.990097900390625,0.002140266355127096,-0.011492827907204628,0.030668731778860092
1772526332649081000,2.0000810546875,-0.0037604994140565395,-0.015040690079331398,0.03180589899420738
1772526332659062800,2.010062744140625,-0.009663826785981655,-0.02381880022585392,0.036323875188827515
1772526332669046000,2.0200458984375,-0.013861501589417458,-0.03512018918991089,0.03883896395564079
1772526332679028000,2.030028076171875,-0.013070905581116676,-0.03546978905797005,0.03789868578314781
1772526332689010200,2.04001025390625,-0.015186786651611328,-0.03908343240618706,0.03819109871983528
1772526332698993200,2.0499931640625,-0.01445048674941063,-0.01956152729690075,0.030713584274053574
1772526332708975000,2.05997509765625,-0.023157691583037376,-0.005302696488797665,0.023402675986289978
1772526332718958000,2.0699580078125,-0.02892603538930416,0.0019561462104320526,0.019008083269000053
1772526332728940300,2.079940185546875,-0.035386599600315094,0.004539678804576397,0.00966518186032772
1772526332738922200,2.089922119140625,-0.04031531140208244,0.004973507486283779,0.006208665203303099
1772526332748905200,2.0999052734375,-0.03969266265630722,-0.0005301812198013067,0.0012349453754723072
1772526332758887200,2.10988720703125,-0.02793818712234497,-0.008520033210515976,0.00852152705192566
1772526332768869000,2.119869140625,-0.012593318708240986,0.00033071660436689854,0.020389903336763382
1772526332778852400,2.129852294921875,-0.0004903022199869156,0.0229449775069952,0.035183507949113846
1772526332788834000,2.139833984375,0.009674184955656528,0.04021424800157547,0.038918592035770416
1772526332798817300,2.1498173828125,0.022415880113840103,0.05138154700398445,0.03363584354519844
1772526332808799200,2.15979931640625,0.033010199666023254,0.05648496374487877,0.026210149750113487
1772526332818781200,2.16978125,0.03190711885690689,0.05447001755237579,0.015796924009919167
1772526332828764200,2.17976416015625,0.03227490186691284,0.05890178307890892,0.0016438202001154423
1772526332838746000,2.18974609375,0.025774750858545303,0.06701502203941345,-0.006547883618623018
1772526332848729000,2.19972900390625,0.02924644574522972,0.07313390076160431,-0.019081251695752144
1772526332858711300,2.209711181640625,0.037413112819194794,0.06598427891731262,-0.03229887783527374
1772526332868693000,2.21969287109375,0.04243423789739609,0.05946032702922821,-0.04518298804759979
1772526332878676200,2.22967626953125,0.048446059226989746,0.04484356939792633,-0.06171775609254837
1772526332888658200,2.239658203125,0.05568452924489975,0.025607822462916374,-0.07778088003396988
1772526332898641200,2.24964111328125,0.07001268118619919,-0.0010239037219434977,-0.09622389078140259
1772526332908623000,2.259623046875,0.08020992577075958,-0.01995897851884365,-0.1042189747095108
1772526332918605000,2.26960498046875,0.08911527693271637,-0.04025224223732948,-0.09984499216079712
1772526332928588000,2.279588134765625,0.09431377053260803,-0.055376600474119186,-0.08049659430980682
1772526332938570200,2.2895703125,0.09315354377031326,-0.06479118764400482,-0.05218593031167984
1772526332948552200,2.29955224609375,0.08455952256917953,-0.06928367167711258,-0.016671879217028618
1772526332958535200,2.30953515625,0.07874806970357895,-0.06944618374109268,0.0049374643713235855
1772526332968517400,2.319517333984375,0.07613816857337952,-0.06767917424440384,0.011891243979334831
1772526332978500000,2.3295,0.07332631200551987,-0.05721394717693329,0.008585011586546898
1772526332988482300,2.339482421875,0.07188154757022858,-0.04508191719651222,-0.003108662087470293
1772526332998464000,2.349464111328125,0.06294450163841248,-0.03601493686437607,-0.021425094455480576
1772526333008447200,2.359447265625,0.05292116105556488,-0.024255216121673584,-0.033264707773923874
1772526333018429200,2.36942919921875,0.037630271166563034,-0.011186186224222183,-0.04521235451102257
1772526333028412200,2.379412109375,0.021509094163775444,0.0025458713062107563,-0.04865848273038864
1772526333038394000,2.38939404296875,0.006864016875624657,0.01385481096804142,-0.05292797461152077
1772526333048376000,2.3993759765625,-0.006272024940699339,0.01927274465560913,-0.05168401077389717
1772526333058359000,2.409359130859375,-0.019123297184705734,0.010351044125854969,-0.05468309298157692
1772526333068341200,2.41934130859375,-0.028406811878085136,-0.005618601106107235,-0.053809843957424164
1772526333078323200,2.4293232421875,-0.03465494140982628,-0.01429455541074276,-0.044698815792798996
1772526333088306200,2.43930615234375,-0.04098207876086235,-0.009111776947975159,-0.03396281227469444
1772526333098288400,2.449288330078125,-0.04586472734808922,-0.005230773240327835,-0.021183639764785767
1772526333108271000,2.45927099609375,-0.053052596747875214,-0.0074220215901732445,-0.01903766766190529
1772526333118253300,2.46925341796875,-0.057327136397361755,-0.004269699566066265,-0.022222619503736496
1772526333128235000,2.479235107421875,-0.06054183840751648,-0.001627578167244792,-0.024215994402766228
1772526333138218200,2.48921826171875,-0.057198770344257355,0.00758456252515316,-0.025578467175364494
1772526333148200200,2.4992001953125,-0.056485846638679504,0.00758536159992218,-0.023836761713027954
1772526333158183200,2.50918310546875,-0.05906157195568085,0.011164814233779907,-0.019998442381620407
1772526333168165000,2.5191650390625,-0.05412859842181206,0.012783483602106571,-0.019993379712104797
1772526333178147000,2.52914697265625,-0.050636496394872665,0.016223816201090813,-0.02288229763507843
1772526333188130000,2.539130126953125,-0.04358604550361633,0.007279323413968086,-0.02473905310034752
1772526333198112300,2.5491123046875,-0.03689751401543617,-0.00394856370985508,-0.020266007632017136
1772526333208095000,2.559094970703125,-0.023995833471417427,-0.010197937488555908,-0.008137973956763744
1772526333218077200,2.5690771484375,-0.0121877146884799,-0.010391958057880402,0.010662978515028954
1772526333228059400,2.579059326171875,-0.003977987915277481,-0.011221533641219139,0.02815595082938671
1772526333238042000,2.5890419921875,0.004657059907913208,-0.007155657280236483,0.04370163381099701
1772526333248024300,2.5990244140625,0.008025692775845528,-0.01007314957678318,0.04842661693692207
1772526333258006000,2.609006103515625,0.012898173183202744,-0.006501400843262672,0.04514290764927864
1772526333267989200,2.6189892578125,0.010396398603916168,0.0068540857173502445,0.03695182502269745
1772526333277971200,2.62897119140625,0.0099630206823349,0.006571095436811447,0.024999648332595825
1772526333287954200,2.6389541015625,0.009417605586349964,0.009441450238227844,0.01329452358186245
1772526333297936100,2.64893603515625,0.013818217441439629,0.008936259895563126,0.006572442594915628
1772526333307918000,2.65891796875,0.010119354352355003,0.008880067616701126,0.0012322720140218735
1772526333317901000,2.668901123046875,0.0082588791847229,0.0031516291201114655,-0.0021613873541355133
1772526333327883300,2.67888330078125,0.0022827456705272198,-0.001996794017031789,-0.007368932478129864
1772526333337866200,2.6888662109375,-0.007801356725394726,-0.00027196318842470646,-0.020381541922688484
1772526333347848200,2.69884814453125,-0.015909884124994278,-0.009223912842571735,-0.03648620843887329
1772526333357830400,2.708830322265625,-0.020761782303452492,-0.025629542768001556,-0.0540664941072464
1772526333367813000,2.718813232421875,-0.022240368649363518,-0.031468525528907776,-0.06817219406366348
1772526333377795300,2.72879541015625,-0.01997442916035652,-0.036871567368507385,-0.07377661764621735
1772526333387778300,2.7387783203125,-0.018811160698533058,-0.03613147512078285,-0.07575161755084991
1772526333397760300,2.74876025390625,-0.015271136537194252,-0.03616553172469139,-0.07668205350637436
1772526333407742200,2.7587421875,-0.017280491068959236,-0.03422674909234047,-0.0770311951637268
1772526333417725200,2.76872509765625,-0.021957792341709137,-0.04423648491501808,-0.0798349678516388
1772526333427707100,2.77870703125,-0.033980365842580795,-0.05205685645341873,-0.0817127674818039
1772526333437689300,2.788689453125,-0.040487609803676605,-0.055168118327856064,-0.08653644472360611
1772526333447672000,2.798672119140625,-0.04371828958392143,-0.051318250596523285,-0.08669783174991608
1772526333457654300,2.808654296875,-0.0414559580385685,-0.04374213144183159,-0.08182746171951294
1772526333467637200,2.81863720703125,-0.03639674931764603,-0.029220180585980415,-0.07090689986944199
1772526333477619200,2.828619140625,-0.02941945195198059,-0.015118313953280449,-0.06119044870138168
1772526333487601400,2.838601318359375,-0.025664128363132477,-0.005422809161245823,-0.05166086554527283
1772526333497584000,2.848584228515625,-0.021709412336349487,0.0020634508691728115,-0.034861814230680466
1772526333507566300,2.85856640625,-0.020788222551345825,0.014418121427297592,-0.01911107823252678
1772526333517549300,2.86854931640625,-0.017157599329948425,0.02395584061741829,0.0032286900095641613
1772526333527531300,2.87853125,-0.016983427107334137,0.026868006214499474,0.01780709996819496
1772526333537513200,2.88851318359375,-0.013627046719193459,0.021098002791404724,0.028478385880589485
1772526333547496200,2.89849609375,-0.010401464998722076,0.012282592244446278,0.03492293879389763
1772526333557478100,2.90847802734375,-0.010840866714715958,-0.004280628636479378,0.03246539086103439
1772526333567461400,2.91846142578125,-0.012547953054308891,-0.017198290675878525,0.026092978194355965
1772526333577443000,2.928443115234375,-0.015332574024796486,-0.019408758729696274,0.018913613632321358
1772526333587425300,2.93842529296875,-0.018651138991117477,-0.01363848615437746,0.007428465876728296
1772526333597408300,2.948408203125,-0.026086516678333282,-0.00009837420657277107,-0.0003777076490223408
1772526333607390200,2.95839013671875,-0.03237424045801163,0.011864544823765755,-0.009961891919374466
1772526333617372200,2.9683720703125,-0.03997000679373741,0.008760573342442513,-0.019070781767368317
1772526333627355100,2.978355224609375,-0.04111303389072418,-0.0005157494451850653,-0.022985894232988358
1772526333637337000,2.988337158203125,-0.045956145972013474,-0.00537446141242981,-0.024674411863088608
1772526333647320300,2.9983203125,-0.04655322805047035,-0.012344220653176308,-0.02504059672355652
1772526333657302000,3.008302001953125,-0.04509807378053665,-0.022990472614765167,-0.02197476476430893
1772526333667284200,3.0182841796875,-0.047636598348617554,-0.02668294496834278,-0.022981705144047737
1772526333677267200,3.02826708984375,-0.04668387025594711,-0.0287711750715971,-0.012364429421722889
1772526333687249400,3.03824951171875,-0.043695803731679916,-0.024584686383605003,-0.0104434909299016
1772526333697232100,3.048232177734375,-0.050273582339286804,-0.02117137797176838,-0.006007082294672728
1772526333707214300,3.05821435546875,-0.054074980318546295,-0.014519602991640568,-0.011250846087932587
1772526333717196300,3.0681962890625,-0.058212313801050186,-0.020990248769521713,-0.028369572013616562
1772526333727179300,3.07817919921875,-0.05588098242878914,-0.0288444422185421,-0.044087283313274384
1772526333737161500,3.088161376953125,-0.057834576815366745,-0.02918512001633644,-0.06063517928123474
1772526333747143200,3.09814306640625,-0.054643042385578156,-0.02466999553143978,-0.06603474169969559
1772526333757126400,3.10812646484375,-0.05331271514296532,-0.02553083375096321,-0.0661887601017952
1772526333767108000,3.118108154296875,-0.052397653460502625,-0.01915575936436653,-0.06248510256409645
1772526333777091300,3.12809130859375,-0.04854501411318779,-0.021720964461565018,-0.053616855293512344
1772526333787073300,3.1380732421875,-0.04789680242538452,-0.03353714197874069,-0.047055091708898544
1772526333797055200,3.14805517578125,-0.047459594905376434,-0.03701487556099892,-0.03411417081952095
1772526333807038200,3.1580380859375,-0.04495782405138016,-0.03924686834216118,-0.014835014939308167
1772526333817020400,3.1680205078125,-0.0424921028316021,-0.033590253442525864,-0.0023883855901658535
1772526333827003100,3.178003173828125,-0.03904970362782478,-0.01202370971441269,0.010546853765845299
1772526333836985300,3.1879853515625,-0.03634766861796379,0.004062560386955738,0.016000203788280487
1772526333846967300,3.19796728515625,-0.028665250167250633,0.010358805768191814,0.011399059556424618
1772526333856950300,3.2079501953125,-0.017577623948454857,0.028461549431085587,0.009071100503206253
1772526333866932500,3.217932373046875,-0.010484294034540653,0.04575452208518982,0.009496141225099564
1772526333876915200,3.227915283203125,-0.008997118100523949,0.054632291197776794,0.0158466137945652
1772526333886897400,3.2378974609375,-0.006568847689777613,0.048612214624881744,0.021277865394949913
1772526333896879000,3.247879150390625,-0.01199057325720787,0.04249322786927223,0.02585700899362564
1772526333906862300,3.2578623046875,-0.015363732352852821,0.028745189309120178,0.034602828323841095
1772526333916844300,3.26784423828125,-0.014850812032818794,0.024259349331259727,0.04246074706315994
1772526333926826200,3.277826171875,-0.01022516842931509,0.018165770918130875,0.043745722621679306
1772526333936809200,3.287809326171875,-0.005251356400549412,0.013351758942008018,0.040103230625391006
1772526333946791400,3.29779150390625,-0.0005703181959688663,0.01125744916498661,0.027998367324471474
1772526333956774100,3.307774169921875,0.0070565491914749146,0.007955080829560757,0.017627673223614693
1772526333966756400,3.31775634765625,0.004056763835251331,0.008103151805698872,0.0035230398643761873
1772526333976738300,3.32773828125,-0.002048988128080964,0.0042321342043578625,-0.007800284773111343
1772526333986721300,3.33772119140625,-0.017894797027111053,-0.004810363054275513,-0.016959961503744125
1772526333996703500,3.347703369140625,-0.02017161436378956,-0.013130508363246918,-0.024843093007802963
1772526334006686200,3.357686279296875,-0.020081067457795143,-0.01722857914865017,-0.026353903114795685
1772526334016668400,3.36766845703125,-0.013199192471802235,-0.019136201590299606,-0.029183778911828995
1772526334026650400,3.377650390625,0.00044817617163062096,-0.009822062216699123,-0.026460960507392883
1772526334036633300,3.38763330078125,0.016535449773073196,-0.005820561200380325,-0.021353457123041153
1772526334046615300,3.397615234375,0.02762804925441742,0.0018565338104963303,-0.015307550318539143
1772526334056597200,3.40759716796875,0.031489789485931396,0.006701139733195305,-0.009544391185045242
1772526334066580200,3.417580322265625,0.03422645479440689,0.0046869907528162,-0.006016236264258623
1772526334076562400,3.4275625,0.0318143330514431,0.0007301352452486753,-0.0001446809619665146
1772526334086545200,3.437545166015625,0.02862386777997017,-0.0021436819806694984,0.0074999225325882435
1772526334096527400,3.44752734375,0.029503609985113144,-0.004732065834105015,0.013415254652500153
1772526334106509300,3.45750927734375,0.030183516442775726,-0.005413835868239403,0.02097463794052601
1772526334116492300,3.4674921875,0.031296566128730774,-0.0067095039412379265,0.02194235846400261
1772526334126474500,3.477474609375,0.03368302434682846,-0.0040809642523527145,0.021019574254751205
1772526334136457200,3.487457275390625,0.030780788511037827,-0.003145230934023857,0.01373946201056242
1772526334146439400,3.497439453125,0.02658604457974434,-0.001528425607830286,0.011322377249598503
1772526334156421400,3.50742138671875,0.02366572991013527,0.0008337432518601418,0.0036092556547373533
1772526334166404400,3.517404296875,0.019542358815670013,0.00014611496590077877,0.00326703954488039
1772526334176386300,3.52738623046875,0.013331439346075058,-0.0052892062813043594,0.00960194319486618
1772526334186368300,3.5373681640625,0.01069570891559124,-0.006005596369504929,0.011583601124584675
1772526334196351200,3.547351318359375,0.005445771384984255,-0.013547742739319801,0.014137418009340763
1772526334206333400,3.55733349609375,0.005134714301675558,-0.019956640899181366,0.012920619919896126
1772526334216316200,3.567316162109375,0.005329637788236141,-0.022342346608638763,0.012802096083760262
1772526334226298400,3.57729833984375,0.005102470517158508,-0.02111995592713356,0.013801314868032932
1772526334236280300,3.5872802734375,0.0013611754402518272,-0.001501686405390501,0.01512579433619976
1772526334246263300,3.59726318359375,0.0010277475230395794,0.010394387878477573,0.01242055557668209
1772526334256245200,3.607245361328125,0.0006669806316494942,0.02266002632677555,0.013721156865358353
1772526334266228200,3.617228271484375,0.0011506108567118645,0.03082980588078499,0.01533343456685543
1772526334276210400,3.62721044921875,0.006622095592319965,0.024725086987018585,0.01129769254475832
1772526334286192400,3.6371923828125,0.011858669109642506,0.009403655305504799,0.009127216413617134
1772526334296175400,3.64717529296875,0.01686479151248932,-0.001750369556248188,0.016017701476812363
1772526334306157300,3.6571572265625,0.022081924602389336,-0.008866868913173676,0.02172831818461418
1772526334316140300,3.667140380859375,0.020714033395051956,-0.0037244888953864574,0.029293648898601532
1772526334326122200,3.677122314453125,0.021054916083812714,0.009440581314265728,0.03294004872441292
1772526334336104400,3.6871044921875,0.016958989202976227,0.008402245119214058,0.03218585252761841
1772526334346087200,3.697087158203125,0.015437526628375053,-0.0005981745198369026,0.016206618398427963
1772526334356069400,3.7070693359375,0.01575230248272419,-0.006485112011432648,0.0012087528593838215
1772526334366051000,3.717051025390625,0.01737283542752266,-0.010538975708186626,-0.008419107645750046
1772526334376034300,3.727034423828125,0.016195088624954224,-0.01251816563308239,-0.011555161327123642
1772526334386016300,3.737016357421875,0.018290730193257332,-0.007370274979621172,-0.0020482102409005165
1772526334395999500,3.74699951171875,0.017214860767126083,0.0031876354478299618,0.01131169218569994
1772526334405981200,3.756981201171875,0.024754801765084267,0.011986453086137772,0.02693352848291397
1772526334415963400,3.76696337890625,0.027598734945058823,0.012380771338939667,0.03741583600640297
1772526334425946000,3.776946044921875,0.030570022761821747,0.009279252961277962,0.04211870953440666
1772526334435928300,3.78692822265625,0.036901798099279404,0.010506398975849152,0.04814750328660011
1772526334445910300,3.79691015625,0.04223771020770073,0.011060869321227074,0.05250736325979233
1772526334455893200,3.806893310546875,0.04332897439599037,0.013595737516880035,0.055712826550006866
1772526334465875500,3.81687548828125,0.039257802069187164,0.01670204848051071,0.058767471462488174
1772526334475858200,3.826858154296875,0.030737198889255524,0.017268329858779907,0.057977139949798584
1772526334485840400,3.83684033203125,0.020750343799591064,0.01871442422270775,0.05686367303133011
1772526334495822300,3.846822265625,0.017805498093366623,0.018251454457640648,0.05429362505674362
1772526334505805300,3.856805419921875,0.015335414558649063,0.009558629244565964,0.053038209676742554
1772526334515787300,3.866787353515625,0.01979355327785015,0.017248518764972687,0.05032631382346153
1772526334525770500,3.8767705078125,0.021560825407505035,0.020000629127025604,0.04428892955183983
1772526334535752200,3.886752197265625,0.02000729739665985,0.02376212552189827,0.039107292890548706
1772526334545734400,3.896734375,0.013044728897511959,0.015666646882891655,0.030183574184775352
1772526334555717000,3.906717041015625,0.007508758455514908,-0.006573251914232969,0.020237307995557785
1772526334565699300,3.91669921875,0.0024388981983065605,-0.026979723945260048,0.010379884392023087
1772526334575681300,3.926681396484375,0.004944211803376675,-0.04063599184155464,0.0017159921117126942
1772526334585664300,3.936664306640625,0.0001467932015657425,-0.0311889611184597,-0.001931473147124052
1772526334595646500,3.946646484375,-0.0006900737062096596,-0.016811562702059746,-0.008707272820174694
1772526334605629200,3.956629150390625,-0.0024288517888635397,-0.00037240167148411274,-0.021664883941411972
1772526334615611400,3.966611328125,-0.0021281761582940817,0.01354635413736105,-0.03138755261898041
1772526334625593300,3.97659326171875,-0.00955706462264061,0.01653255708515644,-0.04642801731824875
1772526334635576300,3.986576416015625,-0.012427162379026413,0.005272955168038607,-0.06215825304389
1772526334645558300,3.996558349609375,-0.013543292880058289,-0.00009997212328016758,-0.07540693879127502
1772526334655541500,4.00654150390625,-0.016667310148477554,-0.002886959118768573,-0.08700266480445862
1772526334665523200,4.016523193359375,-0.013995095156133175,-0.00359189766459167,-0.09244590252637863
1772526334675505400,4.02650537109375,-0.004072554875165224,-0.001373217673972249,-0.10100550949573517
1772526334685488400,4.03648828125,0.010622235015034676,-0.0013146281708031893,-0.09516119956970215
1772526334695470300,4.04647021484375,0.032716549932956696,-0.001913969637826085,-0.08291882276535034
1772526334705452500,4.05645263671875,0.055106811225414276,0.006074714474380016,-0.06839527189731598
1772526334715435500,4.066435546875,0.07640994340181351,0.02948652021586895,-0.050713226199150085
1772526334725417500,4.07641748046875,0.09937065839767456,0.04866527393460274,-0.04307740926742554
1772526334735400400,4.086400390625,0.11748842149972916,0.06579875200986862,-0.03717583417892456
1772526334745382400,4.09638232421875,0.12623077630996704,0.09167429804801941,-0.028703251853585243
1772526334755364400,4.1063642578125,0.125471293926239,0.12114410102367401,-0.018364977091550827
1772526334765347600,4.11634765625,0.11793401837348938,0.12948565185070038,-0.005542122293263674
1772526334775329300,4.126329345703125,0.11874566972255707,0.12256687879562378,0.005857899319380522
1772526334785312500,4.1363125,0.12141549587249756,0.09197860956192017,0.01681787148118019
1772526334795294200,4.146294189453125,0.12429022043943405,0.056778259575366974,0.025138581171631813
1772526334805276400,4.1562763671875,0.1160794273018837,0.016474511474370956,0.031294744461774826
1772526334815259400,4.16625927734375,0.11094430834054947,-0.010076173581182957,0.03293204307556152
1772526334825241300,4.176241455078125,0.10490185767412186,-0.02877955138683319,0.02985609509050846
1772526334835223600,4.1862236328125,0.09639482200145721,-0.041366398334503174,0.023045940324664116
1772526334845206500,4.19620654296875,0.08521780371665955,-0.043662041425704956,0.010424688458442688
1772526334855188500,4.2061884765625,0.0727052316069603,-0.031094791367650032,-0.003035447094589472
1772526334865171500,4.21617138671875,0.06254393607378006,-0.019324416294693947,-0.017119575291872025
1772526334875153400,4.2261533203125,0.051999595016241074,-0.0031544207595288754,-0.037238605320453644
1772526334885135400,4.23613525390625,0.03682223707437515,0.005576486699283123,-0.05508657917380333
1772526334895118600,4.24611865234375,0.01876290887594223,-0.0024447585456073284,-0.06935081630945206
1772526334905100300,4.256100341796875,0.0038558649830520153,-0.015155227854847908,-0.07742498815059662
1772526334915083500,4.26608349609375,-0.005080997012555599,-0.02321493625640869,-0.07232494652271271
1772526334925065200,4.276065185546875,-0.014035344123840332,-0.03464282676577568,-0.06279322504997253
1772526334935047400,4.28604736328125,-0.02061265893280506,-0.0460248664021492,-0.0451853945851326
1772526334945030400,4.296030517578125,-0.025190100073814392,-0.05431182682514191,-0.0367724671959877
1772526334955012400,4.306012451171875,-0.027178963646292686,-0.04911470413208008,-0.02072932943701744
1772526334964994300,4.315994384765625,-0.02948073297739029,-0.05181754752993584,-0.0159100741147995
1772526334974977500,4.3259775390625,-0.030467581003904343,-0.05207508057355881,-0.017384734004735947
1772526334984959500,4.33595947265625,-0.03159942477941513,-0.04542223736643791,-0.018634822219610214
1772526334994942500,4.3459423828125,-0.03144480660557747,-0.03835497424006462,-0.019253665581345558
1772526335004924400,4.35592431640625,-0.028931844979524612,-0.022300107404589653,-0.022714443504810333
1772526335014906400,4.36590625,-0.02638079598546028,-0.0004517757333815098,-0.02280312217772007
1772526335024889300,4.375889404296875,-0.021151944994926453,0.010951347649097443,-0.023150397464632988
1772526335034871300,4.385871337890625,-0.0148716289550066,0.012027100659906864,-0.023052357137203217
1772526335044853500,4.395853515625,-0.014072148129343987,0.011612712405622005,-0.020115157589316368
1772526335054836500,4.40583642578125,-0.009477444924414158,0.004619681742042303,-0.01853034645318985
1772526335064818400,4.415818359375,-0.008846010081470013,0.0022915464360266924,-0.005413479171693325
1772526335074801400,4.425801513671875,0.0008637886494398117,0.0021073485258966684,0.009801249951124191
1772526335084783400,4.435783447265625,0.005842301528900862,0.009514930658042431,0.026507258415222168
1772526335094765300,4.445765380859375,0.0055624134838581085,0.017389122396707535,0.03699319437146187
1772526335104748500,4.45574853515625,0.005920874886214733,0.031237561255693436,0.03526320680975914
1772526335114730200,4.465730224609375,0.0011835475452244282,0.029216289520263672,0.02866983599960804
1772526335124713500,4.47571337890625,-0.0020852163434028625,0.02145024575293064,0.012401117011904716
1772526335134695200,4.485695068359375,-0.013672549277544022,0.009088813327252865,-0.009048874489963055
1772526335144677400,4.495677490234375,-0.021653776988387108,-0.009424150921404362,-0.035247985273599625
1772526335154660400,4.505660400390625,-0.022245800122618675,-0.026949360966682434,-0.053679198026657104
1772526335164642300,4.515642333984375,-0.01999569684267044,-0.023337848484516144,-0.06452305614948273
1772526335174624500,4.52562451171875,-0.0158962681889534,-0.006015791092067957,-0.06478695571422577
1772526335184607500,4.535607421875,-0.013240298256278038,0.011576518416404724,-0.059360235929489136
1772526335194589400,4.54558935546875,-0.013359719887375832,0.020139681175351143,-0.05427565053105354
1772526335204572400,4.555572509765625,-0.011010278947651386,0.020685095340013504,-0.049957603216171265
1772526335214554400,4.565554443359375,-0.00760950893163681,0.004672667011618614,-0.050149526447057724
1772526335224536300,4.575536376953125,-0.0023569560144096613,-0.014981195330619812,-0.0479058139026165
1772526335234519600,4.58551953125,0.004212887957692146,-0.021746769547462463,-0.04389571398496628
1772526335244501200,4.595501220703125,0.009331217035651207,-0.0276882816106081,-0.0319780670106411
1772526335254484500,4.605484375,0.013000166974961758,-0.022715270519256592,-0.018695196136832237
1772526335264466200,4.615466064453125,0.022565443068742752,-0.02504180744290352,-0.011827168986201286
1772526335274448400,4.625448486328125,0.031016450375318527,-0.02107556164264679,-0.014718297868967056
1772526335284431400,4.635431396484375,0.039903152734041214,-0.016360167413949966,-0.01798359863460064
1772526335294413300,4.645413330078125,0.04997195303440094,-0.012407122179865837,-0.023611562326550484
1772526335304395500,4.6553955078125,0.05171259492635727,-0.004055449739098549,-0.02551013045012951
1772526335314378500,4.66537841796875,0.05256081745028496,0.010552799329161644,-0.02219582162797451
1772526335324360400,4.6753603515625,0.05112377554178238,0.014719048514962196,-0.01781146042048931
1772526335334343400,4.685343505859375,0.049380023032426834,0.020331023260951042,-0.014191251248121262
1772526335344325400,4.695325439453125,0.04664761945605278,0.02272041141986847,-0.012466322630643845
1772526335354307300,4.705307373046875,0.04689786583185196,0.027232155203819275,-0.010786047205328941
1772526335364290600,4.71529052734375,0.04764062166213989,0.02371971122920513,-0.012616703286767006
1772526335374272300,4.725272216796875,0.044002629816532135,0.021228354424238205,-0.010007529519498348
1772526335384255500,4.73525537109375,0.042025499045848846,0.0169204268604517,-0.006462329998612404
1772526335394237200,4.7452373046875,0.03771926462650299,0.010959671810269356,-0.0037153633311390877
1772526335404219400,4.755219482421875,0.03465582802891731,0.00015149847604334354,-0.0007560588419437408
1772526335414202400,4.765202392578125,0.02815091423690319,-0.0030890486668795347,0.003994951955974102
1772526335424184300,4.775184326171875,0.023440316319465637,-0.0006786214653402567,0.005858898628503084
1772526335434166500,4.78516650390625,0.021570511162281036,-0.004950597882270813,0.0009709326550364494
1772526335444149500,4.7951494140625,0.02188529632985592,-0.007173805497586727,-0.006136778276413679
1772526335454131500,4.80513134765625,0.02449757605791092,-0.002753256121650338,-0.014396049082279205
1772526335464114400,4.815114501953125,0.0252323430031538,0.002891846466809511,-0.019382817670702934
1772526335474096400,4.825096435546875,0.02741323411464691,0.0035012387670576572,-0.024314705282449722
1772526335484078300,4.835078369140625,0.03064684569835663,0.008164700120687485,-0.01935669779777527
1772526335494061600,4.8450615234375,0.032515253871679306,0.015806756913661957,-0.01639556884765625
1772526335504043300,4.855043212890625,0.035164833068847656,0.021678760647773743,-0.008868943899869919
1772526335514026500,4.865026611328125,0.040401022881269455,0.023525722324848175,-0.0032353433780372143
1772526335524008400,4.875008544921875,0.04234699532389641,0.028057090938091278,-0.0025868634693324566
1772526335533990400,4.884990478515625,0.04187086969614029,0.03267829492688179,0.00016513094305992126
1772526335543973400,4.894973388671875,0.04916100949048996,0.027481136843562126,0.004570265766233206
1772526335553955300,4.904955322265625,0.048742908984422684,0.03267647698521614,0.007857417687773705
1772526335563937500,4.9149375,0.04826141148805618,0.025380747392773628,0.008032919839024544
1772526335573920500,4.92492041015625,0.04175713658332825,0.02760864980518818,0.014378944411873817
1772526335583902500,4.93490234375,0.04531831294298172,0.028736498206853867,0.017744647338986397
1772526335593885400,4.944885498046875,0.04059939831495285,0.03640417382121086,0.018060870468616486
1772526335603867400,4.954867431640625,0.036294933408498764,0.03642015531659126,0.017385225743055344
1772526335613849300,4.964849365234375,0.028599197044968605,0.026490025222301483,0.0044446601532399654
1772526335623832600,4.97483251953125,0.016858119517564774,0.0252617746591568,-0.006441276986151934
1772526335633814300,4.984814208984375,0.012473593465983868,0.018275976181030273,-0.013484353199601173
1772526335643796500,4.99479638671875,0.01182111818343401,0.015193101018667221,-0.011566078290343285
1772526335653779500,5.004779541015625,0.0007089721038937569,0.01332147978246212,-0.0012646280229091644
1772526335663761400,5.014761474609375,0.0013047214597463608,0.010946473106741905,0.014927390962839127
1772526335673744400,5.024744384765625,-0.003959786146879196,0.016714943572878838,0.028013385832309723
1772526335683726300,5.034726318359375,0.0006496128626167774,0.018681421875953674,0.03426329046487808
1772526335693708500,5.04470849609375,0.00403480464592576,0.007423526141792536,0.031522784382104874
1772526335703691500,5.05469140625,0.003962100949138403,-0.010609536431729794,0.025041716173291206
1772526335713673500,5.064673583984375,-0.0034013164695352316,-0.029357733204960823,0.016525844112038612
1772526335723656400,5.074656494140625,-0.008754003793001175,-0.04389432817697525,0.007591205649077892
1772526335733638400,5.084638427734375,-0.007938766852021217,-0.04944348335266113,0.0018016407266259193
1772526335743620600,5.09462060546875,-0.007443419191986322,-0.032857850193977356,0.0004386347718536854
1772526335753603600,5.104603515625,0.0009406618773937225,-0.013732519000768661,0.008537134155631065
1772526335763585500,5.11458544921875,0.0029279133304953575,0.009938720613718033,0.011132651008665562
1772526335773567500,5.1245673828125,0.0032803411595523357,0.023090394213795662,0.019688501954078674
1772526335783550500,5.134550537109375,0.012579567730426788,0.02633385732769966,0.0288082305341959
1772526335793532700,5.14453271484375,0.016449682414531708,0.022045927122235298,0.03615989163517952
1772526335803515400,5.154515380859375,0.02578113041818142,0.02188027836382389,0.041249193251132965
1772526335813497600,5.16449755859375,0.02881445549428463,0.021067433059215546,0.045626088976860046
1772526335823479300,5.174479248046875,0.03306538984179497,0.016192782670259476,0.04399622976779938
1772526335833462500,5.184462646484375,0.03548472374677658,0.009413683786988258,0.042551394551992416
1772526335843444500,5.194444580078125,0.03207188472151756,-0.0006693108007311821,0.032802361994981766
1772526335853427500,5.204427490234375,0.02933804877102375,-0.012893682345747948,0.02219640649855137
1772526335863409400,5.214409423828125,0.030256042256951332,-0.017930252477526665,0.014402132481336594
1772526335873391600,5.2243916015625,0.028985612094402313,-0.012891227379441261,0.012877820059657097
1772526335883374300,5.234374267578125,0.028753120452165604,0.00196468411013484,0.01479076873511076
1772526335893356500,5.2443564453125,0.025327954441308975,0.01412267331033945,0.009842714294791222
1772526335903338500,5.25433837890625,0.025085341185331345,0.01824018731713295,0.004454607143998146
1772526335913321500,5.264321533203125,0.024795496836304665,0.011815926060080528,-0.007595311384648085
1772526335923303700,5.2743037109375,0.026483939960598946,-0.00025565130636096,-0.019519083201885223
1772526335933286400,5.284286376953125,0.02387172356247902,-0.00958668440580368,-0.023673176765441895
1772526335943268600,5.2942685546875,0.01755417138338089,-0.007576264441013336,-0.024085167795419693
1772526335953250300,5.304250244140625,0.00826805830001831,-0.008029425516724586,-0.020485209301114082
1772526335963233500,5.314233642578125,-0.004355324897915125,0.000978450058028102,-0.01807291805744171
1772526335973215500,5.324215576171875,-0.016449155285954475,0.013558409176766872,-0.01866740919649601
1772526335983197400,5.334197509765625,-0.029450440779328346,0.043981827795505524,-0.023313026875257492
1772526335993180400,5.344180419921875,-0.0315476655960083,0.05804148688912392,-0.03050568327307701
1772526336003162600,5.35416259765625,-0.029955361038446426,0.07375600188970566,-0.03911328688263893
1772526336013145300,5.364145263671875,-0.03943081945180893,0.07629332691431046,-0.03958982601761818
1772526336023127600,5.37412744140625,-0.04257148504257202,0.061164967715740204,-0.04212968423962593
1772526336033109500,5.384109619140625,-0.04181627929210663,0.036940474063158035,-0.03765307366847992
1772526336043092500,5.394092529296875,-0.03370162472128868,0.02361801266670227,-0.019206685945391655
1772526336053074700,5.40407470703125,-0.02618931233882904,0.018349874764680862,0.00978198554366827
1772526336063057400,5.414057373046875,-0.019648056477308273,0.002201531548053026,0.04679885879158974
1772526336073039600,5.42403955078125,-0.015064757317304611,-0.012840534560382366,0.07095666229724884
1772526336083021600,5.434021484375,-0.006605492439121008,-0.02330196276307106,0.08888879418373108
1772526336093004500,5.444004638671875,-0.004386280197650194,-0.027963027358055115,0.10029616951942444
1772526336102986500,5.453986572265625,-0.006457962561398745,-0.022019144147634506,0.09655442088842392
1772526336112968400,5.463968505859375,-0.010419666767120361,-0.010502267628908157,0.08951570093631744
1772526336122951400,5.473951416015625,-0.01642882265150547,-0.007194621488451958,0.06861867755651474
1772526336132933600,5.48393359375,-0.018343660980463028,-0.0024702365044504404,0.05087614804506302
1772526336142916400,5.493916259765625,-0.019476301968097687,-0.003686235984787345,0.035566434264183044
1772526336152898600,5.503898681640625,-0.017291048541665077,0.0010446177329868078,0.024024495854973793
1772526336162880500,5.513880615234375,-0.012934915721416473,0.01739829033613205,0.018243305385112762
1772526336172863500,5.523863525390625,-0.005375450477004051,0.018797945231199265,0.018454402685165405
1772526336182845700,5.533845703125,-0.0007692473009228706,0.02045736089348793,0.02407846599817276
1772526336192827400,5.543827392578125,0.00181623175740242,0.01792219467461109,0.03294696658849716
1772526336202810600,5.553810546875,-0.0007462617941200733,0.009587565436959267,0.035307057201862335
1772526336212792600,5.56379248046875,0.0015425938181579113,0.0040849195793271065,0.030719831585884094
1772526336222775600,5.573775634765625,0.005998861510306597,-0.004095246084034443,0.03014831617474556
1772526336232757500,5.583757568359375,0.008309178054332733,-0.018815267831087112,0.024257147684693336
1772526336242739500,5.593739501953125,0.005454269703477621,-0.022017186507582664,0.016599761322140694
1772526336252722400,5.603722412109375,0.00822004396468401,-0.016679253429174423,0.015085129998624325
1772526336262704600,5.61370458984375,0.009062401950359344,-0.010798194445669651,0.00675263162702322
1772526336272687400,5.623687255859375,0.008181472308933735,-0.00785396620631218,-0.011112891137599945
1772526336282669600,5.633669677734375,0.0065012844279408455,-0.01489243470132351,-0.028748609125614166
1772526336292651500,5.643651611328125,0.003998687956482172,-0.020069140940904617,-0.04661417752504349
1772526336302634500,5.653634521484375,0.008467471227049828,-0.014234155416488647,-0.05647719278931618
1772526336312616700,5.66361669921875,0.007500303443521261,-0.006251410581171513,-0.06474106758832932
1772526336322598400,5.673598388671875,0.01033976674079895,0.001550852321088314,-0.05600829795002937
1772526336332581600,5.68358154296875,0.015045678243041039,0.0044477893970906734,-0.04866310954093933
1772526336342563600,5.6935634765625,0.017901118844747543,0.011064146645367146,-0.03329719975590706
1772526336352546600,5.703546630859375,0.022382192313671112,0.008279599249362946,-0.017448583617806435
1772526336362528500,5.713528564453125,0.024974513798952103,-0.004763497970998287,-0.0024105110205709934
1772526336372510500,5.723510498046875,0.02825467474758625,-0.017400549724698067,0.009545858949422836
1772526336382493400,5.733493408203125,0.035993821918964386,-0.02169915661215782,0.01552012749016285
1772526336392475600,5.7434755859375,0.03461197763681412,-0.01779455877840519,0.016017507761716843
1772526336402457600,5.75345751953125,0.03077889420092106,-0.00790251325815916,0.01804044470191002
1772526336412440600,5.763440673828125,0.020332740619778633,0.0037972168065607548,0.011286850087344646
1772526336422422500,5.773422607421875,0.012769097462296486,0.0037695199716836214,-0.0004417109303176403
1772526336432405500,5.783405517578125,-0.0004866039380431175,-0.012794438749551773,-0.010124605149030685
1772526336442387500,5.793387451171875,-0.01376512460410595,-0.025074008852243423,-0.01159706711769104
1772526336452369400,5.803369384765625,-0.029874790459871292,-0.022202474996447563,-0.010938837192952633
1772526336462352600,5.8133525390625,-0.03474278002977371,-0.001420498127117753,-0.01061606127768755
1772526336472334600,5.82333447265625,-0.0349053293466568,0.01510901004076004,-0.008908890187740326
1772526336482317600,5.833317626953125,-0.039401281625032425,0.020984742790460587,-0.00808703899383545
1772526336492299500,5.843299560546875,-0.04435224458575249,0.007891294546425343,-0.007508941926062107
1772526336502281500,5.853281494140625,-0.052050378173589706,0.0012810623738914728,-0.008913226425647736
1772526336512264400,5.863264404296875,-0.056510020047426224,0.00547970924526453,-0.007133790757507086
1772526336522246700,5.87324658203125,-0.05951300263404846,0.0127578629180789,-0.0030844551511108875
1772526336532228400,5.883228271484375,-0.06011486425995827,0.015408007428050041,-0.0004660259000957012
1772526336542211600,5.893211669921875,-0.06456660479307175,0.018561189994215965,0.001066356897354126
1772526336552193500,5.903193603515625,-0.06928056478500366,0.030524305999279022,-0.003017683979123831
1772526336562176500,5.913176513671875,-0.07118818908929825,0.032887592911720276,-0.006114939693361521
1772526336572158500,5.923158447265625,-0.07281263917684555,0.041240740567445755,-0.007641563657671213
1772526336582140400,5.933140380859375,-0.06986133009195328,0.039619144052267075,-0.008832262828946114
1772526336592123400,5.943123291015625,-0.06410223990678787,0.040390126407146454,-0.01668432727456093
1772526336602105600,5.953105712890625,-0.0467219240963459,0.05554484575986862,-0.022029025480151176
1772526336612087600,5.963087646484375,-0.03430671617388725,0.07451870292425156,-0.01620611548423767
1772526336622070500,5.973070556640625,-0.036668941378593445,0.07440977543592453,-0.023204104974865913
1772526336632052500,5.983052490234375,-0.03209061175584793,0.0736759826540947,-0.029570747166872025
1772526336642035500,5.993035400390625,-0.02089734748005867,0.09403292089700699,-0.030357442796230316
1772526336652017700,6.003017578125,-0.013962474651634693,0.09370508044958115,-0.03505818918347359
1772526336661999400,6.012999267578125,-0.010935792699456215,0.08259543776512146,-0.04471614211797714
1772526336671982600,6.022982666015625,-0.01074771024286747,0.08905238658189774,-0.06091838330030441
1772526336681964500,6.032964599609375,-0.008745545521378517,0.07473762333393097,-0.08570575714111328
1772526336691947000,6.042947021484375,-0.010672042146325111,0.04866483435034752,-0.10947764664888382
1772526336701929200,6.05292919921875,-0.002227158285677433,0.057680968195199966,-0.1064152792096138
1772526336711911000,6.062910888671875,-0.009250979870557785,0.041610922664403915,-0.0957125648856163
1772526336721894100,6.07289404296875,-0.013345589861273766,0.03334526717662811,-0.08562637120485306
1772526336731876000,6.0828759765625,-0.00727030960842967,0.03580085188150406,-0.08666537702083588
1772526336741858000,6.092858154296875,0.0020840438082814217,0.040342871099710464,-0.09196612983942032
1772526336751841000,6.102841064453125,0.0024125087074935436,0.0367233008146286,-0.1054292842745781
1772526336761823200,6.1128232421875,-0.011156029999256134,0.024814443662762642,-0.12463521212339401
1772526336771806000,6.122805908203125,-0.022076696157455444,-0.004070689901709557,-0.1424037367105484
1772526336781788200,6.1327880859375,-0.027144158259034157,-0.03723130747675896,-0.15711158514022827
1772526336791769900,6.142769775390625,-0.020387079566717148,-0.0626474916934967,-0.15928587317466736
1772526336801753000,6.152753173828125,-0.024210313335061073,-0.07204099744558334,-0.1488092541694641
1772526336811735000,6.162735107421875,-0.03283774107694626,-0.05568863824009895,-0.13845081627368927
1772526336821717000,6.172717041015625,-0.03472006320953369,-0.03136678412556648,-0.11641928553581238
1772526336831700000,6.182699951171875,-0.03736761957406998,-0.04293898493051529,-0.09399298578500748
1772526336841682000,6.192681884765625,-0.04304148256778717,-0.08827877044677734,-0.0772923082113266
1772526336851665000,6.202664794921875,-0.04179316386580467,-0.12152280658483505,-0.06422985345125198
1772526336861647000,6.212647216796875,-0.030865680426359177,-0.11486729979515076,-0.061759501695632935
1772526336871629000,6.222629150390625,-0.018784040585160255,-0.10692771524190903,-0.0750855952501297
1772526336881612000,6.232612060546875,-0.00914978887885809,-0.10195532441139221,-0.09465742856264114
1772526336891594200,6.24259423828125,-0.008366640657186508,-0.088287353515625,-0.1298006772994995
1772526336901577000,6.252576904296875,-0.00029087113216519356,-0.06659164279699326,-0.15405435860157013
1772526336911559200,6.26255908203125,0.004256451968103647,-0.0485629104077816,-0.15890425443649292
1772526336921540900,6.272540771484375,0.00631827162578702,-0.036201316863298416,-0.1358463317155838
1772526336931524000,6.282524169921875,-0.001972826197743416,-0.022470861673355103,-0.10152837634086609
1772526336941506000,6.292506103515625,-0.0033747144043445587,-0.002647621091455221,-0.05522612854838371
1772526336951488000,6.302488037109375,0.004421219229698181,0.01711554080247879,-0.006708761677145958
1772526336961471000,6.312470947265625,0.007271600887179375,0.018533144146203995,0.035010188817977905
1772526336971453000,6.322452880859375,0.006157272029668093,-0.0014838199131190777,0.06302648037672043
1772526336981436000,6.332435791015625,0.00990993157029152,-0.0136976083740592,0.07935219258069992
1772526336991418000,6.342418212890625,0.017622701823711395,-0.004190680105239153,0.08043023198843002
1772526337001400000,6.352400146484375,0.02601645514369011,0.007699801120907068,0.07958893477916718
1772526337011383000,6.362383056640625,0.026142574846744537,0.01236914936453104,0.07945719361305237
1772526337021365200,6.372365234375,0.024395542219281197,0.02587537094950676,0.08061034232378006
1772526337031347000,6.382346923828125,0.02288919687271118,0.04415519908070564,0.07415920495986938
1772526337041330200,6.392330078125,0.02605569362640381,0.049881793558597565,0.06561391800642014
1772526337051311900,6.402311767578125,0.02896740660071373,0.03712513670325279,0.056097544729709625
1772526337061295000,6.412295166015625,0.031263317912817,0.026736676692962646,0.049493707716464996
1772526337071277000,6.422277099609375,0.02934122644364834,0.015992779284715652,0.04185532033443451
1772526337081259000,6.432259033203125,0.03340041637420654,0.008345246315002441,0.045419156551361084
1772526337091242000,6.442241943359375,0.0298807043582201,0.009813297539949417,0.0523112490773201
1772526337101224000,6.452223876953125,0.01681550405919552,0.01633324846625328,0.058671142905950546
1772526337111206100,6.4622060546875,0.00935613363981247,0.016296764835715294,0.06788122653961182
1772526337121189000,6.472189208984375,0.006582186091691256,0.013554508797824383,0.06622820347547531
1772526337131171000,6.482171142578125,0.001731804572045803,0.008308437652885914,0.06288382411003113
1772526337141154000,6.492154052734375,0.0001964922994375229,0.005477764178067446,0.04971262440085411
1772526337151136300,6.50213623046875,0.002508910372853279,0.013155379332602024,0.030130399391055107
1772526337161118000,6.512117919921875,0.0069281598553061485,0.01832723803818226,0.016931774094700813
1772526337171101200,6.52210107421875,-0.0015440620481967926,0.019536498934030533,0.009427697397768497
1772526337181083000,6.532082763671875,-0.007981721311807632,0.01567757874727249,-0.0056686969473958015
1772526337191065000,6.542065185546875,-0.010480774566531181,0.0008800860960036516,-0.0062080915085971355
1772526337201048000,6.552048095703125,-0.006467124447226524,-0.009689733386039734,0.0014269249513745308
1772526337211030000,6.562030029296875,-0.009185039438307285,0.0015756639186292887,0.01105816662311554
1772526337221013000,6.572012939453125,-0.003147120587527752,0.012427512556314468,0.016189545392990112
1772526337230995200,6.5819951171875,0.009273435920476913,0.031138837337493896,0.017339419573545456
1772526337240977200,6.59197705078125,0.012884151190519333,0.04235927015542984,0.01119311060756445
1772526337250960100,6.601960205078125,0.016563819721341133,0.03694235160946846,0.004074736498296261
1772526337260942000,6.611942138671875,0.020722612738609314,0.027987470850348473,-0.001895272172987461
1772526337270924000,6.621924072265625,0.018493279814720154,0.022345297038555145,-0.005746468901634216
1772526337280907300,6.6319072265625,0.02166723646223545,0.0338248535990715,-0.004740593023598194
1772526337290889000,6.641888916015625,0.024011770263314247,0.05150001496076584,0.0005525178276002407
1772526337300872200,6.6518720703125,0.028889881446957588,0.06407066434621811,0.010579852387309074
1772526337310854000,6.66185400390625,0.022465461865067482,0.07146771252155304,0.016768332570791245
1772526337320836000,6.671836181640625,0.012448247522115707,0.06707882136106491,0.010139990597963333
1772526337330819000,6.681819091796875,0.005532392300665379,0.05818808823823929,0.0038982604164630175
1772526337340801000,6.691801025390625,-0.00008341530337929726,0.040609896183013916,-0.002770827617496252
1772526337350783200,6.701783203125,0.004135442897677422,0.017232131212949753,0.005294896196573973
1772526337360766200,6.71176611328125,0.006766113452613354,-0.00027628778479993343,0.019327357411384583
1772526337370748200,6.721748046875,0.007894794456660748,-0.005062425509095192,0.03167964890599251
1772526337380731100,6.731731201171875,0.008723304606974125,0.002850358374416828,0.03764992207288742
1772526337390713000,6.741713134765625,0.004817168693989515,-0.001386880874633789,0.03264860063791275
1772526337400695000,6.751695068359375,-0.006260515656322241,-0.009713520295917988,0.012568899430334568
1772526337410678300,6.76167822265625,-0.015086077153682709,-0.02141808159649372,-0.013086585327982903
1772526337420660000,6.771659912109375,-0.024101410061120987,-0.03032475896179676,-0.04176723584532738
1772526337430642200,6.78164208984375,-0.02890351042151451,-0.025425370782613754,-0.060967106372117996
1772526337440625000,6.791625,-0.02793971076607704,-0.01781485602259636,-0.06886656582355499
1772526337450607000,6.801607177734375,-0.018752548843622208,-0.005778601858764887,-0.06866694241762161
1772526337460590000,6.811590087890625,-0.011569736525416374,0.01185125857591629,-0.05807927995920181
1772526337470572000,6.821572021484375,-0.006048286333680153,0.026702215895056725,-0.04177664592862129
1772526337480554000,6.831553955078125,-0.0010647131130099297,0.034530844539403915,-0.03172614052891731
1772526337490537200,6.841537109375,0.0010746191255748272,0.0433637872338295,-0.027200888842344284
1772526337500519000,6.851518798828125,0.006426507607102394,0.02953772246837616,-0.023471930995583534
1772526337510501000,6.861501220703125,0.010940156877040863,0.01096983440220356,-0.019340768456459045
1772526337520484000,6.871484130859375,0.01850886084139347,0.008058466017246246,-0.011200284585356712
1772526337530466000,6.881466064453125,0.020810071378946304,0.00950562208890915,-0.00006096530705690384
1772526337540449000,6.891448974609375,0.017977001145482063,0.011543739587068558,0.002417372539639473
1772526337550431000,6.901430908203125,0.01095237024128437,0.0016245055012404919,0.00020800810307264328
1772526337560413200,6.9114130859375,0.005473448894917965,-0.003598219947889447,-0.0012399526312947273
1772526337570396000,6.92139599609375,0.0020942408591508865,-0.002876355079934001,-0.009895320981740952
1772526337580378000,6.931378173828125,0.001990644261240959,0.0024494342505931854,-0.008209273219108582
1772526337590361000,6.941361083984375,0.002059963531792164,0.013651368208229542,-0.009527899324893951
1772526337600343000,6.951343017578125,0.0005984208546578884,0.019879436120390892,-0.015557296574115753
1772526337610325000,6.961324951171875,0.0001741461455821991,0.01664471998810768,-0.021229440346360207
1772526337620308200,6.97130810546875,-0.004141772631555796,0.014041746035218239,-0.024909663945436478
1772526337630290000,6.9812900390625,-0.010953931137919426,0.009240187704563141,-0.030104726552963257
1772526337640272100,6.991272216796875,-0.024954168125987053,0.0001854398287832737,-0.04353584721684456
1772526337650254800,7.0012548828125,-0.03370555490255356,-0.01109296828508377,-0.05627452954649925
1772526337660237000,7.011237060546875,-0.03487015515565872,-0.003374328836798668,-0.05667240545153618
1772526337670220000,7.021219970703125,-0.039272651076316833,0.014808339066803455,-0.05292854830622673
1772526337680202000,7.031201904296875,-0.043543294072151184,0.033189211040735245,-0.051274191588163376
1772526337690183400,7.041183349609375,-0.04421238228678703,0.04128580167889595,-0.05697193741798401
1772526337700166400,7.05116650390625,-0.0458289235830307,0.031817466020584106,-0.069822758436203
1772526337710148400,7.0611484375,-0.04703167453408241,0.004130594898015261,-0.08401437848806381
1772526337720130600,7.071130615234375,-0.041384972631931305,-0.018241290003061295,-0.08665063977241516
1772526337730113500,7.081113525390625,-0.040400851517915726,-0.018329812213778496,-0.07279404252767563
1772526337740095500,7.091095458984375,-0.03368808701634407,-0.01306740753352642,-0.060004740953445435
1772526337750078500,7.101078369140625,-0.025317661464214325,-0.0012560505419969559,-0.05183024704456329
1772526337760060700,7.111060791015625,-0.022625204175710678,0.004665488377213478,-0.051470719277858734
1772526337770042400,7.12104248046875,-0.017862165346741676,-0.004169613588601351,-0.06072548031806946
1772526337780025600,7.131025634765625,-0.014687677845358849,-0.017847873270511627,-0.08276154100894928
1772526337790007300,7.14100732421875,-0.02354424074292183,-0.04709486663341522,-0.102625772356987
1772526337799989500,7.150989501953125,-0.03154384344816208,-0.03929979354143143,-0.10283349454402924
1772526337809972500,7.160972412109375,-0.03601987659931183,-0.006516152992844582,-0.09657083451747894
1772526337819954400,7.170954345703125,-0.03526034206151962,0.010214623995125294,-0.09228288382291794
1772526337829937400,7.1809375,-0.037620238959789276,0.022915907204151154,-0.09668099880218506
1772526337839919400,7.19091943359375,-0.034777313470840454,0.04353942722082138,-0.10843245685100555
1772526337849901300,7.2009013671875,-0.03300736844539642,0.07214206457138062,-0.12572835385799408
1772526337859884500,7.210884521484375,-0.017739199101924896,0.12377090752124786,-0.14662671089172363
1772526337869866500,7.220866455078125,-0.002701424527913332,0.1818961799144745,-0.16913150250911713
1772526337879848400,7.230848388671875,0.007115519605576992,0.22924159467220306,-0.16717220842838287
1772526337889831400,7.24083154296875,-0.001667555421590805,0.21239344775676727,-0.14173315465450287
1772526337899813400,7.2508134765625,0.0011218395084142685,0.14036506414413452,-0.10701858252286911
1772526337909796400,7.26079638671875,0.016355883330106735,0.06452213227748871,-0.0736398696899414
1772526337919778300,7.2707783203125,0.023345615714788437,-0.01766860857605934,-0.04966209828853607
1772526337929760500,7.280760498046875,0.024576209485530853,-0.0758153423666954,-0.03514110669493675
1772526337939743500,7.290743408203125,0.029634620994329453,-0.07505261152982712,-0.028787601739168167
1772526337949725400,7.300725341796875,0.03235769271850586,-0.05751146376132965,-0.02593749389052391
1772526337959707400,7.310707275390625,0.031968072056770325,-0.042136237025260925,-0.03158526122570038
1772526337969690400,7.3206904296875,0.017293982207775116,-0.053105130791664124,-0.025311820209026337
