time,seconds_elapsed,z,y,x
1772525790568166700,0.086166748046875,-0.38229368246793743,-0.0260246680945158,0.08775777842998504
1772525790578150700,0.096150634765625,-0.29437340695261954,0.03635331601575017,0.20126345383971928
1772525790588134000,0.1061337890625,-0.24427052865624427,0.08622720786184072,0.2853790763750672
1772525790598118000,0.116117919921875,-0.23004443490505216,0.06395443964675068,0.29245412932783366
1772525790608100600,0.1261005859375,-0.25594343079328535,0.02152487245723605,0.2395385316982865
1772525790618083800,0.136083740234375,-0.31634207765460015,0.028233137924224137,0.1263517129793763
1772525790628067800,0.14606787109375,-0.40964404620826245,0.01942526982948184,-0.017815350414812563
1772525790638050800,0.15605078125,-0.47259296207427975,0.12322364408671856,-0.1253437049806118
1772525790648034800,0.166034912109375,-0.4392997642815113,0.24394699579030274,-0.09369535178542136
1772525790658017500,0.176017578125,-0.3096539781928062,0.3245749223403632,-0.00859948604106903
1772525790668000800,0.186000732421875,-0.1425876852482557,0.3247270441621542,0.0636851211860776
1772525790677984800,0.19598486328125,-0.0026402853757143017,0.2890213784001767,0.11436492258757353
1772525790687967700,0.2059677734375,0.11111410409808158,0.23172172046750783,0.15884733065366743
1772525790697951700,0.21595166015625,0.1740980912774801,0.17607172943800686,0.20709026029706
1772525790707934700,0.225934814453125,0.25214579207599164,0.14774565253332256,0.25355185948163267
1772525790717917700,0.235917724609375,0.30346973659992216,0.13667831507399678,0.28679449613094327
1772525790727901700,0.245901611328125,0.2562035430341959,0.056181321427226066,0.2426741993755102
1772525790737884700,0.255884765625,0.16307225487232208,-0.005920768351107835,0.04990209502726793
1772525790747868000,0.265867919921875,0.09074936146140097,-0.07651639957800507,-0.1250643035173416
1772525790757852000,0.275851806640625,0.022348609930276868,-0.16741832125261424,-0.18226649242490528
1772525790767834600,0.285834716796875,-0.06080430505275726,-0.22094226003885267,-0.11381576427221297
1772525790777818600,0.295818603515625,-0.1814618980437517,-0.18918810838162897,0.009679097971320152
1772525790787801900,0.3058017578125,-0.21222996127307414,-0.09625511927083134,0.0900838832899928
1772525790797784800,0.315784912109375,-0.2052162831187248,-0.03525441486313939,0.15706658471673726
1772525790807768800,0.325768798828125,-0.19510931512415408,-0.010750088203698396,0.22926117557287215
1772525790817751600,0.33575146484375,-0.19284429280161858,0.022747838380932806,0.27126696439236403
1772525790827735600,0.345735595703125,-0.190821847063303,0.04774214051440358,0.24837007292956112
1772525790837718800,0.35571875,-0.2398030278533697,0.059333063456416126,0.18674159201234578
1772525790847701800,0.36570166015625,-0.24861527986228465,0.05923486377894878,0.10570932244509458
1772525790857685800,0.375685791015625,-0.19499474883377552,0.025411650762706992,0.019133155015110967
1772525790867668700,0.385668701171875,-0.11153554438054561,0.032153526238352055,-0.0028048282876610756
1772525790877652700,0.39565283203125,-0.06726210289001465,0.0338226284943521,0.00545329696983099
1772525790887635700,0.4056357421875,-0.05996668518483638,0.0172647307947278,-0.021103578305244446
1772525790897618700,0.41561865234375,-0.008598316997289657,0.030027181734144686,-0.07472001768052577
1772525790907602700,0.425602783203125,0.10315583856999873,0.06783814921230077,-0.13009849829226733
1772525790917585700,0.435585693359375,0.24105156660974025,0.07749079756811261,-0.10639058270752429
1772525790927568600,0.445568603515625,0.40227205613553524,0.08212284128293394,-0.04754705633372068
1772525790937552600,0.455552734375,0.5114531463444233,0.05594035227820277,-0.014254735323786735
1772525790947536000,0.465535888671875,0.5409849457770586,0.03275879865512252,-0.03159048552811146
1772525790957520000,0.475519775390625,0.5299146857082844,0.030192309167981147,-0.0834483907982707
1772525790967502800,0.4855029296875,0.4957762692630291,0.014529752872884273,-0.13666530946195124
1772525790977485600,0.495485595703125,0.47889761517643925,0.011004939747601746,-0.17045973477512597
1772525790987469600,0.505469482421875,0.4979115277260542,0.03619403380081057,-0.18483371256440878
1772525790997452800,0.515452880859375,0.5136433498650789,0.015739713184535504,-0.1722629848048091
1772525791007436800,0.525436767578125,0.5087976633995771,-0.0036968086913228035,-0.15501549740582704
1772525791017419800,0.535419677734375,0.5205798711299896,-0.013145166646689176,-0.1478606572151184
1772525791027402800,0.54540283203125,0.5441290890216827,0.0049750119335949415,-0.13696166206002233
1772525791037386800,0.55538671875,0.5760252794981002,0.0373573784917593,-0.10727642563134432
1772525791047369700,0.56536962890625,0.5246195019096136,0.007368336810916662,-0.029066812269389626
1772525791057352700,0.575352783203125,0.39313656352162357,-0.026644699689000843,0.04825520460307598
1772525791067336700,0.585336669921875,0.24481296496987343,-0.013221300622820854,0.07254384268522263
1772525791077319700,0.595319580078125,0.13991349760293958,0.01317220078408718,0.054309390075504775
1772525791087303700,0.6053037109375,0.04910626847445965,0.036480741787701845,0.04781885901242494
1772525791097286700,0.61528662109375,0.0014098667979240416,0.01610986167117953,0.051286827383935446
1772525791107270000,0.625269775390625,-0.03822480897605419,-0.020647943492233752,0.09897563027590513
1772525791117254000,0.63525390625,-0.10160101034343243,-0.05564940650761127,0.13508856166452168
1772525791127236600,0.645236572265625,-0.20404665481746195,-0.0871539673179388,0.16284253776967525
1772525791137220000,0.65522021484375,-0.33978608160614965,-0.0839506412319839,0.17354425678700208
1772525791147203300,0.665203369140625,-0.4175514583319425,-0.04078136159107089,0.18199732009470462
1772525791157186000,0.67518603515625,-0.4368143772065639,0.02294599130153656,0.19208470660597085
1772525791167170000,0.685170166015625,-0.3979553619801998,0.05650748464167118,0.22037439702302217
1772525791177153000,0.695153076171875,-0.33905250663459297,0.03840411106571555,0.2525695704460144
1772525791187137000,0.705136962890625,-0.27740181388556956,0.037682957184314726,0.25827041243612764
1772525791197120300,0.715120361328125,-0.27090602212548254,-0.004718114563077688,0.23683920961171387
1772525791207103200,0.725103271484375,-0.33564182140827176,-0.03541486612185835,0.17650076850503682
1772525791217087000,0.7350869140625,-0.31786651074290273,0.04485635594502091,0.09514876546412705
1772525791227070200,0.7450703125,-0.207804546046257,0.14336290740445257,0.0540536617487669
1772525791237053200,0.75505322265625,-0.08475801209211349,0.1672302513346076,0.07015577850490808
1772525791247037200,0.765037109375,-0.008497194710373877,0.12048369772881269,0.09694558575302362
1772525791257020200,0.775020263671875,0.06929507002234458,0.06958353157490492,0.07988046918362379
1772525791267004200,0.785004150390625,0.14578443546295164,0.09528042901977896,0.03741173902750015
1772525791276987100,0.794987060546875,0.1943465140581131,0.08384805764034389,-0.026472704122960565
1772525791286970000,0.80497021484375,0.1472065772205591,0.02267009696960449,-0.07271276951134205
1772525791296954000,0.8149541015625,0.16342705965936183,0.014184300436079501,-0.12362959453910588
1772525791306937300,0.824937255859375,0.23365911827087402,0.04378200471177697,-0.1686103075161576
1772525791316920000,0.834920166015625,0.34013153404295443,0.0292792859762907,-0.14989099399894476
1772525791326904000,0.844904052734375,0.3950181394845247,-0.027231851927191016,-0.12969108653515576
1772525791336887000,0.854886962890625,0.3541489534795284,-0.06602540070191025,-0.13435527895390986
1772525791346871000,0.86487109375,0.3546732696145773,-0.050895636109262704,-0.1826701047897339
1772525791356854300,0.874854248046875,0.38841538021862504,-0.01431917886212468,-0.1724292812824249
1772525791366837000,0.8848369140625,0.384442969456315,-0.03454743563756346,-0.12108575527518987
1772525791376821000,0.894821044921875,0.3159849347800016,-0.08383110650554298,-0.0851651315882802
1772525791386804200,0.90480419921875,0.26352000352740285,-0.08728709217831492,-0.08182400446683168
1772525791396788200,0.914788330078125,0.25246201841831206,-0.0746134885661304,-0.09515548746585846
1772525791406771200,0.924771240234375,0.2499848146498203,-0.05997369944751262,-0.057444180969893927
1772525791416754200,0.934754150390625,0.18220540988743303,-0.067390113183856,-0.00851239227950573
1772525791426738000,0.944738037109375,0.027411738538742063,-0.0805192054785788,0.01731704550385475
1772525791436721200,0.95472119140625,-0.08620879542231559,-0.055416182273626324,0.011255845768749714
1772525791446704000,0.9647041015625,-0.137939567181468,-0.024316402871906756,-0.01235182431191206
1772525791456688000,0.974688232421875,-0.16737959667742253,-0.028142390900850293,0.014831073907017708
1772525791466671000,0.984671142578125,-0.14632161107957362,-0.0433832146525383,0.03004267156422138
1772525791476655400,0.9946552734375,-0.0852712223112583,-0.044761955659836525,0.06339227571934461
1772525791486638000,1.00463818359375,-0.05418401013016701,-0.07216390345692635,0.10935732355862855
1772525791496621000,1.01462109375,-0.11128712257742882,-0.11278189117982983,0.12115502111911773
1772525791506605000,1.02460498046875,-0.16607143668830393,-0.10914748020023107,0.08664543327391147
1772525791516588300,1.03458837890625,-0.16923077750205992,-0.04997925191670656,0.036216391763091084
1772525791526571000,1.044571044921875,-0.14432605334818363,-0.011177227574586867,0.03936754927039146
1772525791536555000,1.054554931640625,-0.11580489226281643,-0.016798428457230327,0.0764773827418685
1772525791546538200,1.064538330078125,-0.05673077200353145,0.0005776537574827671,0.0885702638566494
1772525791556522200,1.074522216796875,0.012671265524625778,0.05625307148918509,0.08869125988781451
1772525791566505200,1.084505126953125,0.01447977625131607,0.08491217974051833,0.09613426937013864
1772525791576488200,1.09448828125,-0.06953121686577797,0.08181655181273817,0.10416939952671528
1772525791586472000,1.104471923828125,-0.14353461070954798,0.09853373172730207,0.06174860016554594
1772525791596455200,1.114455078125,-0.13573241252601145,0.13391367266625165,0.0210161922827363
1772525791606439200,1.124439208984375,-0.06249708044528961,0.1414060742482543,0.028012042519450185
1772525791616422100,1.134422119140625,0.04376899909973144,0.127952426174283,0.0437295438721776
1772525791626405000,1.144405029296875,0.1604085886210203,0.13355857561826706,0.03461100239306688
1772525791636389400,1.154389404296875,0.21848960618972776,0.13678396740555762,0.0313970087826252
1772525791646372000,1.1643720703125,0.28717092822790147,0.1310793260231614,0.04490297156572342
1772525791656355000,1.17435498046875,0.27488778523802754,0.06880801715776323,0.08062398102730513
1772525791666339000,1.184339111328125,0.17641455152630806,-0.0007177928805351257,0.07933598704338073
1772525791676322300,1.194322265625,0.0514653988212347,0.004372662126272917,0.020264789393544196
1772525791686306300,1.204306396484375,0.03998655795156956,0.037479689697176216,-0.061763797734677786
1772525791696289000,1.2142890625,0.08189385483264923,0.03850684078782796,-0.047454701875150204
1772525791706272000,1.22427197265625,0.11719254722893237,-0.0006138941146433353,0.017947452361881732
1772525791716256300,1.23425634765625,0.14292261629104613,-0.03954831266477704,0.04922258833050728
1772525791726239200,1.2442392578125,0.16540741982161997,-0.03799772222191095,0.03567395544946193
1772525791736223200,1.25422314453125,0.1602946068525314,-0.026477088037133216,0.051610944771766656
1772525791746206000,1.2642060546875,0.12175240249037741,-0.03499722523167729,0.07525894686281681
1772525791756189200,1.274189208984375,0.07063128706216812,-0.008522329151630401,0.06740677205771207
1772525791766173200,1.284173095703125,0.007528641939163207,0.020932459522038697,0.04916355161964893
1772525791776156200,1.29415625,0.0027817396730184553,0.023717852456867694,0.01646919650286436
1772525791786139100,1.30413916015625,0.014208558094501495,0.008524082717299462,0.0021495792493224143
1772525791796123100,1.314123046875,-0.0021779285609722135,-0.040146570818871255,-0.019147768062353132
1772525791806106000,1.324106201171875,-0.009441197562217712,-0.07663447299972176,-0.044516602596640586
1772525791816090000,1.334090087890625,0.010612579429149628,-0.0896146583430469,-0.0874807150542736
1772525791826073000,1.344072998046875,0.047971711486577986,-0.06580211334004998,-0.0867313579916954
1772525791836056300,1.354056396484375,0.046640755143761634,-0.07376315534710884,-0.04733516714870929
1772525791846040300,1.364040283203125,0.016170213556289673,-0.06824366127327085,-0.03242138339430094
1772525791856023000,1.37402294921875,0.030166005682945248,-0.03344897287636995,-0.0626759441435337
1772525791866006000,1.384006103515625,0.06952712521255015,-0.022900398594141006,-0.04760463173985481
1772525791875990300,1.393990234375,0.05686755012571811,-0.050794952213764184,-0.023967443303763866
1772525791885973200,1.40397314453125,-0.004871989950537681,-0.043143414547294374,-0.018814882846176623
1772525791895957200,1.413957275390625,-0.031657121023535725,-0.016964286543428898,-0.0271203543767333
1772525791905940000,1.42393994140625,-0.01556464887857437,0.022923341078311205,-0.03539309268146753
1772525791915923200,1.433923095703125,-0.001779284632205963,0.01877718118429184,0.0005927051961421966
1772525791925907200,1.4439072265625,0.000090016371011734,-0.008056903596967459,0.03336538624614477
1772525791935890200,1.45389013671875,0.001993219643831253,-0.012673895873129367,0.0020499182671308517
1772525791945873000,1.463872802734375,0.08790624698996544,0.018783903186023233,-0.032194296640157695
1772525791955857200,1.473857177734375,0.14825170235931873,0.013894085317850111,-0.028555355615913866
1772525791965840100,1.483840087890625,0.16005261479020116,-0.015857786606252193,0.004660100765526295
1772525791975824100,1.49382421875,0.13779051409959792,-0.024809885477274654,0.018077508482336996
1772525791985807000,1.50380712890625,0.12425123356878756,0.008872603894025086,0.018829203632473944
1772525791995790300,1.513790283203125,0.11729776116907596,0.021261691476404665,0.04555588251650333
1772525792005774000,1.523774169921875,0.14394669864177703,0.019205781859904528,0.06165829153358936
1772525792015757000,1.533757080078125,0.16538813059926033,0.021959610612690448,0.057603463184833524
1772525792025740000,1.543739990234375,0.15648995387256145,0.010262450817227363,0.042642040896415705
1772525792035724300,1.553724365234375,0.10280746352374553,-0.00012786416336894036,0.051877779014408584
1772525792045707300,1.563707275390625,0.07194061609506607,0.030377894867956636,0.06198650057464838
1772525792055691300,1.573691162109375,0.05313128620684147,0.0691432404614985,0.06175210729688406
1772525792065674000,1.583674072265625,0.023560908329486846,0.08375321896374226,0.06916209129244089
1772525792075657200,1.5936572265625,-0.0004085808008909225,0.08472396369203924,0.0758604198873043
1772525792085641200,1.60364111328125,-0.009385667982697486,0.07489961203113198,0.06748071407675743
1772525792095624200,1.613624267578125,-0.034407296514511104,0.0430072209469974,0.059229018560051916
1772525792105607000,1.62360693359375,-0.052096097940206525,0.0161319273725152,0.05713906054347753
1772525792115591200,1.633591064453125,-0.04979541978240013,0.015345745430886744,0.05303104070276022
1772525792125574100,1.64357421875,0.011427987465262412,0.03876183846220374,0.06003215163648128
1772525792135558100,1.65355810546875,0.07046528284549712,0.03376242273971438,0.06948270154893398
1772525792145541000,1.663541015625,0.1298000998675823,0.04192980097383261,0.06913081937134266
1772525792155524400,1.6735244140625,0.17526830410063265,0.027871903396397828,0.06091331838518381
1772525792165508000,1.683508056640625,0.13196049277186392,-0.013183306699991225,0.04099398142844438
1772525792175491000,1.693490966796875,0.05302431870102882,-0.03579071369692683,0.009882803849875926
1772525792185474000,1.70347412109375,-0.012842530438303947,-0.01831394758671522,-0.018921558091044424
1772525792195458000,1.7134580078125,-0.045315644019842144,-0.002101794584840536,-0.031087796702980994
1772525792205441300,1.723441162109375,-0.029458149674534796,0.021635931616276503,-0.03153758629709482
1772525792215425300,1.73342529296875,0.03469195867478847,0.03215396462976932,-0.01341448510736227
1772525792225408000,1.743407958984375,0.0770674575895071,-0.0017250702269375323,-0.009079378512501715
1772525792235391200,1.75339111328125,0.10048749614357948,-0.028789456632733343,-0.02147942588031292
1772525792245375200,1.763375244140625,0.11642682355344294,-0.03497033722475171,-0.06613397564291953
1772525792255358200,1.773358154296875,0.11494798317253589,-0.037869419667124746,-0.09934738619774579
1772525792265341000,1.7833408203125,0.09141396284997463,-0.047889001639187335,-0.09020517158210277
1772525792275325200,1.7933251953125,0.057626844060420984,-0.06237491537034511,-0.0725640086904168
1772525792285308200,1.80330810546875,0.016947043147683142,-0.06131342361867428,-0.07019698729813098
1772525792295292200,1.813292236328125,-0.0014285714983940123,-0.060287149310857054,-0.07114975797832011
1772525792305275100,1.823275146484375,0.0013648586124181746,-0.05828457731679081,-0.04759235678017139
1772525792315258000,1.833258056640625,0.012187281399965286,-0.05537307378426194,-0.04240881666243076
1772525792325242000,1.8432421875,0.006471241840720177,-0.0603070230551064,-0.04970306532382965
1772525792335225000,1.85322509765625,-0.005765723919868469,-0.07464271466061473,-0.053768415066599844
1772525792345208000,1.8632080078125,-0.024675591573119163,-0.07363499892279506,-0.0584518967077136
1772525792355192000,1.873192138671875,-0.02392798807621002,-0.06475830337554216,-0.02464695000052452
1772525792365175300,1.88317529296875,-0.020045593684911725,-0.03772212015092373,-0.00044482115805149076
1772525792375159000,1.893158935546875,-0.050237318331003186,-0.019852116939425467,0.033739480255544185
1772525792385142000,1.90314208984375,-0.03030979806780815,0.016073621314018963,0.060875032201409336
1772525792395125200,1.913125244140625,0.02224924120903015,0.05722220878228545,0.1156575927466154
1772525792405109200,1.923109130859375,0.06037935763895511,0.061671004884690045,0.1421554313108325
1772525792415092200,1.93309228515625,0.09164367995262146,0.06917334333881735,0.15210516291707754
1772525792425075000,1.943074951171875,0.08349135315716266,0.07381663910001515,0.1444090554565191
1772525792435059000,1.953058837890625,0.02733691973686218,0.055717211046814916,0.09175999980866908
1772525792445042200,1.963042236328125,0.006655950757861137,0.061512307191640136,0.02967529955655336
1772525792455026200,1.973026123046875,0.05302139609158039,0.0807642662808299,-0.006552198122441768
1772525792465009200,1.983009033203125,0.08199556164145469,0.05421440526843071,0.008528174370527266
1772525792474992000,1.9929921875,0.11847849538624286,0.033787411050498484,0.023215455892682074
1772525792484976000,2.00297607421875,0.1473246506422758,0.04552826385721564,0.016608020451664925
1772525792494959000,2.012958984375,0.11064239493310452,0.04739902616515755,0.020730653339624403
1772525792504942000,2.022942138671875,0.028327099817991256,0.04212108576223254,0.009326923532783984
1772525792514926000,2.032926025390625,-0.015647650986909865,0.056723027088493104,0.0010632453173398972
1772525792524909000,2.042908935546875,-0.005706102687120437,0.08161123849898576,-0.0037549686193466183
1772525792534893000,2.05289306640625,0.03194645935893058,0.06639335723146796,0.02603285140097141
1772525792544876000,2.0628759765625,0.10009177482426165,0.04453238468766212,0.04928250182420015
1772525792554859300,2.072859375,0.14554887314140796,0.024033055885881185,0.05742255365997553
1772525792564843300,2.08284326171875,0.12596972792446612,-0.002688216170668602,0.05165244582593441
1772525792574826200,2.092826171875,0.10420096370875835,0.00367342781573534,0.016959610368311406
1772525792584809000,2.10280908203125,0.09514438154995442,0.016220190177857873,0.002016308258473873
1772525792594793000,2.11279296875,0.10710545297861099,0.019847586894780396,0.013160218085348604
1772525792604776200,2.122776123046875,0.12657763068974018,0.02460530281588435,0.04784983867257833
1772525792614760200,2.13276025390625,0.13604337817132472,0.00555719573572278,0.07764175034612417
1772525792624743200,2.1427431640625,0.1215571721792221,0.01825622605010867,0.08719751419872045
1772525792634726100,2.15272607421875,0.10105857402980327,0.023335429010540247,0.07007949839830398
1772525792644710100,2.162710205078125,0.07178279518485069,0.02972863717898726,0.061899114552140234
1772525792654693000,2.172693115234375,0.05572714791893959,0.020168635542690754,0.08279460306465625
1772525792664676000,2.182676025390625,0.07567395740449429,0.03372808207869529,0.07942132723927497
1772525792674660000,2.19266015625,0.08309621635973453,0.023792963519692418,0.04663403314203023
1772525792684643000,2.20264306640625,0.0666933630913496,0.010797288346290589,0.0035001170754432676
1772525792694627000,2.212626953125,0.054387423747777934,-0.02312266304269433,-0.03338058381527662
1772525792704610000,2.222610107421875,0.028211364483833313,-0.03993789650425315,-0.06299538535624742
1772525792714593300,2.23259326171875,0.009881927067041397,-0.06584989800453185,-0.06818389391005039
1772525792724577300,2.242577392578125,-0.017992168286442754,-0.07127630696743727,-0.07393968095779418
1772525792734560300,2.252560302734375,-0.016458382847905156,-0.03229775701463222,-0.06361322499364615
1772525792744543000,2.26254296875,-0.007872925332188606,-0.0023860183537006375,-0.04149345538318157
1772525792754527000,2.27252685546875,0.00803133076429367,-0.004395312349498272,0.005340191984176635
1772525792764510200,2.28251025390625,-0.004672083464264869,-0.05063084769323468,0.03207534643560648
1772525792774494200,2.292494140625,-0.02570259653329849,-0.06885141790807246,0.026475334471464156
1772525792784477200,2.302477294921875,-0.049558688417077064,-0.05327376341745257,0.002478372812271118
1772525792794460200,2.312460205078125,-0.06174421625137329,-0.036709143716096876,-0.009765314950048922
1772525792804444200,2.322444091796875,-0.0671814388692379,-0.031171529463678595,-0.011450491558015346
1772525792814427100,2.33242724609375,-0.04206219518184662,-0.014318009818345308,-0.022459084567427633
1772525792824410000,2.34241015625,0.011516834792494773,0.0043364217691123485,-0.03344809609353542
1772525792834394000,2.35239404296875,0.0587502951323986,-0.0028797932200133798,-0.008817220444977283
1772525792844377000,2.362377197265625,0.09398644368648529,-0.022999036663025618,-0.020246961475908754
1772525792854360000,2.372360107421875,0.1514554668366909,-0.014299305117875336,-0.05340951862633228
1772525792864344000,2.382343994140625,0.18878069662451744,0.0011250585071742533,-0.08137801426500081
1772525792874327300,2.392327392578125,0.21668577163815497,0.004065203612297773,-0.08789397203028201
1772525792884311300,2.402311279296875,0.2305348487704992,0.011371434972435234,-0.06013093583583831
1772525792894294000,2.4122939453125,0.21747662975490092,0.0021387655943632127,-0.04474427387267351
1772525792904277000,2.422277099609375,0.1820762305498123,-0.003864128082245588,-0.014637012639641761
1772525792914261000,2.432260986328125,0.13654898960590361,0.00873962516412139,0.013131868773698806
1772525792924244200,2.442244140625,0.10784253508150576,0.01044321421161294,0.02384001753181219
1772525792934227200,2.452227294921875,0.08458557813465595,0.01760463027358055,0.032279052314162254
1772525792944211200,2.462211181640625,0.030514380729198452,0.008765928649157284,0.03550912027657032
1772525792954194200,2.472194091796875,0.01094224977493286,0.017876579082757235,0.02932283285707235
1772525792964178200,2.48217822265625,-0.021972762355208397,0.011815087086707353,0.02612228325009346
1772525792974161200,2.4921611328125,-0.08858487690389155,-0.010140139611810445,0.038242929154634474
1772525792984144100,2.50214404296875,-0.12040332596898078,-0.012671265524625778,0.04829349078685045
1772525792994128100,2.512128173828125,-0.10655366431474685,-0.00027706337571144104,0.05211977107673883
1772525793004111000,2.522111083984375,-0.08540624686777591,-0.010974690739810467,0.060332303626835344
1772525793014094000,2.532093994140625,-0.050634208694100374,-0.02861863011047244,0.07151449963748455
1772525793024078000,2.542078125,-0.0023696517407894133,-0.013238251757621765,0.08160831588953733
1772525793034061300,2.552061279296875,0.008903437423706055,-0.0021184534586966034,0.09833908593803643
1772525793044045300,2.56204541015625,-0.015359481695294379,0.005273848749697208,0.0999631800085306
1772525793054028000,2.572028076171875,-0.028721067571640013,0.024220833542943,0.08169131799787283
1772525793064011000,2.582010986328125,-0.037462007910013195,0.032682080157101154,0.06253828923851251
1772525793073995000,2.5919951171875,-0.025623101556301115,0.01850830111503601,0.040543315051496026
1772525793083978200,2.601978271484375,0.0071866966336965555,0.02019946907237172,0.008002104669809341
1772525793093961200,2.611961181640625,0.028562077617645263,0.02357362168058753,-0.013617314203083514
1772525793103945200,2.6219453125,0.07010697092711925,0.0479677659638226,-0.0270224469602108
1772525793113928200,2.63192822265625,0.12624269964694976,0.05295183798670768,-0.00957856020629406
1772525793123912200,2.641912109375,0.1608411348193884,0.06721081109419465,0.014902677838504314
1772525793133895200,2.651895263671875,0.16756898176968096,0.06314253874197602,0.04033493299782276
1772525793143878100,2.661878173828125,0.14780746572315692,0.051055502846091984,0.048987318269908424
1772525793153862100,2.671862060546875,0.1074748708128929,0.044583091961592436,0.0325926483079791
1772525793163845400,2.681845458984375,0.09007365415692328,0.040836452779173846,0.009646364745497703
1772525793173828400,2.691828369140625,0.0711895054668188,0.011559358759969472,-0.004347089293599129
1772525793183812400,2.701812255859375,0.08922375932931899,0.001081073234975338,-0.005713993732631206
1772525793193795300,2.71179541015625,0.14000117588639258,0.004689326860010624,0.0026329788520932196
1772525793203779300,2.721779296875,0.15898995399475097,0.014934972672909497,0.002797521764039993
1772525793213762300,2.73176220703125,0.18369886331558227,-0.014205197093635796,-0.014561024793982505
1772525793223745300,2.741745361328125,0.20630115574598312,-0.037555385281890626,-0.050991936090588566
1772525793233729300,2.751729248046875,0.19743278963565825,-0.0506168191678822,-0.06345861895382404
1772525793243712300,2.761712158203125,0.14339257189035415,-0.040615211243927474,-0.05952887828946113
1772525793253695200,2.7716953125,0.042454409369826314,-0.03819602127298712,-0.05670183816999197
1772525793263679200,2.78167919921875,-0.05478139150142669,-0.04424173117801547,-0.05310469046086073
1772525793273662200,2.791662109375,-0.09513152206838131,-0.03322758521065116,-0.022039105589687823
1772525793283645200,2.801645263671875,-0.12139233700633048,-0.01708776679262519,-0.0008209609940648078
1772525793293629200,2.811629150390625,-0.11572831989526748,-0.019142799626290796,-0.004350304163992405
1772525793303612200,2.821612060546875,-0.10123977581560611,-0.028011019606143234,0.008783610436320304
1772525793313596200,2.83159619140625,-0.07548866396546364,-0.06370221845135092,-0.0083785367667675
1772525793323579400,2.841579345703125,-0.08507774556577205,-0.07445318343788385,-0.02178922248184681
1772525793333562400,2.851562255859375,-0.0815507404834032,-0.07155746199637651,-0.03818126209527254
1772525793343546000,2.861546142578125,-0.05849076741337776,-0.0658292936079204,-0.04298603202849626
1772525793353529000,2.871529052734375,-0.04874444942474365,-0.04363996589258313,-0.035735037986934184
1772525793363512300,2.88151220703125,-0.056038698086142535,-0.03364756418839097,-0.019778467181324956
1772525793373496300,2.891496337890625,-0.07821779666841029,-0.04280906802639365,-0.010175064794719219
1772525793383479300,2.901479248046875,-0.09087444914579391,-0.03576119534149766,-0.015116612850129604
1772525793393463300,2.91146337890625,-0.09573357961475848,-0.015128887809813021,-0.0015974983245134354
1772525793403446300,2.9214462890625,-0.07088204695284366,-0.022989976573735475,0.0215346631988883
1772525793413429200,2.93142919921875,0.017898060262203214,0.0009676759883761406,0.04005114762037992
1772525793423413200,2.941413330078125,0.09845219092369079,0.019985241799801587,0.04930529817789793
1772525793433396200,2.951396240234375,0.15507716446518896,0.02980813215598464,0.050805181346833705
1772525793443379200,2.961379150390625,0.19687047957777976,0.03144333214238286,0.04552490285634994
1772525793453363200,2.97136328125,0.20558102477788923,0.04496186214610934,0.01747165154367685
1772525793463346200,2.98134619140625,0.1761380726724863,0.03927387963756919,-0.009784019650518894
1772525793473329400,2.991329345703125,0.12803718184828758,0.033267917221039535,-0.03408084103912115
1772525793483313400,3.0013134765625,0.09888006094694136,0.06521072331815958,-0.039651334647834297
1772525793493296000,3.011296142578125,0.10516367126107215,0.07906959119215608,-0.036999358834326264
1772525793503280000,3.021280029296875,0.1438607739239931,0.09001461744606494,-0.0077001991137862205
1772525793513263000,3.03126318359375,0.22043314147293566,0.09962634926959872,0.03914776903986931
1772525793523246300,3.041246337890625,0.2601543264865875,0.08782236809879541,0.08418108898699284
1772525793533230300,3.051230224609375,0.2073603094100952,0.06726999393552541,0.11213847870975732
1772525793543213300,3.06121337890625,0.13751929594278334,0.0925013196952641,0.07886661596596241
1772525793553196300,3.0711962890625,0.08337503330111504,0.11740049089118837,0.06547843434363604
1772525793563180300,3.08118017578125,0.029464579415321348,0.08291472231298684,0.06344020651429891
1772525793573163300,3.091163330078125,-0.0076543141454458235,0.04230491789653897,0.05889467203915119
1772525793583147300,3.101147216796875,0.00044131402671337126,0.036517128275334834,0.06146744513660669
1772525793593130200,3.111130126953125,0.03458908282220363,0.021295155354589222,0.06600421178340911
1772525793603113200,3.12111328125,0.02539163088798523,-0.0005262158311903477,0.09510083466917275
1772525793613097200,3.13109716796875,0.006430325308442115,0.007319090841710567,0.11506985598653555
1772525793623080200,3.141080078125,0.014479191729426383,0.040586715801805257,0.12152122408300638
1772525793633063400,3.1510634765625,0.00000526069700717926,0.03355433294698596,0.11451865184456109
1772525793643047400,3.16104736328125,-0.03356850760281086,-0.021378888115286827,0.09534341125339268
1772525793653030100,3.171030029296875,-0.015769231539964675,-0.04985635618939995,0.04556961878091097
1772525793663014100,3.18101416015625,0.01800678133368492,-0.054783291197568175,-0.003864566473662853
1772525793672997000,3.1909970703125,0.03790916715562343,-0.07165799976140261,-0.016790099020302294
1772525793682980400,3.20098046875,0.05230301868915557,-0.06952244903743267,-0.016489947029948233
1772525793692964400,3.21096435546875,0.08697919527292251,-0.0689677377641201,-0.022960896609723568
1772525793702947300,3.220947265625,0.10218670127689838,-0.06553498683646321,-0.018323299936950206
1772525793712930300,3.230930419921875,0.11299626458287239,-0.06262991304472089,-0.010079495465755463
1772525793722914300,3.240914306640625,0.13442892871201037,-0.049517625754326576,-0.009555179330706596
1772525793732897300,3.250897216796875,0.1625046841174364,-0.04919160867035389,-0.03003916443288326
1772525793742881300,3.26088134765625,0.15336919150352477,-0.04128682689517736,-0.061140697400271886
1772525793752864300,3.2708642578125,0.10943711079657077,-0.03695566582307219,-0.10288988111019134
1772525793762847200,3.28084716796875,0.04759118773639202,-0.026177812829613685,-0.12713234196305273
1772525793772831200,3.290831298828125,-0.025667525219917296,-0.020459727443754672,-0.12615735945105552
1772525793782814200,3.300814208984375,-0.07497428470253945,-0.002086889276653528,-0.13008914594203233
1772525793792797400,3.31079736328125,-0.06115384914278984,0.001755319234728813,-0.11271364824920892
1772525793802781400,3.320781494140625,-0.03679799104332924,-0.03477437626123428,-0.08017799082547426
1772525793812764200,3.33076416015625,0.01329378133714199,-0.06431655095741153,-0.07137859829813241
1772525793822747100,3.3407470703125,0.05653145003914833,-0.08238134608864783,-0.06524959402382373
1772525793832731100,3.350731201171875,0.047529812937974925,-0.08934344018623232,-0.06479717408120632
1772525793842714400,3.36071435546875,0.020569325298070908,-0.06675766049921512,-0.0744596131786704
1772525793852698400,3.370698486328125,0.003177460992336273,-0.026599837633967397,-0.029383623133599757
1772525793862681000,3.38068115234375,0.01862462097108364,0.006222820037603378,-0.0031289456754922864
1772525793872664300,3.390664306640625,0.051637832778692244,0.017222499088197944,0.01269815353155136
1772525793882648300,3.4006484375,0.08210194462537765,0.02220481754541397,0.03147416567206383
1772525793892631300,3.41063134765625,0.07546352952420711,0.0020246376954019068,0.04708908343315124
1772525793902614300,3.4206142578125,0.04947101013362407,-0.004845686465501785,0.05177607220560312
1772525793912598300,3.430598388671875,0.03825461959242821,0.004714899692684411,0.0473892354235053
1772525793922581200,3.440581298828125,0.04713993683755398,0.023478344612568616,0.06595394290089607
1772525793932565200,3.450565185546875,0.021440847435593605,0.047578182124346495,0.09793255096375941
1772525793942548200,3.46054833984375,0.007310030752420425,0.08131094037815928,0.12039338909685611
1772525793952531500,3.470531494140625,-0.015806640940904615,0.09427987367510796,0.11913403668552637
1772525793962515500,3.480515380859375,-0.022087328645586966,0.10434987066015601,0.10826192953735589
1772525793972498200,3.490498291015625,-0.010361235016584395,0.11021350199654698,0.09666823011636734
1772525793982481200,3.500481201171875,0.018738018217682836,0.11071692147403955,0.07975479697734117
1772525793992465200,3.510465087890625,0.033872458985447884,0.09133899791762232,0.057194590122997754
1772525794002448400,3.520448486328125,0.03154080116748809,0.0916898571819067,0.06112433078736067
1772525794012431000,3.53043115234375,-0.004901800566911697,0.09551745264604687,0.07352291685044765
1772525794022415000,3.5404150390625,-0.05763327380120754,0.07155322421267628,0.08210311366915703
1772525794032398300,3.5503984375,-0.09194470872581005,0.04513941067010164,0.06402239031642674
1772525794042382300,3.56038232421875,-0.04479834214746952,0.0327552915237844,0.04792494973540306
1772525794052365300,3.570365234375,-0.004905892220139503,0.0036593992903828617,0.04838935237675905
1772525794062348300,3.580348388671875,0.03761398360133171,-0.027749592190980908,0.028979426246881483
1772525794072332300,3.590332275390625,0.09665010993778705,-0.025131226386129853,0.020022212809324265
1772525794082315300,3.600315185546875,0.14182780679166315,-0.014836919125914573,0.014716215355694293
1772525794092298200,3.61029833984375,0.14815584076941013,-0.024985534305125474,0.005744096609950065
1772525794102282200,3.6202822265625,0.13231646660268306,-0.02044292243942618,-0.009588497078418731
1772525794112265500,3.630265380859375,0.11612111860513687,-0.004787964928895235,-0.03513064235299825
1772525794122249500,3.64024951171875,0.11366612666845322,-0.022849399059265852,-0.05909808565676212
1772525794132232200,3.650232177734375,0.1300187110543251,-0.03573693768307566,-0.07785860796719789
1772525794142215700,3.660215576171875,0.15432313122749328,-0.031297493930906056,-0.0751306443080306
1772525794152199700,3.67019970703125,0.11260872657001018,-0.04422784878313541,-0.07143295883387327
1772525794162182700,3.6801826171875,0.05513152011334896,-0.03037994069457054,-0.0790150845259428
1772525794172165600,3.69016552734375,0.06139291859567165,0.0052495910912752144,-0.08431757484823466
1772525794182149600,3.700149658203125,0.08631810101568699,0.019439882876724005,-0.08218640803843737
1772525794192132600,3.710132568359375,0.10398118347823619,-0.020899287904798985,-0.03029372371584177
1772525794202115600,3.720115478515625,0.1056277816414833,-0.03642901160046458,-0.007812427316606045
1772525794212099600,3.730099609375,0.05716916342079639,-0.03448547631725669,-0.021746260122954844
1772525794222082600,3.74008251953125,0.01035363623201847,-0.04813683892041445,-0.06743833623975515
1772525794232066600,3.750066650390625,-0.0361462491363287,-0.04863938161507249,-0.09185556913763285
1772525794242049800,3.7600498046875,-0.05164718512892723,-0.046508653196692465,-0.07679916204214096
1772525794252032800,3.77003271484375,-0.0656038142889738,-0.0510603251516819,-0.022816811963915825
1772525794262016500,3.7800166015625,-0.05210661933422088,-0.04210647271499038,0.017907120351493357
1772525794271999500,3.78999951171875,-0.031521511945128436,-0.011130027431994675,0.05977174713462591
1772525794281982700,3.799982666015625,0.003454524368047714,-0.008446049045026301,0.09767565359324216
1772525794291966700,3.809966796875,0.04484335033297539,0.00033799978271126745,0.10624240640848874
1772525794301949700,3.81994970703125,0.07939093210101127,0.006171674372255802,0.08976473433822393
1772525794311932700,3.8299326171875,0.05407879619002342,-0.009249474382400513,0.06153378837108612
1772525794321916700,3.839916748046875,0.01043430025279522,-0.016570026528835297,0.039512802959978575
1772525794331899600,3.849899658203125,-0.008099135303497314,-0.017788024016469717,0.0016115268498659134
1772525794341883600,3.859883544921875,-0.03918400939702987,0.007472527837753295,-0.005961831013858318
1772525794351866600,3.86986669921875,-0.022041151416301728,0.02419321488365531,-0.001817278555035591
1772525794361849600,3.879849609375,0.0343903453797102,0.0289025616183877,0.029829321074485778
1772525794371833600,3.88983349609375,0.08244096732139587,0.03228504366353154,0.03901508257091045
1772525794381816600,3.899816650390625,0.12250059050917625,0.03289060834124684,0.044459027190506456
1772525794391799800,3.9097998046875,0.15288228476941584,0.02500043961331248,0.03623626550734043
1772525794401783800,3.91978369140625,0.1631324606269598,0.03144844670891762,0.005173603245615959
1772525794411766500,3.9297666015625,0.15159166043698788,0.01337722183689475,-0.018051497258245945
1772525794421750500,3.93975048828125,0.1325146195232868,0.0077747256547212595,-0.036733693635463714
1772525794431733500,3.9497333984375,0.10511574046611785,0.02793357045575976,-0.05027297416627407
1772525794441716700,3.959716796875,0.10104688359200954,0.029334523294866084,-0.056738078527152534
1772525794451700700,3.96970068359375,0.10266600922644138,0.01740209343880415,-0.04868950436711311
1772525794461683700,3.97968359375,0.08595803553164005,-0.0021260522432625293,-0.03593377542942762
1772525794471666700,3.989666748046875,0.0658347004354,-0.009089169254153966,-0.03406476668715477
1772525794481649700,3.999649658203125,0.06599369038939476,-0.010101415036618709,-0.034356735371053215
1772525794491632600,4.009632568359375,0.07260346391797065,-0.01205547171384096,-0.013755553629994392
1772525794501616600,4.01961669921875,0.06257540637850761,-0.027074761669337748,-0.0004053659304976463
1772525794511599600,4.029599609375,0.06102116267383098,-0.024589082333445547,0.016984744809567926
1772525794521582600,4.03958251953125,0.051686932617425914,0.0032144320018589493,0.014741934318840503
1772525794531566600,4.049566650390625,0.03939677536487579,0.01687850795611739,0.026633155381679534
1772525794541549600,4.059549560546875,0.02317161675095558,0.01860693918392062,0.03555822011530399
1772525794551532800,4.06953271484375,0.019655717584490775,0.027888562270253894,0.04692775539159774
1772525794561516500,4.0795166015625,-0.003968319109082222,0.01224982524216175,0.04860942486822605
1772525794571499500,4.08949951171875,-0.0507552047252655,-0.018872019860893485,0.04482084624022245
1772525794581483500,4.0994833984375,-0.0689198069691658,-0.00997457378655672,0.029928689795732495
1772525794591466800,4.109466796875,-0.04657295060455799,0.01791983370259404,0.027293080595135688
1772525794601449700,4.11944970703125,-0.005164250895380974,0.012298048298060893,0.042834933120012283
1772525794611433700,4.129433837890625,0.043131870239973065,-0.008455839786678552,0.04080255050957202
1772525794621416400,4.13941650390625,0.06850713451504707,-0.021455022091418502,0.01611672980338335
1772525794631399700,4.149399658203125,0.0700917733579874,-0.0071615621924400324,-0.01652881773561239
1772525794641383700,4.1593837890625,0.06377893694937228,-0.012748130153119564,-0.037919688549637794
1772525794651366700,4.16936669921875,0.01033142440021038,-0.0077335168614983555,-0.029855916820466517
1772525794661349600,4.179349609375,-0.03718202192485332,0.011785130339860915,-0.02853781995922327
1772525794671333600,4.189333740234375,-0.06833996125459671,0.04876636899560689,0.0015741174489259718
1772525794681316600,4.199316650390625,-0.050481063959002495,0.05806728130429983,0.03988309757709503
1772525794691300600,4.209300537109375,-0.0011988543957471847,0.06295154621452093,0.07290712303966283
1772525794701283600,4.21928369140625,0.054506081691384316,0.04196034224256873,0.0931648981705308
1772525794711266800,4.229266845703125,0.07688274867236614,0.027702245917916295,0.0862108412489295
1772525794721250600,4.23925048828125,0.03519932367503643,0.012866057444363832,0.03226297796219587
1772525794731233500,4.249233642578125,-0.017684125250577925,-0.006153261932730674,-0.002684124517440796
1772525794741216800,4.259216796875,-0.04050795147716999,0.00991071477010846,-0.023282091388106343
1772525794751200800,4.26920068359375,-0.036572950115799904,0.0028898762226104734,-0.007055179208517074
1772525794761183700,4.279183837890625,-0.000009936872124671935,0.0038821021303534504,0.01382277364730835
1772525794771167700,4.289167724609375,0.03310673530995845,0.015561580138653516,0.017042612476646898
1772525794781150500,4.299150390625,0.02146247474551201,0.01896905049458146,0.002899520833790302
1772525794791133700,4.3091337890625,-0.022343933755159376,0.01659793744906783,-0.005332300938665866
1772525794801117700,4.31911767578125,-0.08253799795508385,0.022452947087585926,-0.0075695584714412685
1772525794811100700,4.3291005859375,-0.11254910533726215,0.041458384069800375,-0.005143792629241943
1772525794821083600,4.339083740234375,-0.1170218668371439,0.025099369943141936,0.0030228549525141714
1772525794831067600,4.349067626953125,-0.053685412958264345,0.02333659805431962,0.012874094620347023
1772525794841050600,4.359050537109375,0.027269699719548224,0.013210194706916808,0.030847558206319806
1772525794851033600,4.36903369140625,0.11215338401794434,0.0031144787587225435,0.03597966039776802
1772525794861020700,4.379020751953125,0.2408306173354387,-0.0206435595780611,0.0012324644044041633
1772525794871003600,4.389003662109375,0.2710428002476692,-0.04815568975135684,-0.024317279654741286
1772525794880986600,4.398986572265625,0.2791974651306867,-0.0666691054329276,-0.08309241696745157
1772525794890970600,4.408970703125,0.27075346191227434,-0.07041501396298408,-0.1061854155242443
1772525794900953600,4.41895361328125,0.2696107216179371,-0.05894786353111267,-0.100825934317708
1772525794910936600,4.4289365234375,0.22504911083579063,-0.051468613691627974,-0.07000029568225145
1772525794920920600,4.438920654296875,0.1803951455950737,-0.006554243949055671,-0.044915246525406835
1772525794930903600,4.448903564453125,0.1455868670642376,0.038233138412982225,-0.012591478286683559
1772525794940887800,4.4588876953125,0.09415770860016345,0.028412878405302763,0.023026655322313308
1772525794950870800,4.468870849609375,0.04212649258971214,0.028825404728949067,0.02603811209797859
1772525794960853500,4.478853515625,0.013540449574589728,0.03945537368431687,0.034601065520942206
1772525794970837500,4.48883740234375,0.005025719207525253,0.025309797823429105,0.027524551263451574
1772525794980820700,4.49882080078125,0.012776479464769362,0.025771131724864244,0.055875324217975135
1772525794990803700,4.5088037109375,0.021970424267649648,0.03483648171201348,0.05345365002900362
1772525795000787700,4.51878759765625,0.02323474511504173,0.04060498211085796,0.03305471286177635
1772525795010770400,4.5287705078125,-0.006709726771712303,0.020076719475537536,0.006647475190460682
1772525795020753700,4.538753662109375,-0.020040917509794233,0.0068697396390140055,-0.0019379823252558706
1772525795030737700,4.548737548828125,-0.055900750920176503,-0.01854644116833806,0.002468143679201603
1772525795040720600,4.558720703125,-0.06134206519126892,-0.03106792295873165,-0.008571721251308917
1772525795050704600,4.56870458984375,-0.04363748167455196,-0.030455782409757375,0.0017190788775682448
1772525795060687600,4.5786875,-0.026267244678735733,-0.029198037433624265,0.019203297641873358
1772525795070670600,4.588670654296875,-0.012217092016339302,-0.017791531147807835,0.022464345264434814
1772525795080654600,4.598654541015625,0.001322188514471054,-0.015860416954755784,0.02446604047566652
1772525795090637600,4.608637451171875,-0.0005687397986650467,0.006355214245617389,0.024337737920880315
1772525795100620800,4.618620849609375,0.00194236623942852,-0.0004907061263918877,0.012440963900089263
1772525795110604500,4.6286044921875,0.007072130343317985,-0.015013590867072343,0.0014244798451662063
1772525795120587500,4.63858740234375,0.01837619916796684,-0.01555748848542571,-0.01115618478655815
1772525795130571500,4.648571533203125,0.03487549854815006,-0.013215455403923987,-0.004497895941138267
1772525795140554800,4.6585546875,0.0587286678224802,0.008005757931619882,-0.016536124259233474
1772525795150537700,4.668537841796875,0.08616554080247879,0.012189181096106767,-0.0003615267887711525
1772525795160521700,4.678521728515625,0.09626257192492485,0.017893530217558143,0.02352934414744377
1772525795170504700,4.688504638671875,0.07886427787840367,0.024408465069532394,0.01678191571384668
1772525795180488000,4.698488037109375,0.06348375339508057,0.03590031155124306,-0.012366437359154223
1772525795190471700,4.7084716796875,0.06670271544158458,0.055059185529500246,-0.005782382793724537
1772525795200454700,4.71845458984375,0.09371522552967071,0.055527825954556465,0.014775544327497482
1772525795210438700,4.728438720703125,0.14038169963657854,0.04008724184706807,0.027500585865974425
1772525795220422000,4.738421875,0.1551806248396635,0.03067395520508289,0.06591448767334222
1772525795230404900,4.74840478515625,0.15825053380429743,0.023649463395774364,0.06792144358158111
1772525795240388900,4.758388916015625,0.14550854113101958,0.00888254076614976,0.05807458782792091
1772525795250371600,4.76837158203125,0.08977963964641093,0.01004383963048458,0.04957768537849187
1772525795260354800,4.778354736328125,0.03263911779820919,0.003985562504827976,0.0071384735777974126
1772525795270338800,4.7883388671875,0.006003624328970909,0.014404080666601657,-0.010071604420244693
1772525795280321800,4.79832177734375,-0.014868483307957649,0.01799070698171854,-0.019982465320825576
1772525795290304800,4.8083046875,-0.031004210072755813,0.006326134281605482,-0.01555032809227705
1772525795300288800,4.818288818359375,-0.013135375905036925,-0.004322539374232292,-0.013888824620842934
1772525795310271700,4.828271728515625,-0.011641922476887702,0.0037231121763586996,0.04033814786821604
1772525795320255700,4.838255859375,-0.01338964292705059,0.013664660476148128,0.08454699968993663
1772525795330238700,4.84823876953125,-0.023702947148680684,0.01100172487720847,0.08514350427836179
1772525795340222000,4.858221923828125,-0.040218028619885444,0.014826105470955371,0.07796732903867959
1772525795350205700,4.868205810546875,-0.07715513587296009,0.015873130305856464,0.06564473082125187
1772525795360188700,4.878188720703125,-0.09459434645175933,0.034797026484459634,0.012538871316611766
1772525795370172000,4.888171875,-0.058278585967421526,0.023084230728447435,-0.02888853309303522
1772525795380156000,4.898156005859375,-0.03213584445118904,0.005221826301515102,-0.01114274078309536
1772525795390139000,4.908138916015625,-0.0103740944981575,0.009128186090290546,-0.011878069320321082
1772525795400123000,4.918122802734375,0.019842764589190483,0.022217823157459494,0.01636719743311405
1772525795410105600,4.928105712890625,0.03878945712149143,0.034609687218815084,0.025689444790780544
1772525795420088800,4.9380888671875,0.06762275289595127,0.02457066989392042,0.02974456540048122
1772525795430072800,4.94807275390625,0.10149170475006103,0.027573943363130092,0.023370061932504176
1772525795440055800,4.958055908203125,0.14515315182209015,0.04107259962260723,0.0029009821385145187
1772525795450038800,4.968038818359375,0.2133861455708742,0.04748933479711413,0.002270575280487537
1772525795460022800,4.978022705078125,0.28403438376784323,0.04929477678388357,0.0148357500821352
1772525795470005800,4.988005859375,0.3304126885831356,0.03398819431960583,0.03081657854616642
1772525795479988700,4.99798876953125,0.3167021431386471,0.013567922103404998,0.037143151219189166
1772525795489972700,5.00797265625,0.2551660166800022,0.01648541698530316,0.0010325579181313515
1772525795499955700,5.017955810546875,0.17939152151048182,-0.002922317187488079,-0.04589812008291483
1772525795509939700,5.027939697265625,0.10684358717203139,-0.027642624685168263,-0.05769669442623853
1772525795519922700,5.037922607421875,0.08919511775672435,-0.017379881606996057,-0.0565893177062273
1772525795529906000,5.047906005859375,0.0900298150151968,-0.020996026277542112,-0.10758885258138179
1772525795539890000,5.057889892578125,0.11053484290540218,-0.05752206851169467,-0.11599223152846097
1772525795549873000,5.067872802734375,0.10606032783985138,-0.0769357940338552,-0.061088967213034626
1772525795559855600,5.077855712890625,0.03754851714968681,-0.07677490438371896,0.0037853637576103208
1772525795569839600,5.087839599609375,-0.04603694403171539,-0.054397945141792296,0.03197977710664272
1772525795579822800,5.09782275390625,-0.0785837073713541,-0.009173486536741255,0.025680676962435246
1772525795589806800,5.107806884765625,-0.10101356584429741,0.018759791658073663,0.06110591834783554
1772525795599789800,5.117789794921875,-0.06086509532928466,0.013803046033531427,0.08285042490512132
1772525795609772800,5.127772705078125,-0.028290859460830688,0.02153013315424323,0.08572861068993806
1772525795619756800,5.1377568359375,-0.042832595032453534,0.0020152853451669214,0.06294044029861688
1772525795629739800,5.14773974609375,-0.07677928829789162,-0.010080372248589991,0.0176569449827075
1772525795639722800,5.15772265625,-0.07865092738866805,-0.01655526735112071,-0.03786445123106241
1772525795649706800,5.167706787109375,-0.05640460878908634,-0.015146715727448462,-0.06553688653260469
1772525795659689700,5.177689697265625,-0.04674363099634647,-0.05881415414884686,-0.0745446611136198
1772525795669673700,5.187673828125,-0.03122340578138828,-0.09163608116805552,-0.09490092818289994
1772525795679656700,5.19765673828125,-0.05849193645715713,-0.10095993596091866,-0.11642127059549093
1772525795689639700,5.2076396484375,-0.07304185533523559,-0.10160159486532211,-0.14100304640531539
1772525795699624000,5.2176240234375,-0.08596680335998534,-0.07128858192712068,-0.0781043994218111
1772525795709606700,5.227606689453125,-0.08536591485738754,-0.031810411889106036,-0.00386427421271801
1772525795719589600,5.237589599609375,-0.05559212336242199,-0.00040390462577342983,0.010620178213715553
1772525795729573600,5.24757373046875,0.041516251736879346,0.025302637430280446,0.019784604661166667
1772525795739556900,5.257556884765625,0.11451777506172656,-0.016177373949438332,0.01673983013778925
1772525795749539800,5.267539794921875,0.14842822797000407,-0.05354220509529113,-0.009771452429890632
1772525795759523800,5.27752392578125,0.09987725529074669,-0.03855681740939617,0.0060381111204624175
1772525795769506800,5.2875068359375,0.014900632011890411,-0.013719605533778666,0.0025347791746258732
1772525795779490800,5.29749072265625,-0.04209492840766906,-0.0010457096606492995,0.007816226708889007
1772525795789473800,5.307473876953125,-0.06385200218558311,-0.007020838547497988,-0.010139993481338023
1772525795799456800,5.317456787109375,-0.047559623554348944,0.05373904284164309,0.05721884778141975
1772525795809440800,5.327440673828125,-0.16326105544269084,0.026374358315020798,0.07655921580642461
1772525795819423700,5.337423828125,-0.23888942013978956,0.0116257019944489,0.039326340477168556
1772525795829406700,5.34740673828125,-0.235057879152894,0.028448095849156377,-0.04870236384868622
1772525795839390700,5.357390625,-0.16115268498659133,0.07287234398722649,0.013659107518196106
1772525795849373700,5.367373779296875,-0.09057692750394344,0.13753420125097035,0.13849632428139447
1772525795859358000,5.37735791015625,-0.006091887134313583,0.14693492067232727,0.17704641968905924
1772525795869340700,5.387340576171875,0.0735509739011526,0.12096607441827655,0.15665274321883915
1772525795879323600,5.39732373046875,0.17339491144418714,0.0757753719523549,0.15881488968878985
1772525795889307600,5.4073076171875,0.23176526734828948,0.05676598944738507,0.16418196967989204
1772525795899291000,5.417290771484375,0.2518213824272156,0.057266924706846474,0.11042612183392048
1772525795909273900,5.42727392578125,0.21384207264482974,0.053903439623117444,0.04188420826643705
1772525795919257900,5.4372578125,0.16079554211199282,0.002648176421225071,-0.011203823320567607
1772525795929240600,5.447240478515625,0.12243629310131073,-0.01627995754107833,-0.06357932272404432
1772525795939224800,5.457224853515625,0.11300152527987957,-0.0193332076318562,-0.057739949046075344
1772525795949207800,5.467207763671875,0.12122457922399044,-0.009392682245373726,-0.03247545166909695
1772525795959190800,5.477190673828125,0.1683002186536789,0.017822656938433646,-0.018882395124435424
1772525795969174800,5.4871748046875,0.20595921044051646,0.025035803187638518,-0.004061550350487232
1772525795979157800,5.49715771484375,0.24528759674429892,0.03861000890135765,0.014286299505829811
1772525795989140700,5.507140625,0.2465478259384632,0.038690526791661975,0.016448445975780487
1772525795999124700,5.517124755859375,0.2267933241546154,0.03690393563583493,0.004179623772203922
1772525796009107700,5.527107666015625,0.20574118377566336,0.04909823129847646,-0.026304361818730828
1772525796019090700,5.537090576171875,0.17757891913056373,0.04561564987972379,-0.04606587786525487
1772525796029074700,5.54707470703125,0.14912088640928267,0.009830050749331713,-0.04670943646579981
1772525796039057700,5.5570576171875,0.12834464036226273,0.008032792069017887,-0.05353782118111849
1772525796049041700,5.567041748046875,0.1054056633234024,0.03345248000770807,-0.023807284305989742
1772525796059025000,5.57702490234375,0.058249944394826884,0.019822598583996296,0.008961012829840184
1772525796069008000,5.5870078125,0.030575755527615545,0.013330752346664667,-0.020559388425946235
1772525796078991600,5.59699169921875,0.01950257284939289,0.007587094128131866,-0.041814357900619506
1772525796088974600,5.606974609375,-0.013378537011146545,0.0014369009353220462,-0.02098141323029995
1772525796098957800,5.616957763671875,-0.021923662516474724,-0.009411386945843696,-0.04495440949201584
1772525796108941800,5.62694189453125,-0.021066168904304503,-0.03478855091705918,-0.04084609739035368
1772525796118924800,5.6369248046875,-0.011571779850125313,-0.018779373141378165,-0.006195639769732952
1772525796128908800,5.64690869140625,-0.012630348992347716,-0.028665391861647366,-0.005951601880788803
1772525796138891000,5.65689111328125,0.016499883902072906,-0.04097571511939168,-0.0038899931758642195
1772525796148874000,5.6668740234375,0.02292027233839035,-0.05178922394812107,0.022239304336905477
1772525796158858000,5.67685791015625,0.0067751932233572005,-0.07698825487345456,0.00009527706801891326
1772525796168841000,5.686841064453125,-0.023627543824911116,-0.08470555125251412,-0.008402502164244652
1772525796178824000,5.696823974609375,-0.022725626549124717,-0.06962693232521415,0.0035372342154383657
1772525796188808000,5.706807861328125,0.011484686088562011,-0.05877367600798607,-0.008358663022518158
1772525796198791000,5.716791015625,0.05448737699091434,-0.09130012721195817,0.0018736849173903464
1772525796208775200,5.726775146484375,0.07768763531446457,-0.08241948614194988,0.006079027652740478
1772525796218758000,5.7367578125,0.04962707747817039,-0.05919906181320548,-0.020311551144719123
1772525796228740900,5.746740966796875,0.018527590337395667,-0.022389672593027352,-0.05013473473936319
1772525796238724900,5.756724853515625,0.032065117302536965,-0.012553630494326352,-0.06845277397930621
1772525796248708000,5.7667080078125,0.06331950274407863,-0.03922404914647341,-0.06590075140893459
1772525796258691000,5.776691162109375,0.047844870236516,-0.051001726832240815,-0.05372983662188053
1772525796268675000,5.786675048828125,0.024897125369310377,-0.032826895455271,-0.06761661541610955
1772525796278657800,5.79665771484375,0.011979776129126547,-0.0019509879373013973,-0.07704203088730573
1772525796288642000,5.80664208984375,0.05849895071983337,0.013600655329227447,-0.052393911843001836
1772525796298625000,5.816625,0.08718845410943031,0.01769800764545798,-0.007447393396496772
1772525796308608000,5.82660791015625,0.07039221760928631,0.02859188823401928,0.029862054300308225
1772525796318592000,5.836592041015625,0.04402969586253166,0.07981354142725468,0.02319382858276367
1772525796328575000,5.846574951171875,0.02310322768986225,0.0936786929115653,0.02521247492879629
1772525796338558000,5.856557861328125,0.00806581755578518,0.10063947183489799,0.03844195885807276
1772525796348542000,5.8665419921875,0.00883563288450241,0.08414367958605289,0.03299655293375253
1772525796358525000,5.87652490234375,0.004829319852590561,0.04546513549312949,0.04492255304902792
1772525796368509000,5.886509033203125,0.027357962524890898,0.03543737021461129,0.06025894612967968
1772525796378492000,5.896491943359375,0.026208207967877387,0.026343670915812252,0.08435966042429208
1772525796388475000,5.906474853515625,-0.00007306523621082306,0.022059709986299275,0.05279372481554746
1772525796398459000,5.916458984375,-0.0062158057749271385,0.02998772650659084,0.05170417601317167
1772525796408442000,5.926442138671875,-0.008052958074212075,0.02081643192693591,0.08414660219550132
1772525796418425000,5.936425048828125,0.0018564415216445922,0.02115472397059202,0.08752484645694494
1772525796428408800,5.946408935546875,0.020509704065322876,0.03436433415561914,0.0701437958061695
1772525796438391800,5.956391845703125,0.062251581251621245,0.03882759717479348,0.045404491347074506
1772525796448375000,5.966375,0.09432721994817256,-0.012534633532911538,0.025007892267405987
1772525796458359000,5.976359130859375,0.11586743610501289,-0.040130642597377295,-0.0046188919723033905
1772525796468342000,5.986342041015625,0.11792962933182716,-0.03002835077792406,-0.03515782262086868
1772525796478326000,5.996325927734375,0.05757248352468013,-0.034867022980749604,-0.04609598074257373
1772525796488309000,6.00630908203125,0.01224631811082363,-0.033744887083023783,-0.07917787387222051
1772525796498292000,6.0162919921875,0.01829611966907978,-0.014129355378448963,-0.06795066967606544
1772525796508276000,6.02627587890625,0.0812637402355671,-0.016679916644096373,-0.02505173140913248
1772525796518259000,6.036259033203125,0.11007482417821883,-0.014510755911469459,-0.0005403904870152473
1772525796528242000,6.046241943359375,0.1151262623488903,-0.02473199793547392,-0.026515958742797375
1772525796538226000,6.056225830078125,0.11084463950693607,-0.013600509198755025,-0.07748509847968817
1772525796548209000,6.066208984375,0.06396306134462357,-0.04459902018308639,-0.09891191738992929
1772525796558193000,6.07619287109375,0.03980360260009765,-0.06155351598486304,-0.09665332480818033
1772525796568176000,6.086176025390625,0.03236965320706367,-0.055959203109145164,-0.08985153583884238
1772525796578158800,6.096158935546875,0.0016664719074964522,-0.053392275230586525,-0.052935179112851616
1772525796588142800,6.106142822265625,-0.03266132963001728,-0.03164543058574199,-0.036703883019089695
1772525796598125800,6.116125732421875,-0.0731201812684536,-0.019868775813281534,-0.0006599252134561538
1772525796608109000,6.126109130859375,-0.07157879704535007,-0.015999387034028766,0.03827712368518114
1772525796618093000,6.136093017578125,-0.07088847669363021,0.00038023148924112317,0.07975538149923085
1772525796628076000,6.146075927734375,-0.044759763702750206,0.05270312392264604,0.09927987391948699
1772525796638059000,6.15605908203125,-0.009618892216682433,0.07947802586257458,0.09665274028629064
1772525796648043000,6.16604296875,0.010891980892419814,0.037189620709419245,0.10399638104736804
1772525796658026000,6.17602587890625,0.016014146211743355,-0.006044102469831705,0.061601008388400075
1772525796668010000,6.186010009765625,-0.008147066098451615,-0.01897884123623371,-0.016192425388097762
1772525796677993000,6.195992919921875,-0.02814998968541622,-0.022737316986918447,-0.06614215894937515
1772525796687976000,6.205975830078125,0.014137246423959731,0.009112403999269008,-0.08696341318190097
1772525796697960000,6.2159599609375,0.043108489364385605,0.020846388673782346,-0.03995470150858164
1772525796707943000,6.22594287109375,0.03271627468764782,0.026874855183064934,0.021230419555306433
1772525796717926100,6.235926025390625,-0.007934884652495384,0.057707508081197734,0.029346213732659814
1772525796727910100,6.24591015625,-0.01355214001238346,0.08223127009347081,0.018618191230297086
1772525796737892900,6.255892822265625,0.03642331251204014,0.0930738588862121,0.03117372142076492
1772525796747876900,6.265876953125,0.11378478461205958,0.06553308714032173,0.029439444974064824
1772525796757859800,6.27585986328125,0.17530805158913135,0.04091010253727436,0.012334288655221461
1772525796767843000,6.285843017578125,0.16482815862894057,0.004871697689592838,0.01964724201709032
1772525796777827000,6.2958271484375,0.11952128243744373,0.01784954494535923,-0.012321136912703513
1772525796787810000,6.30581005859375,0.08125497240722179,0.05160305372625589,-0.021687515673041342
1772525796797793000,6.31579296875,0.06285130071043968,0.04771437572464347,-0.0017477204501628876
1772525796807777000,6.325777099609375,0.09305179318487644,0.03169891433864832,0.009914368031919002
1772525796817760000,6.335760009765625,0.1542962432205677,0.015958178240805865,0.007175006195902824
1772525796827744000,6.345743896484375,0.21772271347045896,-0.01678527671471238,0.03162263423204422
1772525796837727000,6.35572705078125,0.22622575339972972,-0.03444207556694746,0.046779579092562196
1772525796847710000,6.3657099609375,0.19623159715235233,-0.0379170582011342,0.03550853575468063
1772525796857694000,6.37569384765625,0.1415080733180046,-0.011819763261824845,0.03198649910837412
1772525796867677000,6.385677001953125,0.1199234334975481,0.009642857614159584,0.014473931032419203
1772525796877660200,6.39566015625,0.11182429819405078,-0.007982669316977262,-0.010067805027961731
1772525796887644200,6.40564404296875,0.06298632526695729,-0.08118409912809729,-0.04178951572030783
1772525796897627000,6.415626953125,0.0324292744398117,-0.1050816920660436,-0.08014408855587243
1772525796907611000,6.42561083984375,0.017360884645581245,-0.055578387098014354,-0.09847440275549887
1772525796917593900,6.43559375,-0.0070399816393852226,-0.029828444291651247,-0.08622457751333713
1772525796927577000,6.4455771484375,-0.022345687320828436,-0.02146890448629856,-0.06860884132385253
1772525796937561000,6.45556103515625,-0.00046411038041114806,0.008576105165481566,-0.045998365586996076
1772525796947543800,6.465543701171875,0.025351298877596854,0.00384030881524086,-0.008877718460559845
1772525796957527000,6.475527099609375,0.03937807066440582,-0.00936024128049612,0.005693243205547332
1772525796967511000,6.485510986328125,0.03655073828399181,-0.02170958137437701,-0.0002554360657930374
1772525796977494000,6.495493896484375,0.009194529324769973,-0.046320144887268544,-0.03464753501117229
1772525796987478000,6.50547802734375,-0.01884381667971611,-0.0356973363250494,-0.058442836618423456
1772525796997461000,6.5154609375,-0.020137948143482208,-0.012741115890443324,-0.05019406371116638
1772525797007444000,6.52544384765625,-0.0326385332763195,-0.007901128513365984,-0.040081542758643625
1772525797017428000,6.535427978515625,-0.04414250858724117,-0.037543548713624475,-0.024549042584002017
1772525797027411000,6.545410888671875,-0.04851765493154526,-0.017491525287926198,-0.018511515985429286
1772525797037394000,6.555393798828125,-0.06471943266987801,-0.024180355402082205,-0.008402209903299807
1772525797047378200,6.565378173828125,-0.04555588251650333,-0.019948416920751333,0.013365093007683753
1772525797057361000,6.57536083984375,-0.022978724527359006,-0.002636924374848604,0.038922435851395126
1772525797067344000,6.58534375,-0.000741173756122589,0.010213789369910955,0.05629004249870777
1772525797077328000,6.595327880859375,-0.0005704933643341064,0.0368760247156024,0.060786184874176974
1772525797087311000,6.60531103515625,0.019438859963417054,0.051744508023560044,0.07426701321601867
1772525797097295000,6.615295166015625,0.04686579607129097,0.05040244576483965,0.08259791144877672
1772525797107277800,6.62527783203125,0.050879123365879055,0.05641586083546281,0.09454524661302566
1772525797117261000,6.635260986328125,0.05999298866987228,0.057184507120400664,0.09445347667634486
1772525797127245000,6.6452451171875,0.07806699002087115,0.07610431164577602,0.08075199132114648
1772525797137228000,6.65522802734375,0.07156359947621822,0.0889895121820271,0.0834787859365344
1772525797147211300,6.665211181640625,0.0728325964987278,0.07124035887122154,0.08901976118981837
1772525797157195300,6.6751953125,0.08649345758259296,0.08544789405241608,0.06624357349723577
1772525797167178500,6.685178466796875,0.0997410616904497,0.08420271629691123,0.05892272908985614
1772525797177162500,6.69516259765625,0.12478899370729922,0.0759825849622488,0.0458121953651309
1772525797187145500,6.7051455078125,0.10571545992493629,0.04608399804383516,0.01571457874327898
1772525797197128200,6.715128173828125,0.10898819798529147,0.035652912661433216,-0.0016837153032422064
1772525797207112200,6.7251123046875,0.0883259337067604,0.04280015406757593,0.005747603741288185
1772525797217095400,6.735095458984375,0.06634966422021389,0.02763794851005077,0.009805354699492454
1772525797227078400,6.745078369140625,0.06428980908095837,0.040173751086741684,0.03397124318480491
1772525797237062400,6.7550625,0.06886603095531463,0.056371729432791465,0.053068742364645004
1772525797247045400,6.76504541015625,0.07733224600553512,0.03768807175084948,0.05383212795257568
1772525797257029400,6.775029296875,0.08304419391155242,0.024751141027361152,0.057788464362919324
1772525797267012400,6.785012451171875,0.08852525567114353,0.02903787843585014,0.057068917916715145
1772525797276995300,6.794995361328125,0.0975064345061779,0.030123335584998127,0.03736205466687679
1772525797286979300,6.804979248046875,0.08706278190314769,0.028897739312797783,0.011302899780869484
1772525797296962600,6.814962646484375,0.07633914331495761,0.008125146527588367,-0.009257073166966438
1772525797306945300,6.8249453125,0.07671089923679829,-0.006598083090782165,-0.054444999153912065
1772525797316929300,6.83492919921875,0.06107961486279964,-0.0016791852585971354,-0.0608133651420474
1772525797326912500,6.84491259765625,0.022740239596366882,-0.00268982360586524,-0.04736614680886268
1772525797336896500,6.854896484375,-0.020886136162281035,0.008080430603027343,-0.02590864049941301
1772525797346879500,6.86487939453125,-0.042159810337424275,0.00947641500607133,-0.0013794716596603393
1772525797356862200,6.8748623046875,-0.06063304013907909,0.014314356556534766,0.01864157210588455
1772525797366846200,6.88484619140625,-0.05157996511161327,0.008503039929270744,0.011933306638896465
1772525797376829400,6.894829345703125,-0.037818566262722016,0.00814136701002717,-0.0009036708414554595
1772525797386812400,6.9048125,-0.009491466444730758,0.0019637012884020804,-0.01732259846180677
1772525797396796400,6.91479638671875,0.013358078745007515,-0.02069938141852617,-0.03664163143783807
1772525797406779400,6.924779296875,0.03767126674652099,-0.044740328349918125,-0.04244885641187429
1772525797416762400,6.934762451171875,0.04825345103740692,-0.07426891291216016,-0.060706982158124444
1772525797426746400,6.944746337890625,0.0344815307945013,-0.08131152490004896,-0.06542524285167456
1772525797436729300,6.954729248046875,0.027855975174903867,-0.06351736340373754,-0.06683306382298469
1772525797446713300,6.96471337890625,0.03237842103540897,-0.035219781941175456,-0.04576543361395597
1772525797456696300,6.9746962890625,0.03123042004406452,-0.03543824699744582,-0.015658172380924224
1772525797466679300,6.98467919921875,0.026355507484078406,-0.04434022311642766,0.00910012903958559
1772525797476663300,6.994663330078125,0.011574117937684059,-0.03940948871597647,0.0015399229183793066
1772525797486646500,7.004646484375,-0.0037613983601331707,-0.050382133629173036,0.00644230800718069
1772525797496629500,7.01462939453125,0.0037479543566703794,-0.033383506424725054,0.0031321605458855626
1772525797506613500,7.024613525390625,0.0405552977502346,-0.0015957447588443754,0.019801263535022734
1772525797516596200,7.03459619140625,0.07305120768547058,-0.002378419569134712,0.020430501349270342
1772525797526580200,7.044580322265625,0.11742577146291733,-0.006757073044776916,-0.005872106903791427
1772525797536563500,7.0545634765625,0.1289554657369852,-0.01328399059548974,-0.04584317502528429
1772525797546546400,7.06454638671875,0.1309200438082218,-0.01623743357360363,-0.07100158167928457
1772525797556530400,7.074530517578125,0.1341612176865339,-0.02266907405629754,-0.11338029546439647
1772525797566513400,7.084513427734375,0.1123901153832674,-0.03891965937241912,-0.11248656149506568
1772525797576496400,7.094496337890625,0.0920078370898962,-0.03516907466724515,-0.0868313112348318
1772525797586480400,7.10448046875,0.05836392616331577,-0.027695085524767637,-0.07239595864713191
1772525797596463400,7.11446337890625,0.0185480486035347,-0.04044803798347711,-0.07500789471119641
1772525797606447400,7.124447265625,-0.004885433954000473,-0.01499210968762636,-0.059874330726265905
1772525797616430300,7.134430419921875,-0.017552607825398445,0.015272680194675922,-0.015504735384881495
1772525797626413300,7.144413330078125,0.0020598551392555235,0.04199512129500508,0.0166024674937129
1772525797636397300,7.154397216796875,0.039105098941922184,0.047629327789694066,0.025967092688381672
1772525797646380500,7.164380615234375,0.0543541060000658,0.037830110570043325,0.03358253612816334
1772525797656363500,7.174363525390625,0.055545946133136744,0.02716024799570441,0.03232143015116453
1772525797666347500,7.184347412109375,0.0024298574954271317,-0.0009990940399467944,0.019290975925326345
1772525797676330200,7.194330322265625,-0.06974573639929295,0.013820289429277181,0.008527297587692738
1772525797686313500,7.2043134765625,-0.0859820009291172,0.03733297470286488,0.021235680252313614
1772525797696297500,7.21429736328125,-0.03990881654024124,0.03569236788898706,0.029444997932016846
1772525797706280400,7.224280517578125,0.01860591627061367,0.014236469014734028,0.06952391034215688
1772525797716264400,7.234264404296875,0.050427287945151326,0.014986995121091603,0.08685703019797801
1772525797726247400,7.244247314453125,0.09119476714134216,0.04400222333371639,0.07282236736565828
1772525797736230400,7.25423046875,0.0685059654712677,0.050217006195336575,0.05899141041189432
1772525797746214400,7.26421435546875,0.0444417837947607,0.05661196792945265,0.0567027149528265
1772525797756197400,7.274197265625,0.01566226403415203,0.07680471500009298,0.06474661293774843
1772525797766180400,7.284180419921875,-0.00317278481721878,0.06673164927512407,0.07344663674384355
1772525797776164400,7.294164306640625,0.005810732105374336,0.08027823632955551,0.07051087555289268
1772525797786147300,7.304147216796875,0.025884967362880706,0.0755816029459238,0.0659744011670351
1772525797796131300,7.31413134765625,0.05754091934263706,0.04167874882221222,0.032515491418540474
1772525797806114600,7.324114501953125,0.10689502509832381,0.025143209084868428,-0.026491993345320222
1772525797816097500,7.33409765625,0.12914952700436114,-0.010591828902065753,-0.03269435511678457
1772525797826081300,7.344081298828125,0.12154781982898712,-0.019066227258741856,-0.06785743843466042
1772525797836064300,7.354064208984375,0.12028525254726409,-0.026523849788308143,-0.08161854502260685
1772525797846047500,7.364047607421875,0.12577215952575205,-0.019326047238707542,-0.06652063687294721
1772525797856031500,7.374031494140625,0.09872750073373317,-0.020348229893296956,-0.020122458313405513
1772525797866014500,7.384014404296875,0.11258709926009178,-0.008498948276042938,0.013970657685399054
1772525797875998500,7.39399853515625,0.12022212418317794,-0.007755144171416759,0.02418897709995508
1772525797885981400,7.4039814453125,0.12590250790715216,-0.02832140072956681,-0.01981938371360302
1772525797895964400,7.41396435546875,0.09376432536840439,-0.04658376425951719,-0.04838058454841375
1772525797905948400,7.423948486328125,0.04155424565970897,-0.07551321388483047,-0.08230243563354014
1772525797915931400,7.433931396484375,0.0535351908326149,-0.062203796587139364,-0.11489800655096769
1772525797925914400,7.443914306640625,0.05784487072527408,-0.04683890806436539,-0.09051789079308509
1772525797935898400,7.4538984375,0.08310323062241078,-0.054293461854010815,-0.058846156722307204
1772525797945881300,7.46388134765625,0.11849135486781597,-0.016235533877462148,-0.05204582905769348
1772525797955864300,7.4738642578125,0.11641396407186984,-0.0023535773888230323,-0.030367373473942277
1772525797965848300,7.483848388671875,0.06503624353408813,0.024567455023527144,-0.007535656201839446
1772525797975831300,7.493831298828125,-0.02045242092013359,0.03733955057412386,0.004883095866441726
1772525797985815300,7.503815185546875,-0.09679916301965713,0.023257979860156774,-0.009868775324523448
1772525797995798300,7.51379833984375,-0.10966390528976917,0.011316782175749539,-0.03194470579326152
1772525798005781500,7.523781494140625,-0.0887573108613491,0.016627894195914268,-0.0013619360029697416
1772525798015765500,7.533765625,-0.008469137659668922,0.024765754074603318,0.03274783886969089
1772525798025748500,7.54374853515625,0.01719604947268963,0.005077449394762516,0.06847907746434212
1772525798035731200,7.553731201171875,0.036920156118273734,0.01457476105839014,0.06428221029639243
1772525798045715500,7.563715576171875,-0.010109306082129477,0.023711714977025983,0.04898351887762546
1772525798055698400,7.573698486328125,-0.06351882470846176,0.02007876530215144,0.045101709008216855
1772525798065682400,7.583682373046875,-0.08932663518190384,0.025528993532061575,0.03129851684421301
1772525798075665400,7.59366552734375,-0.07207154899835586,0.027999621429294345,0.036511283056437964
1772525798085648400,7.6036484375,-0.04232698359787464,0.02662584885805845,0.07223024669140576
1772525798095632400,7.61363232421875,-0.022347440886497497,0.02819265978336334,0.08998159195929765
1772525798105615400,7.623615478515625,0.03388414942324161,0.04027253528609872,0.07939356244951486
1772525798115598300,7.633598388671875,0.0652291357576847,0.03376563761010766,0.08416413785219191
1772525798125582300,7.643582275390625,0.06687514939904213,0.0039127895295619965,0.0592187894269824
1772525798135565300,7.6535654296875,0.09236673353016375,0.010851941142976284,0.014405834232270718
1772525798145549300,7.66354931640625,0.11410276452004908,0.01888853260427713,-0.019417232653498647
1772525798155532000,7.673531982421875,0.10548632734417915,0.00538768438771367,-0.013102642679214477
1772525798165515300,7.683515380859375,0.11954700140058994,0.027433219718188045,-0.01563274567872286
1772525798175499300,7.693499267578125,0.1494552329301834,0.05301701217740774,-0.009824936182796954
1772525798185482200,7.703482177734375,0.17036182735860347,0.04458996009379625,-0.011329787787795066
1772525798195465200,7.71346533203125,0.17486849112808703,0.01927007926777005,-0.014923136104643344
1772525798205449200,7.72344921875,0.1644382825285196,-0.008275953175127505,-0.020795535269379616
1772525798215432200,7.73343212890625,0.1435463011473417,0.0026375088967382906,-0.04720160389691591
1772525798225415200,7.743415283203125,0.13323591953516006,-0.009920943903177977,-0.082097560711205
1772525798235399200,7.753399169921875,0.11187748968601226,-0.011330372309684754,-0.08989186784923076
1772525798245382400,7.76338232421875,0.07469137610793113,-0.010266980861872435,-0.0686518036827445
1772525798255366400,7.773366455078125,0.02662204946577549,-0.018394027085602283,-0.05817863272428512
1772525798265349000,7.78334912109375,-0.010090601381659507,-0.013671382477879523,-0.03464139753133058
1772525798275332000,7.79333203125,-0.031252047353982924,-0.0016734861701726913,-0.01259703124463558
1772525798285316400,7.80331640625,-0.04144143293499946,-0.011448737992346286,0.01621434495896101
1772525798295299300,7.81329931640625,-0.021796821266412733,-0.02020560655221343,-0.006988251452147961
1772525798305282000,7.823281982421875,-0.015158990687131882,-0.029562048440426588,0.00036912557333707805
1772525798315266000,7.83326611328125,-0.03935059813559055,-0.040270635589957235,0.01775397561639547
1772525798325249300,7.843249267578125,-0.04627718252837658,-0.018561930998414754,-0.012694061878323554
1772525798335233300,7.8532333984375,-0.05381342325210571,-0.0043587797313928605,-0.0006368365988135337
1772525798345216300,7.86321630859375,-0.06026186873912811,-0.01520151465460658,0.025131226386129853
1772525798355199200,7.87319921875,-0.07343757665455342,-0.019157851064950226,0.03265343858450651
1772525798365183200,7.883183349609375,-0.07362813079059123,-0.016780454409122465,0.025526070922613144
1772525798375166200,7.893166259765625,-0.033761984348297115,0.003816781809180975,0.00734422528296709
1772525798385149200,7.903149169921875,0.02539806062877178,0.006876900032162666,0.025061376020312307
1772525798395133200,7.91313330078125,0.06984159798920155,-0.012924948024749755,0.023012042275071143
1772525798405116400,7.923116455078125,0.10500585035085677,0.017323913636058567,0.004515431597828865
1772525798415100400,7.933100341796875,0.1134878474920988,0.03098565150275826,-0.019884557904303074
1772525798425083100,7.943083251953125,0.10689093344509601,0.013683803568035363,-0.029144845941662785
1772525798435066000,7.953066162109375,0.09181319130063056,0.0031698622077703472,-0.0401826650455594
1772525798445050000,7.963050048828125,0.08846212730705738,0.0037922318898141382,-0.02450023500621319
1772525798455033300,7.973033447265625,0.061655368924140926,0.003584580488502979,0.0037704584494233128
1772525798465016000,7.98301611328125,0.01464227333664894,-0.006583031652122736,0.007697276504337787
1772525798475000000,7.993,-0.038083939200639724,0.013573767322301864,0.026373335401713847
1772525798484980200,8.002980224609376,-0.03853635914325714,0.014370178396999835,0.02554477562308311
1772525798494964200,8.012964111328126,-0.03474339660108089,0.047819005142897365,0.027652561557292937
1772525798504947200,8.022947265625,0.008802899658679962,0.049640813742578026,0.02641775906533003
1772525798514931200,8.03293115234375,0.07144844866394996,0.04227919893339276,0.03349778045415878
1772525798524914200,8.0429140625,0.12631401131749154,0.03771685945391655,0.03560615091025829
1772525798534897400,8.0528974609375,0.15377952587008475,0.01776639670655131,0.015278233152627944
1772525798544881200,8.062881103515625,0.1406184310019016,0.01427826232984662,-0.0094046649441123
1772525798554864000,8.072864013671875,0.0959679728925228,0.022374182762950657,-0.025981997996568678
1772525798564847000,8.08284716796875,0.04001870665550232,0.02730842429473996,-0.033302842403948305
1772525798574831400,8.092831298828125,-0.030485154634714125,0.02601692317947745,-0.03398322588354349
1772525798584814300,8.102814453125,-0.06506488510668278,0.017017916426807642,-0.03852846809774637
1772525798594797000,8.112797119140625,-0.046319268104434014,0.015548282265663146,-0.016705927868187427
1772525798604781000,8.122781005859375,-0.02781447412073612,0.005806348191201687,0.013916589410603046
1772525798614764300,8.132764404296875,0.004901800566911697,0.019337153154611587,0.020190847374498843
1772525798624748300,8.142748291015625,0.04032265803813934,0.02606909175813198,0.0005067804783582687
1772525798634731300,8.152731201171875,0.04990414085388183,0.01835822511985898,-0.009928981079161167
1772525798644714200,8.16271435546875,0.040376434051990505,0.027625235158950087,0.015301321767270564
1772525798654698200,8.1726982421875,0.014925181931257248,0.02856456183567643,0.03868716579079628
1772525798664681200,8.18268115234375,-0.003796469673514366,0.028358810130506753,0.015545651917159557
1772525798674664200,8.192664306640625,0.009720014503598213,0.023228899896144864,-0.017206278605759143
1772525798684648200,8.202648193359375,0.0350742359906435,-0.007517097631841898,-0.016126666675508022
1772525798694631400,8.21263134765625,0.06184884566962719,-0.02786518139466643,-0.006453413923084735
1772525798704615200,8.222615234375,0.06088555359542369,-0.03850800983160734,-0.00341156200915575
1772525798714598100,8.23259814453125,0.0729588532269001,-0.040344139217585326,0.0006125789403915405
1772525798724581000,8.2425810546875,0.07106909395754336,-0.0340372941583395,0.027784955765306946
1772525798734565400,8.2525654296875,0.06482230852246285,-0.025868308489024636,0.030026304951310156
1772525798744548400,8.26254833984375,0.03786182088255882,-0.013234013973921537,0.03125350865870714
1772525798754531000,8.272531005859374,0.014836334604024887,0.011849866139143704,0.010458850172162056
1772525798764515000,8.28251513671875,0.026342063480615616,0.028050913225114344,-0.004827274025976658
1772525798774498300,8.292498291015624,0.04987900641262531,0.008246873211115599,0.013935294111073016
1772525798784482300,8.302482421875,0.07447802561819553,-0.004196428776532412,0.013923311412334442
1772525798794465300,8.31246533203125,0.10336392836272716,0.003955459627509117,-0.009799217219650744
1772525798804448000,8.322447998046876,0.13782441636919973,0.006821808844059705,-0.027157179255783558
1772525798814432300,8.332432373046874,0.12563304331600667,0.011907295414805412,-0.025370003578066826
1772525798824415200,8.342415283203126,0.1147036530226469,0.0017620412364602088,-0.03565671205371618
1772525798834398200,8.352398193359376,0.07654781762957573,0.0060812196098268025,-0.059149815843999386
1772525798844382200,8.36238232421875,0.03456920907795429,0.012924948024749755,-0.026045418621599672
1772525798854365200,8.372365234375,0.021277765828371046,0.04554682242721319,-0.02193681425899267
1772525798864350200,8.38235009765625,0.0712286684334278,0.0298936184823513,0.018190321207046507
1772525798874334200,8.392334228515624,0.08028525059223175,0.016496961292624474,0.009551672199368475
1772525798884317200,8.402317138671876,0.04281739746332169,0.022706775718182325,-0.0024307342782616615
1772525798894300200,8.412300048828126,0.020097616133093833,0.027079730105400084,-0.004527706557512283
1772525798904284200,8.4222841796875,0.0031990883022546767,0.012170038004219532,-0.006521218462288379
1772525798914267400,8.432267333984376,-0.006458966881036758,0.013160510346293449,0.009256780906021594
1772525798924251400,8.44225146484375,-0.009370470413565635,0.02362359830215573,0.03395663013756275
1772525798934234000,8.452234130859376,0.025104046118259428,0.03577829260677099,0.06435118387937545
1772525798944217000,8.462217041015625,0.058597150397300714,0.04782514262273908,0.08749795845001936
1772525798954201300,8.472201416015626,0.08731295727193356,0.0336221374861896,0.08384615794420242
1772525798964184300,8.482184326171875,0.08164777111709118,0.020031272898614404,0.03540127598792314
1772525798974167000,8.4921669921875,0.03615267887711525,-0.00483545733243227,-0.008060556858778
1772525798984151000,8.502151123046875,0.011688684228062629,-0.019452303966879844,-0.01697860732972622
1772525798994134300,8.51213427734375,0.027967618855834004,-0.007428396435081959,-0.014700141003727912
1772525799004118300,8.5221181640625,0.04417465729117393,-0.0034707448504865167,-0.0031660628154873845
1772525799014101200,8.532101318359375,0.036167291924357414,-0.0010107844777405262,-0.0006198854640126228
1772525799024084200,8.542084228515625,0.029445874714851376,0.003311608766019344,-0.012706336838006973
1772525799034068200,8.552068115234375,0.039738720670342446,0.010162643704563379,-0.015373217959702014
1772525799044051200,8.56205126953125,0.028410686448216437,0.010125672695040703,0.00407996279001236
1772525799054034200,8.5720341796875,0.030168343770503998,0.012224690800905227,0.01553279243558645
1772525799064018200,8.58201806640625,0.03620470132529735,0.009039923284947871,0.02773030296862125
1772525799074001400,8.59200146484375,0.0213712893307209,0.007248802084475755,0.027452947331964968
1772525799083985400,8.6019853515625,0.010443068081140518,0.013048282143473625,0.014201251570880412
1772525799093968100,8.611968017578125,0.010588614031672477,0.019972674579173327,0.004171148204803466
1772525799103951000,8.621951171875,0.024682021313905716,0.0186567696750164,-0.008522329151630401
1772525799113935400,8.631935302734375,0.04562485609948635,0.011191986752301453,-0.01832183863222599
1772525799123918300,8.64191845703125,0.06580547434091567,0.011056962195783853,-0.02000935332775116
1772525799133901000,8.651901123046875,0.07674655507206916,0.01637523460909724,-0.017135259196162222
1772525799143885000,8.661885009765625,0.08465162910819053,0.01571384809091687,-0.011622633254528045
1772525799153868300,8.671868408203125,0.06982815398573874,0.009222586375474929,-0.008501578624546527
1772525799163851300,8.681851318359374,0.0365425549775362,0.011780746425688266,-0.016608897234499452
1772525799173835300,8.691835205078124,0.007332827106118202,0.01623845648691058,-0.04192863193005323
1772525799183818200,8.701818359375,-0.008735679641366005,0.01729395688921213,-0.05163578695207834
1772525799193802200,8.71180224609375,0.009033201283216476,0.028794717329740524,-0.032365269292891026
1772525799203785200,8.72178515625,0.03151215959489345,0.0348946416400373,-0.0104503746047616
1772525799213768200,8.731768310546874,0.06265314778983593,0.027991291992366312,-0.0033770752176642414
1772525799223752200,8.741752197265624,0.10246668726205825,0.00628331805318594,-0.004413140267133712
1772525799233735400,8.7517353515625,0.11346329757273196,-0.013301233991235494,-0.006200315944850444
1772525799243718100,8.76171826171875,0.0973451064646244,-0.014620353765785693,-0.02633358791321516
1772525799253702100,8.7717021484375,0.06637246057391166,-0.03783464061468839,-0.04608867421895265
1772525799263685000,8.78168505859375,0.0328910467326641,-0.039388445927947754,-0.04989800337404012
1772525799273669000,8.791669189453126,0.023341712620854375,-0.03963058412075043,-0.033488428103923794
1772525799283652400,8.80165234375,-0.00047989247143268585,-0.04072480909824371,-0.002461421677470207
1772525799293635000,8.811635009765626,-0.002304185289144516,-0.011660042655467986,0.009075579120218754
1772525799303619000,8.821619140625,-0.020607903742790222,-0.002229366487264633,0.037543840974569316
1772525799313602300,8.831602294921876,-0.048832127708196636,0.011269435902684926,0.04699819027930498
1772525799323585300,8.841585205078125,-0.03828910638391971,0.021400223164260386,0.033057927732169624
1772525799333569300,8.8515693359375,-0.020588029998540876,-0.006265344005078077,0.036950551256537435
1772525799343552000,8.861552001953125,0.011086626681685446,-0.010478577785938978,0.018837971460819242
1772525799353536300,8.871536376953125,0.05041267489790916,-0.007969225313514471,-0.004542904126644134
1772525799363519200,8.881519287109375,0.07560732190907,-0.009999123705923556,-0.008050035464763641
1772525799373502200,8.891502197265625,0.09090835141539573,-0.01797039484605193,0.0010813654959201812
1772525799383486200,8.901486328125,0.07969429896175861,-0.0029633798502385613,-0.011361936491727828
1772525799393469400,8.911469482421875,0.04327800071239471,0.0029328385815024375,-0.015901333487033844
1772525799403452200,8.9214521484375,0.013541034096479415,0.004005874640494585,-0.02562427060008049
1772525799413436200,8.931436279296875,-0.0208703540712595,0.01709521944671869,-0.026499299868941305
1772525799423419100,8.941419189453125,-0.029191607692837712,0.03169891433864832,-0.0328828634262085
1772525799433403100,8.951403076171875,0.01511982772052288,0.04986176301687956,-0.022808628657460212
1772525799443386400,8.961386474609375,0.07462649417817592,0.036820787397027016,0.0033966567009687423
1772525799453369000,8.971369140625,0.10318681823015212,0.030373949345201254,0.008730711205303669
1772525799463353000,8.98135302734375,0.12395605001449585,0.023277707473933696,-0.018161095112562177
1772525799473336300,8.99133642578125,0.1316530342578888,-0.0024555764585733413,-0.03228489753305912
1772525799483319300,9.0013193359375,0.11994856793880462,-0.01443900584951043,-0.04699555993080139
1772525799493303300,9.01130322265625,0.06892331410050392,-0.0254582663834095,-0.05018529588282108
1772525799503286000,9.0212861328125,0.019698387682437896,-0.008964519961178303,-0.03631517596244812
1772525799513270000,9.03127001953125,-0.01654196947813034,0.009242606250196695,-0.017352701339125632
1772525799523253200,9.041253173828125,-0.03409516182541847,0.02124678616821766,0.011863164012134074
1772525799533236200,9.051236328125,-0.008981763356924057,0.03118804220706224,0.04136749091595411
1772525799543220200,9.06122021484375,0.03154021664559841,0.02609291102513671,0.07203735446780919
1772525799553203200,9.071203125,0.07870061174929141,0.014024725960195064,0.08501783207207918
1772525799563186200,9.081186279296874,0.11887480122745037,0.004360094905644655,0.06817921773493289
1772525799573170200,9.091170166015624,0.10625322006344795,-0.008754968863725662,0.03388151907473803
1772525799583153200,9.101153076171874,0.05627192232012748,-0.00974631798863411,0.013922142368555069
1772525799593137200,9.11113720703125,-0.007492986103892326,0.0009239829771220683,0.00774549956023693
1772525799603120400,9.121120361328124,-0.04352291538417339,0.026536563139408824,-0.009134323570132255
1772525799613103000,9.13110302734375,-0.06630933220982552,0.03975187241286039,0.0024509002834558484
1772525799623087000,9.141087158203124,-0.0584627103626728,0.044930005703121424,0.021970424267649648
1772525799633070300,9.1510703125,-0.016015899777412412,0.026603637026250362,0.02797784798890352
1772525799643053300,9.16105322265625,0.00336450799703598,0.01746624471619725,0.028943185889720915
1772525799653037300,9.171037353515626,0.03863514334261417,0.012022153966128825,0.017314999677240848
1772525799663020000,9.18102001953125,0.046049218991398806,0.008655161751061678,-0.007055471469461917
1772525799673004000,9.191004150390626,0.05579144532680511,0.004622837495058775,-0.031953181360661984
1772525799682987300,9.2009873046875,0.07771101619005202,0.01291208854317665,-0.05027034381777048
1772525799692970200,9.21097021484375,0.09642156187891959,0.009379384372383356,-0.03829436708092689
1772525799702954200,9.220954345703126,0.09432195925116539,0.0048797348655760285,-0.0020309213057160378
1772525799712937200,9.230937255859375,0.05899930145740509,0.0014915537320077418,0.005362696076929569
1772525799722920200,9.240920166015625,0.044728784042596816,0.010230448243767022,0.002175298212468624
1772525799732904200,9.250904296875,0.033331191715598105,0.01344751059412956,-0.003928279359638691
1772525799742887200,9.26088720703125,0.033959552747011186,-0.012367168011516333,-0.0037242812201380726
1772525799752871200,9.27087109375,0.04125029427707195,-0.02010360748246312,-0.016317805333435534
1772525799762854400,9.2808544921875,0.05205401236414909,-0.015108721804618835,-0.01864157210588455
1772525799772837000,9.290837158203125,0.04523264191150665,-0.0225303962379694,-0.005480477237701416
1772525799782821000,9.300821044921875,0.02996960632801056,-0.004235299482196569,0.01616992129534483
1772525799792804400,9.310804443359375,0.007754851910471916,0.025133126082271338,0.018051497258245945
1772525799802787300,9.320787353515625,-0.006968085446953773,0.04275236940309405,0.019080255784094332
1772525799812771300,9.330771240234375,0.016195932519435883,0.06249576527103781,0.001581131711602211
1772525799822754000,9.340754150390625,0.06007832886576652,0.034062720860540865,-0.008289981700479983
1772525799832738000,9.350738037109375,0.1115624323874712,0.010294745651632548,-0.02200344975441694
1772525799842721300,9.36072119140625,0.11293839691579341,0.0067947747066617005,-0.013896423405408859
1772525799852704300,9.370704345703125,0.10075111551582813,0.012179244223982096,-0.015042086309194564
1772525799862688300,9.380688232421875,0.08916121548712252,0.01965411014929414,-0.012907996889948843
1772525799872671200,9.390671142578125,0.05105740254223346,0.028977526550740002,0.007305062316358089
1772525799882654200,9.400654296875,0.007878770551085471,0.02914163107126951,0.007881985421478747
1772525799892638200,9.41063818359375,-0.003468552893400192,0.03886924435943365,-0.012317045259475707
1772525799902621200,9.42062109375,-0.0110842885941267,0.010316811352968216,-0.016059738919138908
1772525799912605200,9.430605224609375,0.026824294039607045,0.002814034507423639,-0.003265723797678947
1772525799922588200,9.440588134765624,0.05764613328278064,-0.01042377885878086,0.01189823532551527
1772525799932571100,9.450571044921874,0.06401625283658505,-0.032393618604540826,0.021949673740565775
1772525799942555100,9.46055517578125,0.05086275675296783,-0.022594255254417658,0.016648060201108456
1772525799952538400,9.470538330078124,0.05772270565032959,-0.007353431502729654,0.004586451007425785
1772525799962521300,9.480521240234374,0.06444178477227687,-0.010284224257618189,-0.019921090522408483
1772525799972505300,9.49050537109375,0.08414952480494975,-0.02720101839751005,0.03190992674082518
1772525799982488000,9.500488037109376,0.08450374507009982,-0.030402737048268316,-0.03938859205842018
1772525799992472000,9.51047216796875,0.059742813301086425,-0.05756137760877609,-0.06070493633151054
1772525800002455300,9.520455322265626,0.042185529300570485,-0.048851709191501134,-0.06977700832039117
1772525800012438300,9.530438232421876,0.016262568014860153,-0.03719707336351275,-0.059247723260521884
1772525800022422300,9.54042236328125,-0.00810673408806324,-0.03284764598235488,-0.03185731977075338
1772525800032405200,9.5504052734375,-0.02947802341878414,-0.0023509470403194426,-0.001016191305220127
1772525800042388200,9.56038818359375,-0.043048283609747884,0.01264130877777934,0.023539281019568443
1772525800052372200,9.570372314453126,-0.025816578301787376,0.03172521782368421,0.027623919984698295
1772525800062355200,9.580355224609375,0.027175007173418995,0.04606865434423089,0.012814765648543834
1772525800072339200,9.590339111328126,0.07300561497807502,0.014223901794105768,-0.008672843538224697
1772525800082322200,9.600322265625,0.08999766631126403,-0.016096709928661582,-0.023118717519938943
1772525800092305200,9.61030517578125,0.07948328655958176,-0.01791705722361803,-0.09473667753189802
1772525800102289200,9.6202890625,0.07342004099786281,-0.017846476205438375,-0.12126812610477208
1772525800112272400,9.6302724609375,0.056846507337689395,-0.021954349915683267,-0.0815817201435566
1772525800122255400,9.64025537109375,0.0681570059031248,-0.01526274332255125,-0.04172083439826965
1772525800132239000,9.650239013671875,0.06075637425780296,0.0020779753178358077,0.0045949265748262405
1772525800142222000,9.66022216796875,0.03690788115859032,0.007039835508912801,0.046726972122490405
1772525800152206300,9.670206298828125,0.034599019694328305,0.0054516895346343516,0.047858314239978786
1772525800162189600,9.680189453125,0.018846154767274855,0.01246200668811798,0.040682431261241436
1772525800172172500,9.690172607421875,-0.013300211077928543,0.0028960137024521826,0.02196311774402857
1772525800182156500,9.700156494140625,-0.02760229267477989,0.009228577724844218,-0.007432195827364921
1772525800192139300,9.71013916015625,-0.030216274565458296,0.013389935187995434,-0.023522622145712373
1772525800202122500,9.72012255859375,-0.0003109656453132629,0.01507102014273405,-0.016137480330467222
1772525800212106500,9.7301064453125,0.04973521402776241,-0.002286649632453918,0.0038151743739843367
1772525800222089500,9.74008935546875,0.08134674234390259,0.0051480304129421705,0.020832067887485026
1772525800232073500,9.750073486328125,0.07894903355240822,0.018095774791389702,0.03844517372846603
1772525800242056400,9.760056396484375,0.05016133048534393,0.0236206756927073,0.04808423195034265
1772525800252039400,9.770039306640625,0.017028876212239266,0.034671062017232177,0.031063539044559
1772525800262023400,9.7800234375,-0.0065986676126718515,0.038977965430915355,0.032732056778669354
1772525800272006400,9.79000634765625,0.0043622868627309795,0.04252484425753355,0.005771861399710178
1772525800281989600,9.79998974609375,0.032850714722275735,0.03261106074750423,0.003979132764041424
1772525800291973400,9.809973388671875,0.061253802385926245,0.02952624647468328,0.009060381551086903
1772525800301956400,9.819956298828124,0.06709317606389523,0.02703589096367359,0.01749649372398853
1772525800311940400,9.8299404296875,0.061007718670368194,0.03972323084026575,0.03662877195626497
1772525800321923600,9.839923583984374,0.024303251129388807,0.04737447624579072,0.054847442474961275
1772525800331906600,9.849906494140624,0.012167992177605629,0.05232230791151523,0.048399581509828565
1772525800341890600,9.859890625,0.056036944520473475,0.06435644457638263,0.015671616384387015
1772525800351873300,9.869873291015624,0.10009995813071727,0.025952187380194662,0.0006572948649525642
1772525800361856500,9.8798564453125,0.1310246732264757,-0.006248831261694431,0.03637158232480287
1772525800371840500,9.889840576171874,0.14741758962273596,0.009067395813763141,-0.018797054928541182
1772525800381823500,9.899823486328126,0.12449614824056625,0.015603957975655794,-0.02730827816426754
1772525800391807500,9.909807373046876,0.08704173911511898,-0.010246960987150668,-0.009475099831819534
1772525800401790500,9.91979052734375,0.03850011878609657,-0.0075856328234076495,-0.0016574118182063101
1772525800411773400,9.9297734375,-0.017487725895643232,0.009779635736346244,0.021339432887732983
1772525800421757400,9.93975732421875,-0.03852233061790466,0.014333061257004736,0.05235065722316503
1772525800431740400,9.949740478515626,-0.025332594177126883,0.03149477006867528,0.03103782008141279
1772525800441723600,9.9597236328125,0.017048165434598923,0.0189510764464736,0.007887830640375614
1772525800451707400,9.969707275390626,0.05045592951774597,-0.040433132675290105,0.008732757031917572
1772525800461690400,9.9796904296875,0.036550153762102126,0.0012663666740059852,0.027156010212004183
1772525800471674400,9.98967431640625,0.027009002956748008,0.027059417969733476,-0.04865238722711801
1772525800481657600,9.99965771484375,0.035675709015130994,0.02072685394734144,-0.03298632380068302
1772525800491640600,10.009640625,0.04719663546085357,-0.013252426413446664,0.005499181938171387
1772525800501624600,10.01962451171875,0.06377075364291668,0.009305442353338002,0.008713467809557915
1772525800511607300,10.029607177734375,0.06281622939705848,0.022699615325033663,-0.005169803853332996
1772525800521590500,10.039590576171875,0.027081483671069145,0.007811404403299093,0.008800561571121215
1772525800531574500,10.049574462890625,-0.012447978162765503,0.024589812985807657,-0.0037102526947855948
1772525800541557500,10.0595576171875,-0.017613982623815534,0.053541766703873866,-0.042350948995351786
1772525800551541500,10.06954150390625,0.01665478220283985,0.04111263937205076,-0.015633330200612545
1772525800561524500,10.0795244140625,0.03637187458574772,0.005006137724220753,0.005882628297805786
1772525800571507500,10.089507568359375,0.041975101420283316,-0.007734978166222572,0.014390636663138865
1772525800581491500,10.099491455078125,0.02424830607175827,-0.01897168084308505,0.014765315194427966
1772525800591474400,10.109474365234375,-0.010336100575327873,-0.020268004263937472,0.009678221188485622
1772525800601457400,10.11945751953125,-0.011540215668082237,-0.017147095764428376,-0.03821078045070171
1772525800611441400,10.12944140625,0.025526070922613144,-0.0035942250996828075,-0.05034866975098848
1772525800621424400,10.13942431640625,0.08184884664714336,-0.01961626235693693,-0.052776773680746555
1772525800631408400,10.149408447265625,0.16766133622825144,-0.045258068613708013,-0.05054857623726129
1772525800641391600,10.1593916015625,0.21736673963963984,-0.050961540952324864,-0.040813071903586386
1772525800651374600,10.16937451171875,0.226879833394289,-0.046179567372798914,-0.04134060290902853
1772525800661358300,10.1793583984375,0.24918109705150127,-0.02753843365833163,-0.06738982092291117
1772525800671341300,10.18934130859375,0.2672399008333683,-0.06833762316703795,-0.07161737549006938
1772525800681324500,10.199324462890624,0.2338029106557369,-0.13197481355816126,-0.027034137398004532
1772525800691308500,10.20930859375,0.22622750696539878,-0.05899404076039791,0.009942425082623958
1772525800701291500,10.21929150390625,0.24223346987068653,-0.0354084363810718,0.12690817781835795
1772525800711275500,10.229275634765624,0.1232084465175867,-0.00505567595437169,0.15563801321834325
1772525800721258500,10.239258544921874,0.017137597283720968,0.034541444288194174,0.009946808996796607
1772525800731241500,10.249241455078124,-0.10932195998430251,0.016070844835042952,-0.1330661159262061
1772525800741225500,10.2592255859375,-0.14057634542584418,-0.019784312400221823,-0.21879268078953026
1772525800751208400,10.26920849609375,-0.049124973174929615,-0.08842471790611743,-0.2495858784601092
1772525800761191400,10.27919140625,-0.011786883905529975,-0.258764041171968,-0.42270372652858496
1772525800771175400,10.289175537109376,-0.071782210662961,-0.17465777098685503,-0.6746548728153109
