time,seconds_elapsed,z,y,x
1772525790568166700,0.086166748046875,-0.17270876467227936,0.009660646319389343,-0.02185768634080887
1772525790578150700,0.096150634765625,-0.15497668087482452,-0.02405443787574768,-0.003482978790998459
1772525790588134000,0.1061337890625,-0.13093765079975128,-0.05304880440235138,0.011504226364195347
1772525790598118000,0.116117919921875,-0.10838037729263306,-0.05931567773222923,0.01872640661895275
1772525790608100600,0.1261005859375,-0.07885391265153885,-0.054041288793087006,0.017418527975678444
1772525790618083800,0.136083740234375,-0.05151817202568054,-0.021259620785713196,0.016628339886665344
1772525790628067800,0.14606787109375,-0.038360293954610825,0.023170428350567818,0.04077575355768204
1772525790638050800,0.15605078125,-0.02976851537823677,0.05637722462415695,0.09661375731229782
1772525790648034800,0.166034912109375,-0.01541780587285757,0.06314218789339066,0.16849273443222046
1772525790658017500,0.176017578125,0.0011963248252868652,0.028202228248119354,0.2497304379940033
1772525790668000800,0.186000732421875,0.02283131331205368,-0.03865563124418259,0.3248976171016693
1772525790677984800,0.19598486328125,0.03694423288106918,-0.10562313348054886,0.3901953399181366
1772525790687967700,0.2059677734375,0.047315116971731186,-0.16716159880161285,0.43502405285835266
1772525790697951700,0.21595166015625,0.05026696249842644,-0.22972510755062103,0.4532925486564636
1772525790707934700,0.225934814453125,0.050491735339164734,-0.2963387668132782,0.4388028085231781
1772525790717917700,0.235917724609375,0.06266490370035172,-0.3291082978248596,0.39993932843208313
1772525790727901700,0.245901611328125,0.06847751885652542,-0.29794931411743164,0.3428044021129608
1772525790737884700,0.255884765625,0.0652759000658989,-0.20958800613880157,0.268891841173172
1772525790747868000,0.265867919921875,0.05435454472899437,-0.08937931060791016,0.17834331095218658
1772525790757852000,0.275851806640625,0.04489928483963013,0.006204808130860329,0.10315370559692383
1772525790767834600,0.285834716796875,0.025616668164730072,0.05098666250705719,0.059748437255620956
1772525790777818600,0.295818603515625,0.001505221240222454,0.06727871298789978,0.059727780520915985
1772525790787801900,0.3058017578125,-0.019710585474967957,0.0799764022231102,0.08928300440311432
1772525790797784800,0.315784912109375,-0.023813826963305473,0.08060059696435928,0.1259365677833557
1772525790807768800,0.325768798828125,-0.014171319082379341,0.05593014135956764,0.16543817520141602
1772525790817751600,0.33575146484375,0.0012042354792356491,0.025690093636512756,0.1999446600675583
1772525790827735600,0.345735595703125,0.01834966614842415,0.0048955995589494705,0.23420889675617218
1772525790837718800,0.35571875,0.0335393063724041,0.0048567159101367,0.2694273889064789
1772525790847701800,0.36570166015625,0.04792623594403267,0.030485378578305244,0.2893771231174469
1772525790857685800,0.375685791015625,0.06948450207710266,0.05738489702343941,0.3002108037471771
1772525790867668700,0.385668701171875,0.0893775150179863,0.050807155668735504,0.31497299671173096
1772525790877652700,0.39565283203125,0.09582885354757309,0.01031038910150528,0.32929444313049316
1772525790887635700,0.4056357421875,0.08930996805429459,0.0037635399494320154,0.3513107895851135
1772525790897618700,0.41561865234375,0.07086391001939774,0.033971045166254044,0.36086753010749817
1772525790907602700,0.425602783203125,0.052767202258110046,0.07667537033557892,0.34877172112464905
1772525790917585700,0.435585693359375,0.04157067835330963,0.1117798388004303,0.31170257925987244
1772525790927568600,0.445568603515625,0.044473789632320404,0.133187934756279,0.263355016708374
1772525790937552600,0.455552734375,0.04440174624323845,0.13231979310512543,0.20433199405670166
1772525790947536000,0.465535888671875,0.041297029703855515,0.13897928595542908,0.14781811833381653
1772525790957520000,0.475519775390625,0.030209163203835487,0.1353629231452942,0.1005808413028717
1772525790967502800,0.4855029296875,0.021479053422808647,0.13196046650409698,0.06088615581393242
1772525790977485600,0.495485595703125,0.014860517345368862,0.12551277875900269,0.027764270082116127
1772525790987469600,0.505469482421875,0.007139481604099274,0.1071430966258049,0.005947122350335121
1772525790997452800,0.515452880859375,-0.005701011046767235,0.09000976383686066,-0.011268522590398788
1772525791007436800,0.525436767578125,-0.023793194442987442,0.05449038743972778,-0.01669950596988201
1772525791017419800,0.535419677734375,-0.04868277162313461,0.0192016139626503,-0.018761521205306053
1772525791027402800,0.54540283203125,-0.06339167803525925,-0.017053063958883286,-0.018360981717705727
1772525791037386800,0.55538671875,-0.0756201297044754,-0.06400884687900543,-0.03153831139206886
1772525791047369700,0.56536962890625,-0.08106283098459244,-0.12079090625047684,-0.04373931512236595
1772525791057352700,0.575352783203125,-0.07749833166599274,-0.15351134538650513,-0.05666613578796387
1772525791067336700,0.585336669921875,-0.07238026708364487,-0.1530761867761612,-0.06979499012231827
1772525791077319700,0.595319580078125,-0.06184607371687889,-0.13263343274593353,-0.07980448007583618
1772525791087303700,0.6053037109375,-0.053029146045446396,-0.09478351473808289,-0.09093676507472992
1772525791097286700,0.61528662109375,-0.0471123531460762,-0.06292813271284103,-0.10627144575119019
1772525791107270000,0.625269775390625,-0.045559197664260864,-0.053002793341875076,-0.11871427297592163
1772525791117254000,0.63525390625,-0.043947938829660416,-0.04126767814159393,-0.12647776305675507
1772525791127236600,0.645236572265625,-0.0524681881070137,-0.0420176237821579,-0.1252037137746811
1772525791137220000,0.65522021484375,-0.05078748241066933,-0.02678336203098297,-0.10790535062551498
1772525791147203300,0.665203369140625,-0.04564305394887924,-0.0031126539688557386,-0.07820604741573334
1772525791157186000,0.67518603515625,-0.03907107934355736,0.006400747690349817,-0.04037632793188095
1772525791167170000,0.685170166015625,-0.021312586963176727,-0.004463617689907551,-0.005285187158733606
1772525791177153000,0.695153076171875,-0.009411375038325787,-0.018745021894574165,0.027674900367856026
1772525791187137000,0.705136962890625,0.002371248323470354,-0.042641568928956985,0.05322659760713577
1772525791197120300,0.715120361328125,0.00007236190140247345,-0.0652863159775734,0.06932338327169418
1772525791207103200,0.725103271484375,-0.010191993787884712,-0.057165540754795074,0.07802312821149826
1772525791217087000,0.7350869140625,-0.008228790946304798,-0.006806297227740288,0.08169908821582794
1772525791227070200,0.7450703125,0.0033873850479722023,0.0531529076397419,0.07649341225624084
1772525791237053200,0.75505322265625,0.014795412309467793,0.07610480487346649,0.06522706151008606
1772525791247037200,0.765037109375,0.027961283922195435,0.08421385288238525,0.05662184953689575
1772525791257020200,0.775020263671875,0.03579968586564064,0.083844855427742,0.05118400976061821
1772525791267004200,0.785004150390625,0.03719544783234596,0.06922490149736404,0.051872435957193375
1772525791276987100,0.794987060546875,0.03686816245317459,0.041871391236782074,0.05988556146621704
1772525791286970000,0.80497021484375,0.030883770436048508,0.016422223299741745,0.06428776681423187
1772525791296954000,0.8149541015625,0.03146667405962944,0.024785278365015984,0.0739891305565834
1772525791306937300,0.824937255859375,0.027941182255744934,0.03335932642221451,0.07678438723087311
1772525791316920000,0.834920166015625,0.025160152465105057,0.02651318907737732,0.06639891117811203
1772525791326904000,0.844904052734375,0.01597357913851738,-0.0010798226576298475,0.053247690200805664
1772525791336887000,0.854886962890625,-0.00038194330409169197,-0.014602914452552795,0.040529605001211166
1772525791346871000,0.86487109375,-0.011520614847540855,-0.012591162696480751,0.031524658203125
1772525791356854300,0.874854248046875,-0.018502185121178627,-0.015728332102298737,0.011996911838650703
1772525791366837000,0.8848369140625,-0.021754171699285507,-0.03632841631770134,-0.006703806109726429
1772525791376821000,0.894821044921875,-0.026761963963508606,-0.046253759413957596,-0.017623286694288254
1772525791386804200,0.90480419921875,-0.030500508844852448,-0.03720699995756149,-0.02969619259238243
1772525791396788200,0.914788330078125,-0.04246942698955536,-0.018398556858301163,-0.04413532465696335
1772525791406771200,0.924771240234375,-0.0461358018219471,-0.026160871610045433,-0.06113428249955177
1772525791416754200,0.934754150390625,-0.05382544547319412,-0.048832617700099945,-0.06729182600975037
1772525791426738000,0.944738037109375,-0.05361718684434891,-0.05203213915228844,-0.061443790793418884
1772525791436721200,0.95472119140625,-0.049785066395998,-0.03177341818809509,-0.04934793338179588
1772525791446704000,0.9647041015625,-0.0428059883415699,-0.01808849535882473,-0.033298928290605545
1772525791456688000,0.974688232421875,-0.0365719348192215,-0.011145585216581821,-0.015685519203543663
1772525791466671000,0.984671142578125,-0.03310609608888626,-0.0145112881436944,-0.006254732143133879
1772525791476655400,0.9946552734375,-0.028280075639486313,-0.023095231503248215,0.0019716662354767323
1772525791486638000,1.00463818359375,-0.025939155369997025,-0.04476457089185715,0.002601503860205412
1772525791496621000,1.01462109375,-0.03235107660293579,-0.050533659756183624,0.0008526588790118694
1772525791506605000,1.02460498046875,-0.02801358699798584,-0.027848053723573685,0.0048732333816587925
1772525791516588300,1.03458837890625,-0.03139237314462662,0.010084336623549461,0.005980359390377998
1772525791526571000,1.044571044921875,-0.035765014588832855,0.02541615441441536,0.011746102944016457
1772525791536555000,1.054554931640625,-0.0369642972946167,0.03237564489245415,0.008662790060043335
1772525791546538200,1.064538330078125,-0.03359806165099144,0.029248559847474098,0.010632996447384357
1772525791556522200,1.074522216796875,-0.031973518431186676,0.014982793480157852,0.008088627830147743
1772525791566505200,1.084505126953125,-0.026969971135258675,-0.011059459298849106,0.013593115843832493
1772525791576488200,1.09448828125,-0.024858444929122925,-0.018028564751148224,0.033563148230314255
1772525791586472000,1.104471923828125,-0.021559588611125946,-0.004993723705410957,0.05370277166366577
1772525791596455200,1.114455078125,-0.01669541746377945,0.025325952097773552,0.07300994545221329
1772525791606439200,1.124439208984375,-0.013416534289717674,0.041759517043828964,0.08412997424602509
1772525791616422100,1.134422119140625,-0.010599613189697266,0.03681773319840431,0.07791558653116226
1772525791626405000,1.144405029296875,-0.0024029361084103584,0.037496309727430344,0.057964518666267395
1772525791636389400,1.154389404296875,0.00465379748493433,0.050594210624694824,0.035384323447942734
1772525791646372000,1.1643720703125,0.011978022754192352,0.04238554835319519,0.012658771127462387
1772525791656355000,1.17435498046875,0.010465065017342567,0.02024802379310131,-0.007104284130036831
1772525791666339000,1.184339111328125,0.00771002471446991,0.004198485054075718,-0.014094282872974873
1772525791676322300,1.194322265625,0.0075622075237333775,0.02938481792807579,-0.010525437071919441
1772525791686306300,1.204306396484375,0.005976828280836344,0.0532241053879261,-0.0025937450118362904
1772525791696289000,1.2142890625,0.005178564693778753,0.06150877848267555,0.0022008055821061134
1772525791706272000,1.22427197265625,0.004658715333789587,0.03770997002720833,0.008416890166699886
1772525791716256300,1.23425634765625,0.00572661217302084,0.00990968570113182,0.011888904497027397
1772525791726239200,1.2442392578125,0.001389654353260994,-0.011259515769779682,0.015299348160624504
1772525791736223200,1.25422314453125,-0.005460104905068874,-0.03854755684733391,0.014652840793132782
1772525791746206000,1.2642060546875,-0.006117106880992651,-0.059574007987976074,0.01770828664302826
1772525791756189200,1.274189208984375,0.002766383346170187,-0.0674513727426529,0.028479434549808502
1772525791766173200,1.284173095703125,0.010838158428668976,-0.05465754494071007,0.02943550795316696
1772525791776156200,1.29415625,0.020721085369586945,-0.03385184332728386,0.033598728477954865
1772525791786139100,1.30413916015625,0.018251270055770874,-0.026895400136709213,0.036013949662446976
1772525791796123100,1.314123046875,0.01387159712612629,-0.02356826514005661,0.03460656479001045
1772525791806106000,1.324106201171875,0.005099677015095949,-0.011100143194198608,0.026691650971770287
1772525791816090000,1.334090087890625,0.0006728270091116428,0.012477213516831398,0.015586011111736298
1772525791826073000,1.344072998046875,-0.008245034143328667,0.019008615985512733,0.0057072811760008335
1772525791836056300,1.354056396484375,-0.010926477611064911,0.021626384928822517,-0.0062998998910188675
1772525791846040300,1.364040283203125,-0.016550540924072266,0.018794113770127296,-0.0077579813078045845
1772525791856023000,1.37402294921875,-0.02030382677912712,0.027032187208533287,-0.008938772603869438
1772525791866006000,1.384006103515625,-0.023693233728408813,0.016920166090130806,-0.008669527247548103
1772525791875990300,1.393990234375,-0.023480713367462158,-0.0059710354544222355,-0.004771192092448473
1772525791885973200,1.40397314453125,-0.024382458999753,-0.013098187744617462,-0.0005349018611013889
1772525791895957200,1.413957275390625,-0.021519452333450317,-0.0043489462696015835,0.006982031743973494
1772525791905940000,1.42393994140625,-0.01720539852976799,0.0021361173130571842,0.013721426948904991
1772525791915923200,1.433923095703125,-0.01374206505715847,-0.0018812189809978008,0.01829870603978634
1772525791925907200,1.4439072265625,-0.010626433417201042,0.0005768788978457451,0.019537076354026794
1772525791935890200,1.45389013671875,-0.006079932674765587,0.026161344721913338,0.02389661967754364
1772525791945873000,1.463872802734375,-0.009869877249002457,0.03609547019004822,0.019306395202875137
1772525791955857200,1.473857177734375,-0.017211053520441055,0.023456253111362457,0.007820927537977695
1772525791965840100,1.483840087890625,-0.021376237273216248,0.006157956551760435,0.0014530429616570473
1772525791975824100,1.49382421875,-0.022362546995282173,0.004341015592217445,-0.00376915093511343
1772525791985807000,1.50380712890625,-0.02136838808655739,0.006783400662243366,-0.003865291364490986
1772525791995790300,1.513790283203125,-0.019986001774668694,0.003690702375024557,-0.0027857553213834763
1772525792005774000,1.523774169921875,-0.015845052897930145,-0.0004236150998622179,-0.0032131923362612724
1772525792015757000,1.533757080078125,-0.012104364112019539,-0.003582403063774109,-0.006898957770317793
1772525792025740000,1.543739990234375,-0.01945468783378601,-0.010850701481103897,-0.009158916771411896
1772525792035724300,1.553724365234375,-0.023038126528263092,-0.019534597173333168,-0.0109185129404068
1772525792045707300,1.563707275390625,-0.01682151108980179,-0.019563093781471252,-0.0024669705890119076
1772525792055691300,1.573691162109375,-0.0064715114422142506,-0.01956074871122837,0.0020097503438591957
1772525792065674000,1.583674072265625,0.005485815461724997,-0.021827897056937218,0.012012849561870098
1772525792075657200,1.5936572265625,0.01061667688190937,-0.027399681508541107,0.024023646488785744
1772525792085641200,1.60364111328125,0.008418237790465355,-0.0387767031788826,0.03159208595752716
1772525792095624200,1.613624267578125,0.008794024586677551,-0.03531282767653465,0.03875689581036568
1772525792105607000,1.62360693359375,0.0007890956476330757,-0.029790492728352547,0.043735142797231674
1772525792115591200,1.633591064453125,-0.0012873988598585129,-0.010154364630579948,0.04223189130425453
1772525792125574100,1.64357421875,0.0027153324335813522,0.007628893479704857,0.025528011843562126
1772525792135558100,1.65355810546875,0.01047159731388092,0.02472945675253868,0.00588022917509079
1772525792145541000,1.663541015625,0.01637316308915615,0.037026338279247284,-0.01729140244424343
1772525792155524400,1.6735244140625,0.018340017646551132,0.028546353802084923,-0.03644320368766785
1772525792165508000,1.683508056640625,0.014463253319263458,0.018743788823485374,-0.046738188713788986
1772525792175491000,1.693490966796875,0.010222921147942543,0.014802953228354454,-0.045737266540527344
1772525792185474000,1.70347412109375,0.004038529936224222,0.006959943100810051,-0.030537541955709457
1772525792195458000,1.7134580078125,0.004804689437150955,0.008756429888308048,-0.011891897767782211
1772525792205441300,1.723441162109375,0.013608567416667938,0.011935179121792316,0.0068703386932611465
1772525792215425300,1.73342529296875,0.01784687675535679,-0.0013019382022321224,0.019372060894966125
1772525792225408000,1.743407958984375,0.011027054861187935,-0.018222332000732422,0.0248738843947649
1772525792235391200,1.75339111328125,0.00423480523750186,-0.027897372841835022,0.027601128444075584
1772525792245375200,1.763375244140625,0.0013588573783636093,-0.02765848860144615,0.017664341256022453
1772525792255358200,1.773358154296875,-0.00400940328836441,-0.017887577414512634,0.005756125785410404
1772525792265341000,1.7833408203125,-0.0053527019917964935,-0.014711759053170681,-0.0015321476384997368
1772525792275325200,1.7933251953125,-0.008223995566368103,-0.012694718316197395,-0.008495090529322624
1772525792285308200,1.80330810546875,-0.00998168159276247,-0.011805487796664238,-0.004324580077081919
1772525792295292200,1.813292236328125,-0.013582071289420128,-0.013339266180992126,0.004753866698592901
1772525792305275100,1.823275146484375,-0.010411843657493591,-0.018996087834239006,0.010788323357701302
1772525792315258000,1.833258056640625,-0.006993537303060293,-0.02790192887187004,0.016393056139349937
1772525792325242000,1.8432421875,-0.011425036936998367,-0.03186977282166481,0.020962242037057877
1772525792335225000,1.85322509765625,-0.0197451114654541,-0.034598857164382935,0.02201610803604126
1772525792345208000,1.8632080078125,-0.03323801979422569,-0.02730579301714897,0.019940972328186035
1772525792355192000,1.873192138671875,-0.03632136434316635,-0.019262447953224182,0.017164360731840134
1772525792365175300,1.88317529296875,-0.03693016245961189,-0.006836937740445137,0.014751004986464977
1772525792375159000,1.893158935546875,-0.03697839751839638,0.012926832772791386,0.0169827863574028
1772525792385142000,1.90314208984375,-0.03561539202928543,0.01779908686876297,0.021151166409254074
1772525792395125200,1.913125244140625,-0.030573416501283646,0.008726469241082668,0.022996043786406517
1772525792405109200,1.923109130859375,-0.019499992951750755,-0.007667417638003826,0.021781111136078835
1772525792415092200,1.93309228515625,-0.0035383470822125673,-0.010068763047456741,0.014461876824498177
1772525792425075000,1.943074951171875,0.003927825018763542,-0.005282529629766941,0.011371012777090073
1772525792435059000,1.953058837890625,0.0006364076398313046,0.0025981201324611902,0.011015377007424831
1772525792445042200,1.963042236328125,0.0016630562022328377,0.025975879281759262,0.012126447632908821
1772525792455026200,1.973026123046875,0.0025955350138247013,0.04207703843712807,0.01453491486608982
1772525792465009200,1.983009033203125,-0.0003022504970431328,0.033096857368946075,0.00965147651731968
1772525792474992000,1.9929921875,-0.00027671270072460175,0.022960620000958443,0.004917380400002003
1772525792484976000,2.00297607421875,-0.001256489660590887,0.009207790717482567,-0.0011069565080106258
1772525792494959000,2.012958984375,-0.0032858382910490036,-0.008283060975372791,-0.001001219730824232
1772525792504942000,2.022942138671875,-0.002718585077673197,-0.0064622582867741585,0.006533395498991013
1772525792514926000,2.032926025390625,-0.002915278309956193,0.003436602186411619,0.021512813866138458
1772525792524909000,2.042908935546875,0.0009204726666212082,0.003182802814990282,0.03396628797054291
1772525792534893000,2.05289306640625,0.007285738363862038,0.002143524819985032,0.034196287393569946
1772525792544876000,2.0628759765625,0.009418930858373642,-0.0028363200835883617,0.02880844473838806
1772525792554859300,2.072859375,0.011030392721295357,-0.009139131754636765,0.015444863587617874
1772525792564843300,2.08284326171875,0.0112913828343153,-0.008035518229007721,0.005829254165291786
1772525792574826200,2.092826171875,0.007838264107704163,0.004618063569068909,-0.006721583195030689
1772525792584809000,2.10280908203125,0.000967307947576046,0.016687775030732155,-0.009571431204676628
1772525792594793000,2.11279296875,0.0012646368704736233,0.016698963940143585,-0.014562120661139488
1772525792604776200,2.122776123046875,0.000884604174643755,-0.0011716464068740606,-0.020185120403766632
1772525792614760200,2.13276025390625,0.002958994358778,-0.017129091545939445,-0.02633422240614891
1772525792624743200,2.1427431640625,0.005875422619283199,-0.027182525023818016,-0.024441514164209366
1772525792634726100,2.15272607421875,0.006493617780506611,-0.038440097123384476,-0.023000795394182205
1772525792644710100,2.162710205078125,0.006485362537205219,-0.044944602996110916,-0.014058433473110199
1772525792654693000,2.172693115234375,0.012771600857377052,-0.05910314619541168,-0.005238634534180164
1772525792664676000,2.182676025390625,0.012867208570241928,-0.07573458552360535,0.0007907622493803501
1772525792674660000,2.19266015625,0.021025095134973526,-0.08841624110937119,0.0013242526911199093
1772525792684643000,2.20264306640625,0.01460820809006691,-0.08409393578767776,0.001869934145361185
1772525792694627000,2.212626953125,0.010235128924250603,-0.07418805360794067,-0.005872308276593685
1772525792704610000,2.222610107421875,-0.0008260454051196575,-0.05777047201991081,-0.019557494670152664
1772525792714593300,2.23259326171875,-0.012694299221038818,-0.031708117574453354,-0.04424498975276947
1772525792724577300,2.242577392578125,-0.020811881870031357,0.019749481230974197,-0.06542990356683731
1772525792734560300,2.252560302734375,-0.01991976797580719,0.06108877435326576,-0.08115869760513306
1772525792744543000,2.26254296875,-0.017354078590869904,0.08048271387815475,-0.08914285898208618
1772525792754527000,2.27252685546875,-0.009836006909608841,0.0730540081858635,-0.08372406661510468
1772525792764510200,2.28251025390625,-0.006794676650315523,0.04660748690366745,-0.06923860311508179
1772525792774494200,2.292494140625,-0.0012338082306087017,0.021303223446011543,-0.05228715389966965
1772525792784477200,2.302477294921875,0.00004584062844514847,-0.00497924629598856,-0.018581122159957886
1772525792794460200,2.312460205078125,0.0008734553121030331,-0.029240353032946587,0.009285558946430683
1772525792804444200,2.322444091796875,0.003341939300298691,-0.038675934076309204,0.03713956102728844
1772525792814427100,2.33242724609375,0.006938397418707609,-0.037162233144044876,0.06062587350606918
1772525792824410000,2.34241015625,0.010646581649780273,-0.03842883184552193,0.07662215083837509
1772525792834394000,2.35239404296875,0.007636898662894964,-0.03852060064673424,0.07935865223407745
1772525792844377000,2.362377197265625,0.0036272439174354076,-0.03107387386262417,0.07006901502609253
1772525792854360000,2.372360107421875,0.0025370074436068535,-0.01955031044781208,0.0568259134888649
1772525792864344000,2.382343994140625,-0.005827981512993574,-0.0063684601336717606,0.03516269847750664
1772525792874327300,2.392327392578125,-0.0089747728779912,-0.005142607726156712,0.01628967374563217
1772525792884311300,2.402311279296875,-0.01664387807250023,-0.010799960233271122,-0.006977832410484552
1772525792894294000,2.4122939453125,-0.02517133206129074,-0.019697654992341995,-0.021504264324903488
1772525792904277000,2.422277099609375,-0.022957179695367813,-0.02683386206626892,-0.031167544424533844
1772525792914261000,2.432260986328125,-0.020493116229772568,-0.021438876166939735,-0.03919254615902901
1772525792924244200,2.442244140625,-0.01593112200498581,-0.02542935684323311,-0.04126022383570671
1772525792934227200,2.452227294921875,-0.017071079462766647,-0.02815123461186886,-0.04279021546244621
1772525792944211200,2.462211181640625,-0.015684103593230247,-0.026395414024591446,-0.03688039258122444
1772525792954194200,2.472194091796875,-0.013199767097830772,-0.02663879096508026,-0.02686973102390766
1772525792964178200,2.48217822265625,-0.015151864849030972,-0.03369377180933952,-0.017394470050930977
1772525792974161200,2.4921611328125,-0.01757027581334114,-0.032048895955085754,-0.00472699711099267
1772525792984144100,2.50214404296875,-0.013259151950478554,-0.019774120301008224,0.00738159753382206
1772525792994128100,2.512128173828125,-0.01163257472217083,-0.01025339774787426,0.01800602488219738
1772525793004111000,2.522111083984375,-0.009092452004551888,-0.004040776286274195,0.020379435271024704
1772525793014094000,2.532093994140625,-0.010192431509494781,-0.004889939446002245,0.014999902807176113
1772525793024078000,2.542078125,-0.008456316776573658,-0.004138395190238953,0.009433629922568798
1772525793034061300,2.552061279296875,-0.005060233175754547,-0.01121146697551012,0.003419660497456789
1772525793044045300,2.56204541015625,0.0040539032779634,-0.0018493907991796732,0.005172819830477238
1772525793054028000,2.572028076171875,0.01232704147696495,0.001933072111569345,0.012631068006157875
1772525793064011000,2.582010986328125,0.013073524460196495,0.0020033796317875385,0.01946154423058033
1772525793073995000,2.5919951171875,0.014998364262282848,0.0072145056910812855,0.022799337282776833
1772525793083978200,2.601978271484375,0.012235068716108799,0.005222461186349392,0.02976084128022194
1772525793093961200,2.611961181640625,0.00397079112008214,0.009168888442218304,0.030399098992347717
1772525793103945200,2.6219453125,0.0006178715266287327,0.007632244378328323,0.03143773227930069
1772525793113928200,2.63192822265625,0.0008025066927075386,-0.0004390252288430929,0.022037146613001823
1772525793123912200,2.641912109375,0.004516817629337311,0.0002805609256029129,0.016523605212569237
1772525793133895200,2.651895263671875,0.00982263870537281,-0.006075500510632992,0.0038974382914602757
1772525793143878100,2.661878173828125,0.01204691082239151,-0.005834750831127167,0.0015988638624548912
1772525793153862100,2.671862060546875,0.01660771295428276,-0.004164648707956076,0.003825913416221738
1772525793163845400,2.681845458984375,0.016909446567296982,-0.0033462592400610447,0.008130913600325584
1772525793173828400,2.691828369140625,0.02006451040506363,-0.0010080947540700436,0.014249096624553204
1772525793183812400,2.701812255859375,0.02308293804526329,0.0012529289815574884,0.021709144115447998
1772525793193795300,2.71179541015625,0.025275612249970436,-0.005803501233458519,0.023284614086151123
1772525793203779300,2.721779296875,0.026003720238804817,-0.02296437881886959,0.026366159319877625
1772525793213762300,2.73176220703125,0.023744940757751465,-0.040187250822782516,0.019638529047369957
1772525793223745300,2.741745361328125,0.018988002091646194,-0.05141274258494377,0.008717172779142857
1772525793233729300,2.751729248046875,0.006776964757591486,-0.061372652649879456,-0.0063836826011538506
1772525793243712300,2.761712158203125,0.002955328207463026,-0.06468988955020905,-0.014372899197041988
1772525793253695200,2.7716953125,-0.006663148757070303,-0.05270586535334587,-0.02151762694120407
1772525793263679200,2.78167919921875,-0.010399030521512032,-0.035696785897016525,-0.022525634616613388
1772525793273662200,2.791662109375,-0.006837692577391863,-0.013089966028928757,-0.020325496792793274
1772525793283645200,2.801645263671875,-0.0030232472345232964,0.0002434153575450182,-0.01482100784778595
1772525793293629200,2.811629150390625,0.0039503793232142925,0.009012708440423012,-0.00930921919643879
1772525793303612200,2.821612060546875,0.007143775466829538,0.022556480020284653,-0.00514323590323329
1772525793313596200,2.83159619140625,0.003669227473437786,0.010834548622369766,0.0019976049661636353
1772525793323579400,2.841579345703125,-0.0031002620235085487,0.004499687813222408,0.0064125931821763515
1772525793333562400,2.851562255859375,-0.007790776900947094,-0.0022817307617515326,0.011944296769797802
1772525793343546000,2.861546142578125,-0.011698433198034763,-0.011619039811193943,0.01349825132638216
1772525793353529000,2.871529052734375,-0.01560270506888628,-0.010416594333946705,0.015294445678591728
1772525793363512300,2.88151220703125,-0.014366199262440205,-0.014788705855607986,0.012801460921764374
1772525793373496300,2.891496337890625,-0.0159914493560791,-0.003536975011229515,0.011554785072803497
1772525793383479300,2.901479248046875,-0.01629079133272171,0.02453300729393959,0.013632317073643208
1772525793393463300,2.91146337890625,-0.01846294105052948,0.044063959270715714,0.01903432235121727
1772525793403446300,2.9214462890625,-0.01732603646814823,0.06117743253707886,0.022382449358701706
1772525793413429200,2.93142919921875,-0.00792946107685566,0.06016130745410919,0.026318857446312904
1772525793423413200,2.941413330078125,-0.007258611265569925,0.041169241070747375,0.03311098366975784
1772525793433396200,2.951396240234375,-0.0017364243976771832,0.009329679422080517,0.035902783274650574
1772525793443379200,2.961379150390625,0.0015275455079972744,-0.013985496014356613,0.03894251585006714
1772525793453363200,2.97136328125,-0.002105849329382181,-0.038813501596450806,0.037125807255506516
1772525793463346200,2.98134619140625,-0.005114156287163496,-0.04219518601894379,0.03709544613957405
1772525793473329400,2.991329345703125,-0.007299595512449741,-0.031395524740219116,0.036887411028146744
1772525793483313400,3.0013134765625,-0.01581372134387493,-0.010082514956593513,0.03410786762833595
1772525793493296000,3.011296142578125,-0.020037900656461716,0.012989480048418045,0.029858149588108063
1772525793503280000,3.021280029296875,-0.01784372143447399,0.026087971404194832,0.01914025843143463
1772525793513263000,3.03126318359375,-0.014568755403161049,0.02149319089949131,-0.0021204473450779915
1772525793523246300,3.041246337890625,-0.013513344340026379,0.0019341374281793833,-0.01501414179801941
1772525793533230300,3.051230224609375,-0.010344404727220535,-0.010590821504592896,-0.02929464355111122
1772525793543213300,3.06121337890625,-0.0050785355269908905,-0.006526570301502943,-0.033829741179943085
1772525793553196300,3.0711962890625,0.006024650763720274,0.0008346643298864365,-0.031076138839125633
1772525793563180300,3.08118017578125,0.004804390016943216,0.007648628205060959,-0.02695169858634472
1772525793573163300,3.091163330078125,0.010476505383849144,0.012844190001487732,-0.020856371149420738
1772525793583147300,3.101147216796875,0.006020769942551851,0.014973653480410576,-0.013461839407682419
1772525793593130200,3.111130126953125,0.006430314388126135,0.003419536864385009,-0.016996698454022408
1772525793603113200,3.12111328125,0.005880904849618673,-0.007212867494672537,-0.015617979690432549
1772525793613097200,3.13109716796875,0.01314635667949915,-0.0021354726050049067,-0.014832360669970512
1772525793623080200,3.141080078125,0.02388422191143036,-0.002296327380463481,-0.007643690798431635
1772525793633063400,3.1510634765625,0.028347458690404892,-0.005955091677606106,-0.00042182812467217445
1772525793643047400,3.16104736328125,0.03133365884423256,-0.0034242901019752026,0.005667489022016525
1772525793653030100,3.171030029296875,0.032857708632946014,0.004663390573114157,0.008430258370935917
1772525793663014100,3.18101416015625,0.025387540459632874,0.006414685398340225,0.004790782928466797
1772525793672997000,3.1909970703125,0.021677138283848763,0.010057425126433372,-0.003953630104660988
1772525793682980400,3.20098046875,0.020714405924081802,0.015185873955488205,-0.006307331845164299
1772525793692964400,3.21096435546875,0.014259492978453636,0.00822831504046917,-0.010103002190589905
1772525793702947300,3.220947265625,0.013749763369560242,0.00030407938174903393,-0.015542242676019669
1772525793712930300,3.230930419921875,0.012280125170946121,-0.007251523435115814,-0.012962077744305134
1772525793722914300,3.240914306640625,0.010536286979913712,-0.012462531216442585,-0.010120219551026821
1772525793732897300,3.250897216796875,0.00888761319220066,-0.020894590765237808,-0.016641700640320778
1772525793742881300,3.26088134765625,0.0035940478555858135,-0.034364860504865646,-0.02839689329266548
1772525793752864300,3.2708642578125,-0.0036313741002231836,-0.03287029266357422,-0.034366633743047714
1772525793762847200,3.28084716796875,-0.003794891992583871,-0.0256576556712389,-0.041240252554416656
1772525793772831200,3.290831298828125,-0.0007446133531630039,-0.004073749762028456,-0.037330903112888336
1772525793782814200,3.300814208984375,0.0053662764839828014,0.008714750409126282,-0.028438877314329147
1772525793792797400,3.31079736328125,0.005834955256432295,0.01973845437169075,-0.014831813052296638
1772525793802781400,3.320781494140625,0.0014322176575660706,0.02221492864191532,-0.011881031095981598
1772525793812764200,3.33076416015625,0.0027509694918990135,0.015046870335936546,-0.010861203074455261
1772525793822747100,3.3407470703125,-0.006373819429427385,0.0018839307595044374,-0.00953255221247673
1772525793832731100,3.350731201171875,-0.016708968207240105,-0.008176268078386784,-0.007134479936212301
1772525793842714400,3.36071435546875,-0.023343434557318687,-0.015211273916065693,0.004816988483071327
1772525793852698400,3.370698486328125,-0.02476327493786812,-0.01782192662358284,0.012794856913387775
1772525793862681000,3.38068115234375,-0.02099090814590454,-0.021641699597239494,0.021119898185133934
1772525793872664300,3.390664306640625,-0.021132709458470345,-0.021037019789218903,0.023093556985259056
1772525793882648300,3.4006484375,-0.020963864400982857,-0.021410660818219185,0.021573159843683243
1772525793892631300,3.41063134765625,-0.02192755788564682,-0.027906961739063263,0.01608269102871418
1772525793902614300,3.4206142578125,-0.028617151081562042,-0.016766158863902092,0.0077978624030947685
1772525793912598300,3.430598388671875,-0.029194150120019913,-0.003166502807289362,0.0011739437468349934
1772525793922581200,3.440581298828125,-0.030993381515145302,0.0030865995213389397,-0.009264581836760044
1772525793932565200,3.450565185546875,-0.02098872698843479,0.008904485031962395,-0.009080570191144943
1772525793942548200,3.46054833984375,-0.01693939045071602,0.004369388334453106,-0.00864194706082344
1772525793952531500,3.470531494140625,-0.0038941202219575644,0.004049598705023527,-0.00010144384577870369
1772525793962515500,3.480515380859375,0.002242335584014654,-0.004232299514114857,0.013215959072113037
1772525793972498200,3.490498291015625,0.0031686797738075256,-0.012331526726484299,0.021166928112506866
1772525793982481200,3.500481201171875,0.004985754378139973,-0.020057622343301773,0.02016451396048069
1772525793992465200,3.510465087890625,0.004266213625669479,-0.02578299678862095,0.01726316474378109
1772525794002448400,3.520448486328125,0.00637437216937542,-0.02176215685904026,0.008290176279842854
1772525794012431000,3.53043115234375,0.013976632617413998,-0.008058595471084118,0.004804630763828754
1772525794022415000,3.5404150390625,0.02153974398970604,0.014215551316738129,0.002252523321658373
1772525794032398300,3.5503984375,0.029104817658662796,0.04037922993302345,0.006202349439263344
1772525794042382300,3.56038232421875,0.03363032639026642,0.0551145002245903,0.008209307678043842
1772525794052365300,3.570365234375,0.0331546887755394,0.04894821718335152,0.016840878874063492
1772525794062348300,3.580348388671875,0.03256133571267128,0.02868262678384781,0.02411317452788353
1772525794072332300,3.590332275390625,0.028383756056427956,0.008313298225402832,0.02954922802746296
1772525794082315300,3.600315185546875,0.024357056245207787,-0.016959302127361298,0.025571530684828758
1772525794092298200,3.61029833984375,0.025277895852923393,-0.02491077221930027,0.023701731115579605
1772525794102282200,3.6202822265625,0.022581178694963455,-0.021020693704485893,0.018630005419254303
1772525794112265500,3.630265380859375,0.018000014126300812,-0.008576441556215286,0.008198557421565056
1772525794122249500,3.64024951171875,0.01506707351654768,0.0042629241943359375,0.0032631875947117805
1772525794132232200,3.650232177734375,0.012262813746929169,0.011517902836203575,-0.00241090077906847
1772525794142215700,3.660215576171875,0.006670975126326084,0.005541237071156502,-0.01590966433286667
1772525794152199700,3.67019970703125,-0.0005250792019069195,-0.004857209511101246,-0.013747215270996094
1772525794162182700,3.6801826171875,0.0010629636235535145,0.0015306486748158932,-0.011550907045602798
1772525794172165600,3.69016552734375,-0.0004236414097249508,0.013930612243711948,-0.009103788062930107
1772525794182149600,3.700149658203125,-0.0021935782860964537,0.005491321906447411,-0.008664632216095924
1772525794192132600,3.710132568359375,0.005951233673840761,-0.004396556876599789,-0.010526036843657494
1772525794202115600,3.720115478515625,0.0047685238532722,-0.015718985348939896,-0.009223751723766327
1772525794212099600,3.730099609375,0.004929185379296541,-0.018110109493136406,-0.009101545438170433
1772525794222082600,3.74008251953125,0.0005536112003028393,-0.016615809872746468,-0.008617648854851723
1772525794232066600,3.750066650390625,-0.006592698860913515,-0.005035145208239555,-0.0011388566344976425
1772525794242049800,3.7600498046875,-0.017589423805475235,-0.004556042142212391,0.008201115764677525
1772525794252032800,3.77003271484375,-0.023279378190636635,0.002991300541907549,0.012400603853166103
1772525794262016500,3.7800166015625,-0.020829802379012108,0.0044270106591284275,0.015934618189930916
1772525794271999500,3.78999951171875,-0.017144113779067993,0.0024786796420812607,0.017047129571437836
1772525794281982700,3.799982666015625,-0.011277169920504093,0.004612937103956938,0.015613816678524017
1772525794291966700,3.809966796875,-0.002619511913508177,-0.0014703287743031979,0.008778594434261322
1772525794301949700,3.81994970703125,0.00012141326442360878,-0.004994490183889866,0.0011715409345924854
1772525794311932700,3.8299326171875,0.002094016410410404,-0.007647797465324402,-0.001424508634954691
1772525794321916700,3.839916748046875,-0.003296646988019347,-0.0020914243068546057,-0.0030206418596208096
1772525794331899600,3.849899658203125,-0.004086126107722521,0.006533204577863216,-0.004240766167640686
1772525794341883600,3.859883544921875,-0.005113307386636734,0.022905252873897552,0.006206282414495945
1772525794351866600,3.86986669921875,-0.0051649450324475765,0.030081113800406456,0.014718878082931042
1772525794361849600,3.879849609375,-0.004159601405262947,0.02391243539750576,0.023816503584384918
1772525794371833600,3.88983349609375,-0.001145799644291401,0.009137501008808613,0.025896333158016205
1772525794381816600,3.899816650390625,0.0019205641001462936,-0.010759240947663784,0.02990172803401947
1772525794391799800,3.9097998046875,0.0065914238803088665,-0.022726915776729584,0.022477246820926666
1772525794401783800,3.91978369140625,0.007204483728855848,-0.021031280979514122,0.008178203366696835
1772525794411766500,3.9297666015625,0.002056322991847992,-0.013743911869823933,-0.0037603615783154964
1772525794421750500,3.93975048828125,0.00014337431639432907,0.0013508852571249008,-0.013313652947545052
1772525794431733500,3.9497333984375,-0.0012806798331439495,0.015944944694638252,-0.01890256442129612
1772525794441716700,3.959716796875,-0.0031225220300257206,0.01834525167942047,-0.019164087250828743
1772525794451700700,3.96970068359375,-0.005359537899494171,0.009459544904530048,-0.01840128004550934
1772525794461683700,3.97968359375,-0.00479840999469161,0.004513788502663374,-0.018243886530399323
1772525794471666700,3.989666748046875,-0.010680895298719406,0.003762628883123398,-0.01291910745203495
1772525794481649700,3.999649658203125,-0.012641513720154762,-0.002105379942804575,-0.005672379396855831
1772525794491632600,4.009632568359375,-0.01223472785204649,-0.006358328275382519,-0.0030733859166502953
1772525794501616600,4.01961669921875,-0.015831060707569122,-0.011590108275413513,-0.002619583159685135
1772525794511599600,4.029599609375,-0.010440606623888016,-0.01305670477449894,-0.001866751816123724
1772525794521582600,4.03958251953125,-0.0074285706505179405,-0.018332693725824356,-0.006489200051873922
1772525794531566600,4.049566650390625,-0.007231106981635094,-0.014750879257917404,-0.006942465901374817
1772525794541549600,4.059549560546875,-0.005546657368540764,-0.014757005497813225,-0.0026249494403600693
1772525794551532800,4.06953271484375,-0.003854447975754738,-0.011557293124496937,-0.010928597301244736
1772525794561516500,4.0795166015625,-0.000027752015739679337,-0.0069753248244524,-0.007041980512440205
1772525794571499500,4.08949951171875,0.0010231221094727516,0.009201988577842712,-0.002449330873787403
1772525794581483500,4.0994833984375,0.005773935467004776,0.021568112075328827,0.00517982617020607
1772525794591466800,4.109466796875,0.007829682901501656,0.018418600782752037,0.007802915293723345
1772525794601449700,4.11944970703125,0.009312797337770462,0.0018729128642007709,0.011570755392313004
1772525794611433700,4.129433837890625,0.0040885694324970245,-0.012366329319775105,0.01424238458275795
1772525794621416400,4.13941650390625,-0.001463855616748333,-0.029749581590294838,0.015197659842669964
1772525794631399700,4.149399658203125,-0.007842953316867352,-0.03492620587348938,0.01058286614716053
1772525794641383700,4.1593837890625,-0.015786897391080856,-0.028457121923565865,0.00495507474988699
1772525794651366700,4.16936669921875,-0.01794245094060898,-0.0017712197732180357,0.004149546846747398
1772525794661349600,4.179349609375,-0.01398499310016632,0.022758090868592262,0.004540232941508293
1772525794671333600,4.189333740234375,-0.0053983768448233604,0.035526979714632034,0.008084029890596867
1772525794681316600,4.199316650390625,-0.0024766228161752224,0.03447556495666504,0.007569241337478161
1772525794691300600,4.209300537109375,0.006088738329708576,0.0205371156334877,0.0088875787332654
1772525794701283600,4.21928369140625,0.010904266498982906,0.0002587402705103159,0.012377385050058365
1772525794711266800,4.229266845703125,0.007788731716573238,-0.012492913752794266,0.0231669619679451
1772525794721250600,4.23925048828125,0.002802228555083275,-0.013280676677823067,0.03204035013914108
1772525794731233500,4.249233642578125,-0.0018280651420354843,-0.02209426648914814,0.046836595982313156
1772525794741216800,4.259216796875,-0.0007438920438289642,-0.0179423987865448,0.051098186522722244
1772525794751200800,4.26920068359375,-0.0013687028549611568,-0.021274898201227188,0.049680110067129135
1772525794761183700,4.279183837890625,-0.007753897923976183,-0.023921813815832138,0.038789913058280945
1772525794771167700,4.289167724609375,-0.005326148122549057,-0.00816807895898819,0.02462105080485344
1772525794781150500,4.299150390625,-0.006202594377100468,0.005407119169831276,0.01625579595565796
1772525794791133700,4.3091337890625,-0.00010700244456529617,0.02716752327978611,0.015348592773079872
1772525794801117700,4.31911767578125,0.006313879042863846,0.03600788861513138,0.02772776409983635
1772525794811100700,4.3291005859375,0.010840492323040962,0.04595661163330078,0.03929693251848221
1772525794821083600,4.339083740234375,0.014147605746984482,0.041354671120643616,0.055638618767261505
1772525794831067600,4.349067626953125,0.016704339534044266,0.03115404024720192,0.06701776385307312
1772525794841050600,4.359050537109375,0.02177579700946808,0.007215152494609356,0.07488953322172165
1772525794851033600,4.36903369140625,0.02669231966137886,-0.011154206469655037,0.06997254490852356
1772525794861020700,4.379020751953125,0.022671213373541832,-0.026408793404698372,0.06183871999382973
1772525794871003600,4.389003662109375,0.017519550397992134,-0.029049735516309738,0.04518340900540352
1772525794880986600,4.398986572265625,0.003993088845163584,-0.024634744971990585,0.025124212726950645
1772525794890970600,4.408970703125,-0.007274995092302561,-0.011968308128416538,0.005337825510650873
1772525794900953600,4.41895361328125,-0.024505646899342537,-0.0025519034825265408,-0.018446866422891617
1772525794910936600,4.4289365234375,-0.031246129423379898,0.010588913224637508,-0.033187709748744965
1772525794920920600,4.438920654296875,-0.030729210004210472,0.012030482292175293,-0.04120941460132599
1772525794930903600,4.448903564453125,-0.029488032683730125,0.009089428000152111,-0.04471281170845032
1772525794940887800,4.4588876953125,-0.019565362483263016,0.0017715938156470656,-0.03554887697100639
1772525794950870800,4.468870849609375,-0.011965376324951649,-0.0068318890407681465,-0.024469049647450447
1772525794960853500,4.478853515625,-0.008797545917332172,-0.01277473196387291,-0.014453433454036713
1772525794970837500,4.48883740234375,-0.0050612869672477245,-0.01697474718093872,-0.0065278164111077785
1772525794980820700,4.49882080078125,-0.001781337894499302,-0.022238485515117645,-0.0014651468954980373
1772525794990803700,4.5088037109375,0.0028950506821274757,-0.02834523841738701,0.001961798407137394
1772525795000787700,4.51878759765625,0.003542199730873108,-0.02493133209645748,0.0012222384102642536
1772525795010770400,4.5287705078125,0.0039059091359376907,-0.012652000412344933,0.0022826003842055798
1772525795020753700,4.538753662109375,0.0024651391431689262,-0.0018885680474340916,0.00213372940197587
1772525795030737700,4.548737548828125,-0.0006845244206488132,0.0013908057007938623,0.009889510460197926
1772525795040720600,4.558720703125,-0.0040616788901388645,0.003702163230627775,0.01386241428554058
1772525795050704600,4.56870458984375,-0.007953528314828873,0.0020732542034238577,0.013820283114910126
1772525795060687600,4.5786875,-0.00842330977320671,-0.004210740327835083,0.01125672459602356
1772525795070670600,4.588670654296875,-0.008523867465555668,0.000012554926797747612,0.006591983139514923
1772525795080654600,4.598654541015625,-0.00503086531534791,0.006561268121004105,0.004277163650840521
1772525795090637600,4.608637451171875,-0.003256301861256361,0.016926279291510582,0.004438907373696566
1772525795100620800,4.618620849609375,-0.0010083275847136974,0.025802595540881157,0.0031733731739223003
1772525795110604500,4.6286044921875,-0.004904082510620356,0.023434432223439217,0.00563468225300312
1772525795120587500,4.63858740234375,-0.0029874052852392197,0.026130083948373795,0.009606787003576756
1772525795130571500,4.648571533203125,-0.004588552750647068,0.014887865632772446,0.012386194430291653
1772525795140554800,4.6585546875,-0.0033552430104464293,0.004537224303930998,0.019523199647665024
1772525795150537700,4.668537841796875,-0.001884413417428732,-0.011343026533722878,0.023173924535512924
1772525795160521700,4.678521728515625,-0.0006239395588636398,-0.015623525716364384,0.024854645133018494
1772525795170504700,4.688504638671875,-0.0015893420204520226,-0.01172379869967699,0.02612360753118992
1772525795180488000,4.698488037109375,-0.00508021330460906,0.0009065093472599983,0.02096479758620262
1772525795190471700,4.7084716796875,-0.005780873354524374,0.014156806282699108,0.0163737703114748
1772525795200454700,4.71845458984375,-0.006340403109788895,0.02714371122419834,0.006776537746191025
1772525795210438700,4.728438720703125,-0.0031042848713696003,0.026766663417220116,-0.0015828092582523823
1772525795220422000,4.738421875,0.001830285880714655,0.01042151264846325,-0.007147218566387892
1772525795230404900,4.74840478515625,0.004443369340151548,-0.0005374590400606394,-0.00662919832393527
1772525795240388900,4.758388916015625,0.008291902020573616,-0.010715261101722717,-0.007628149818629026
1772525795250371600,4.76837158203125,0.01000390388071537,-0.02102317102253437,-0.0016003367491066456
1772525795260354800,4.778354736328125,0.010537335649132729,-0.02577478438615799,0.0031613949686288834
1772525795270338800,4.7883388671875,0.0013187373988330364,-0.02294028550386429,0.014307640492916107
1772525795280321800,4.79832177734375,-0.0027079619467258453,-0.021045977249741554,0.02124783769249916
1772525795290304800,4.8083046875,-0.00989177729934454,-0.004173989407718182,0.016516467556357384
1772525795300288800,4.818288818359375,-0.007801195606589317,0.011584201827645302,0.005989790894091129
1772525795310271700,4.828271728515625,-0.004017142578959465,0.017680896446108818,-0.004485699813812971
1772525795320255700,4.838255859375,0.003995510283857584,0.014968465082347393,-0.0008859043009579182
1772525795330238700,4.84823876953125,0.010533778928220272,0.01574055477976799,0.0012439731508493423
1772525795340222000,4.858221923828125,0.016425490379333496,0.008336433209478855,0.013646313920617104
1772525795350205700,4.868205810546875,0.021184932440519333,0.003923526033759117,0.026845108717679977
1772525795360188700,4.878188720703125,0.017687136307358742,0.005125677213072777,0.036285482347011566
1772525795370172000,4.888171875,0.015953922644257545,0.014170059934258461,0.03683296963572502
1772525795380156000,4.898156005859375,0.015873227268457413,0.012515703216195107,0.038546446710824966
1772525795390139000,4.908138916015625,0.017091985791921616,0.015932952985167503,0.037556227296590805
1772525795400123000,4.918122802734375,0.013644790276885033,0.012462055310606956,0.04132513329386711
1772525795410105600,4.928105712890625,0.013047255575656891,0.0055612437427043915,0.041070375591516495
1772525795420088800,4.9380888671875,0.015956224873661995,0.001425088383257389,0.04440997913479805
1772525795430072800,4.94807275390625,0.02281223237514496,0.0013769700890406966,0.042092934250831604
1772525795440055800,4.958055908203125,0.027233878150582314,0.0013194456696510315,0.038188472390174866
1772525795450038800,4.968038818359375,0.02728767693042755,-0.014265276491641998,0.032017819583415985
1772525795460022800,4.978022705078125,0.033741846680641174,-0.03222217410802841,0.017100390046834946
1772525795470005800,4.988005859375,0.03727731481194496,-0.0513954721391201,0.0012918687425553799
1772525795479988700,4.99798876953125,0.040047537535429,-0.06934304535388947,-0.010405000299215317
1772525795489972700,5.00797265625,0.03853331133723259,-0.07273858785629272,-0.014502223581075668
1772525795499955700,5.017955810546875,0.03193826228380203,-0.06215891242027283,-0.018498830497264862
1772525795509939700,5.027939697265625,0.018110189586877823,-0.03517446666955948,-0.02562209777534008
1772525795519922700,5.037922607421875,0.0163559652864933,-0.004607770126312971,-0.03874509409070015
1772525795529906000,5.047906005859375,0.01208091713488102,0.019325651228427887,-0.051568739116191864
1772525795539890000,5.057889892578125,0.00342963682487607,0.028292514383792877,-0.05933770909905434
1772525795549873000,5.067872802734375,-0.0064808945171535015,0.0020137191750109196,-0.058018963783979416
1772525795559855600,5.077855712890625,-0.014905804768204689,-0.02477075718343258,-0.04684939980506897
1772525795569839600,5.087839599609375,-0.014852541498839855,-0.03946155309677124,-0.026790473610162735
1772525795579822800,5.09782275390625,-0.008925143629312515,-0.0374055914580822,-0.00933984387665987
1772525795589806800,5.107806884765625,0.004457822069525719,-0.03753716126084328,0.0021671918220818043
1772525795599789800,5.117789794921875,0.012103757821023464,-0.04413913935422897,0.008556115441024303
1772525795609772800,5.127772705078125,0.01894059032201767,-0.04496436193585396,0.005861957091838121
1772525795619756800,5.1377568359375,0.023898862302303314,-0.040727805346250534,0.004161262419074774
1772525795629739800,5.14773974609375,0.025143688544631004,-0.024215515702962875,0.0034684701822698116
1772525795639722800,5.15772265625,0.021591562777757645,-0.006126260384917259,0.0004521738737821579
1772525795649706800,5.167706787109375,0.01805374212563038,0.01315176673233509,-0.007865681312978268
1772525795659689700,5.177689697265625,0.004074010998010635,0.025014549493789673,-0.016840003430843353
1772525795669673700,5.187673828125,-0.005112341605126858,0.030652398243546486,-0.021729564294219017
1772525795679656700,5.19765673828125,-0.016561269760131836,0.04301319271326065,-0.02115139178931713
1772525795689639700,5.2076396484375,-0.022281691431999207,0.059576183557510376,-0.016173899173736572
1772525795699624000,5.2176240234375,-0.025024212896823883,0.04129597917199135,0.0025217579677700996
1772525795709606700,5.227606689453125,-0.024061203002929688,0.02071993798017502,0.03155682981014252
1772525795719589600,5.237589599609375,-0.025007957592606544,0.013857768848538399,0.04989083111286163
1772525795729573600,5.24757373046875,-0.022533521056175232,0.008361856453120708,0.05421558767557144
1772525795739556900,5.257556884765625,-0.0185459703207016,0.014082060195505619,0.03315531089901924
1772525795749539800,5.267539794921875,-0.011321280151605606,0.022495780140161514,0.009844972752034664
1772525795759523800,5.27752392578125,-0.011623015627264977,0.023925896733999252,-0.0040767015889286995
1772525795769506800,5.2875068359375,-0.017158523201942444,0.021311240270733833,-0.006855331361293793
1772525795779490800,5.29749072265625,-0.02364252135157585,0.04451456293463707,0.0037182169035077095
1772525795789473800,5.307473876953125,-0.02125662937760353,0.07778002321720123,-0.0017862147651612759
1772525795799456800,5.317456787109375,-0.012988312169909477,0.06530445069074631,0.0029089385643601418
1772525795809440800,5.327440673828125,-0.014200741425156593,0.07127734273672104,0.018219079822301865
1772525795819423700,5.337423828125,-0.020413896068930626,0.10462677478790283,0.03023313172161579
1772525795829406700,5.34740673828125,-0.023726973682641983,0.14492428302764893,0.03164698928594589
1772525795839390700,5.357390625,-0.01148521900177002,0.15308155119419098,0.04205489158630371
1772525795849373700,5.367373779296875,-0.004448574502021074,0.1284598708152771,0.05810604244470596
1772525795859358000,5.37735791015625,-0.0001068231649696827,0.1090472936630249,0.07064153999090195
1772525795869340700,5.387340576171875,0.011359520256519318,0.09672467410564423,0.07919105887413025
1772525795879323600,5.39732373046875,0.021161550655961037,0.06631749868392944,0.07511695474386215
1772525795889307600,5.4073076171875,0.026200948283076286,0.03683674708008766,0.06199665367603302
1772525795899291000,5.417290771484375,0.03398057073354721,0.013972443528473377,0.047463782131671906
1772525795909273900,5.42727392578125,0.039171017706394196,0.017651638016104698,0.03114061802625656
1772525795919257900,5.4372578125,0.036227691918611526,0.037791259586811066,0.017790991812944412
1772525795929240600,5.447240478515625,0.03125389292836189,0.06201167404651642,0.007969144731760025
1772525795939224800,5.457224853515625,0.02655022032558918,0.06865892559289932,0.006394950672984123
1772525795949207800,5.467207763671875,0.017381388694047928,0.07377088069915771,0.007769581396132708
1772525795959190800,5.477190673828125,0.014980548992753029,0.07224275916814804,0.012344359420239925
1772525795969174800,5.4871748046875,0.016770176589488983,0.057132869958877563,0.00786854512989521
1772525795979157800,5.49715771484375,0.01988447643816471,0.034931693226099014,0.0035718008875846863
1772525795989140700,5.507140625,0.02318011224269867,0.020533066242933273,-0.0005806572735309601
1772525795999124700,5.517124755859375,0.026293080300092697,0.006495810113847256,-0.004366074688732624
1772525796009107700,5.527107666015625,0.02760918252170086,-0.0027773999609053135,-0.00789790228009224
1772525796019090700,5.537090576171875,0.02561127580702305,-0.014351497404277325,-0.008694188669323921
1772525796029074700,5.54707470703125,0.018518904224038124,-0.017835766077041626,-0.020027589052915573
1772525796039057700,5.5570576171875,0.013643721118569374,-0.014411472715437412,-0.031212598085403442
1772525796049041700,5.567041748046875,0.017737969756126404,-0.014000250957906246,-0.03636059910058975
1772525796059025000,5.57702490234375,0.011887537315487862,-0.021549247205257416,-0.03792973607778549
1772525796069008000,5.5870078125,0.01546313427388668,-0.007502126507461071,-0.04380121827125549
1772525796078991600,5.59699169921875,0.018097002059221268,0.0022181449458003044,-0.042965251952409744
1772525796088974600,5.606974609375,0.016612756997346878,0.005546126514673233,-0.03536020964384079
1772525796098957800,5.616957763671875,0.011997231282293797,0.0068380264565348625,-0.028942257165908813
1772525796108941800,5.62694189453125,0.011267476715147495,0.008960308507084846,-0.023577101528644562
1772525796118924800,5.6369248046875,0.01520788948982954,0.0025668577291071415,-0.016385234892368317
1772525796128908800,5.64690869140625,0.011857367120683193,-0.005116362124681473,-0.013037909753620625
1772525796138891000,5.65689111328125,0.009737490676343441,-0.013372695073485374,-0.013539914973080158
1772525796148874000,5.6668740234375,0.010822450742125511,-0.017348600551486015,-0.02014371007680893
1772525796158858000,5.67685791015625,0.013091729953885078,-0.0029171956703066826,-0.023739242926239967
1772525796168841000,5.686841064453125,0.015319806523621082,0.005621136166155338,-0.01656457968056202
1772525796178824000,5.696823974609375,0.013035881333053112,0.006289590150117874,-0.004181147087365389
1772525796188808000,5.706807861328125,0.006779971532523632,-0.006826085038483143,-0.0009086490608751774
1772525796198791000,5.716791015625,0.0028880275785923004,-0.016632109880447388,-0.0038453168235719204
1772525796208775200,5.726775146484375,0.006309014279395342,-0.015874050557613373,-0.00740697979927063
1772525796218758000,5.7367578125,0.004977699834853411,-0.017822954803705215,-0.0019309883937239647
1772525796228740900,5.746740966796875,-0.0015185647644102573,-0.013257578946650028,0.0008017406798899174
1772525796238724900,5.756724853515625,-0.005542600993067026,-0.004175401292741299,0.004434025846421719
1772525796248708000,5.7667080078125,-0.008489247411489487,-0.0006445420440286398,-0.004621682222932577
1772525796258691000,5.776691162109375,-0.0034872987307608128,0.008083435706794262,-0.007730922196060419
1772525796268675000,5.786675048828125,-0.007584210019558668,0.010153220035135746,0.0030488604679703712
1772525796278657800,5.79665771484375,-0.018453635275363922,-0.0008216665592044592,0.013187248259782791
1772525796288642000,5.80664208984375,-0.027894558385014534,-0.011039058677852154,0.01694592833518982
1772525796298625000,5.816625,-0.024666273966431618,-0.017645560204982758,0.014016717672348022
1772525796308608000,5.82660791015625,-0.021330587565898895,-0.014028043486177921,0.005101996473968029
1772525796318592000,5.836592041015625,-0.015629027038812637,0.004888123366981745,-0.004416673444211483
1772525796328575000,5.846574951171875,-0.010267345234751701,0.023486603051424026,-0.010687191039323807
1772525796338558000,5.856557861328125,-0.008460389450192451,0.03866209462285042,-0.015868104994297028
1772525796348542000,5.8665419921875,-0.008061449974775314,0.03379453718662262,-0.014824571087956429
1772525796358525000,5.87652490234375,-0.00579456752166152,0.032025665044784546,-0.015278905630111694
1772525796368509000,5.886509033203125,-0.0068556466139853,0.021970758214592934,-0.015287911519408226
1772525796378492000,5.896491943359375,0.00026884162798523903,0.02027192898094654,-0.013918779790401459
1772525796388475000,5.906474853515625,0.002978120930492878,0.014621390029788017,-0.009931066073477268
1772525796398459000,5.916458984375,0.0029158033430576324,0.015151092782616615,0.00021850783377885818
1772525796408442000,5.926442138671875,0.0010485369712114334,0.0022681886330246925,0.009683644399046898
1772525796418425000,5.936425048828125,0.007763165049254894,0.005708460230380297,0.007707578595727682
1772525796428408800,5.946408935546875,0.018270257860422134,0.011873805895447731,0.014621149748563766
1772525796438391800,5.956391845703125,0.022177647799253464,0.009007180109620094,0.013215798884630203
1772525796448375000,5.966375,0.014846265316009521,0.0008675765711814165,0.008450017310678959
1772525796458359000,5.976359130859375,0.010995067656040192,-0.0036384917329996824,-0.0057707298547029495
1772525796468342000,5.986342041015625,0.00870705209672451,-0.002303063403815031,-0.00828576646745205
1772525796478326000,5.996325927734375,0.0052428110502660275,0.004886672366410494,-0.008912140503525734
1772525796488309000,6.00630908203125,-0.002413993701338768,0.012250306084752083,0.002278507687151432
1772525796498292000,6.0162919921875,-0.005321633070707321,0.013290802016854286,0.007097763940691948
1772525796508276000,6.02627587890625,0.0009083282202482224,0.0020591667853295803,0.008330335840582848
1772525796518259000,6.036259033203125,0.005698289722204208,-0.015377080999314785,0.011378323659300804
1772525796528242000,6.046241943359375,0.0036722999066114426,-0.019578877836465836,0.0075231255032122135
1772525796538226000,6.056225830078125,0.0026091663166880608,-0.021395154297351837,0.008251233957707882
1772525796548209000,6.066208984375,-0.010550204664468765,-0.02490631304681301,0.00898829661309719
1772525796558193000,6.07619287109375,-0.02031974494457245,-0.022446617484092712,0.004959733225405216
1772525796568176000,6.086176025390625,-0.025471065193414688,-0.017611565068364143,-0.00992792472243309
1772525796578158800,6.096158935546875,-0.026362957432866096,-0.0015180830378085375,-0.020896686241030693
1772525796588142800,6.106142822265625,-0.024528928101062775,0.020496899262070656,-0.024882709607481956
1772525796598125800,6.116125732421875,-0.026279158890247345,0.026807526126503944,-0.015787746757268906
1772525796608109000,6.126109130859375,-0.029628947377204895,0.01407877542078495,-0.005786126013845205
1772525796618093000,6.136093017578125,-0.02147940918803215,0.010295222513377666,0.0071027749218046665
1772525796628076000,6.146075927734375,-0.004344757180660963,0.001915622386150062,0.022287962958216667
1772525796638059000,6.15605908203125,0.007325747050344944,-0.004955865442752838,0.03296404331922531
1772525796648043000,6.16604296875,0.009807225316762924,-0.01880558952689171,0.03690459579229355
1772525796658026000,6.17602587890625,0.006034058053046465,-0.018729954957962036,0.03482147306203842
1772525796668010000,6.186010009765625,0.004893376491963863,-0.006070616655051708,0.033162280917167664
1772525796677993000,6.195992919921875,-0.012094661593437195,0.014279129914939404,0.03336281701922417
1772525796687976000,6.205975830078125,-0.02121962606906891,0.02264922298491001,0.02805333584547043
1772525796697960000,6.2159599609375,-0.022512856870889664,0.019062742590904236,0.022747252136468887
1772525796707943000,6.22594287109375,-0.018983040004968643,0.01375602837651968,0.0210935827344656
1772525796717926100,6.235926025390625,-0.008240912109613419,0.013730461709201336,0.03245862200856209
1772525796727910100,6.24591015625,-0.006262433715164661,0.005087082274258137,0.0512249581515789
1772525796737892900,6.255892822265625,-0.002523355418816209,-0.004128520376980305,0.05931324511766434
1772525796747876900,6.265876953125,0.002112941350787878,-0.009474815800786018,0.05770895630121231
1772525796757859800,6.27585986328125,-0.00034702010452747345,-0.013193655759096146,0.044134825468063354
1772525796767843000,6.285843017578125,-0.0006373245269060135,-0.010735565796494484,0.019112836569547653
1772525796777827000,6.2958271484375,-0.0008125607855618,0.002830043900758028,0.004847348667681217
1772525796787810000,6.30581005859375,0.006786597426980734,0.019901318475604057,0.0030366121791303158
1772525796797793000,6.31579296875,0.0018043550662696362,0.026583721861243248,0.006516031920909882
1772525796807777000,6.325777099609375,0.0002621971070766449,0.02070370316505432,0.012052051723003387
1772525796817760000,6.335760009765625,0.0017660842277109623,-0.0007746911142021418,0.01080063171684742
1772525796827744000,6.345743896484375,0.0015369271859526634,-0.037790458649396896,0.01148916408419609
1772525796837727000,6.35572705078125,-0.004287406336516142,-0.06686419248580933,0.005967631936073303
1772525796847710000,6.3657099609375,-0.010068172588944435,-0.08012642711400986,0.0030539752915501595
1772525796857694000,6.37569384765625,-0.006593546364456415,-0.07709015160799026,-0.0015247976407408714
1772525796867677000,6.385677001953125,-0.0025221509858965874,-0.07139114290475845,-0.0017702369950711727
1772525796877660200,6.39566015625,-0.0007500834763050079,-0.0638543963432312,-0.00028898706659674644
1772525796887644200,6.40564404296875,-0.01230098307132721,-0.056821007281541824,0.0038642690051347017
1772525796897627000,6.415626953125,-0.025082292035222054,-0.04763709753751755,0.0019079111516475677
1772525796907611000,6.42561083984375,-0.030395077541470528,-0.03921128064393997,0.0028430516831576824
1772525796917593900,6.43559375,-0.035318996757268906,-0.024674415588378906,0.00687614269554615
1772525796927577000,6.4455771484375,-0.03692735731601715,-0.013014365918934345,0.006280926987528801
1772525796937561000,6.45556103515625,-0.03556302189826965,-0.0006996430456638336,0.0017250576056540012
1772525796947543800,6.465543701171875,-0.028300002217292786,0.0008092001080513,-0.006001948844641447
1772525796957527000,6.475527099609375,-0.02230203151702881,-0.011591276153922081,-0.013872388750314713
1772525796967511000,6.485510986328125,-0.025064963847398758,-0.01954670064151287,-0.01875411719083786
1772525796977494000,6.495493896484375,-0.024447113275527954,-0.015945307910442352,-0.020109668374061584
1772525796987478000,6.50547802734375,-0.02529813162982464,-0.01069945003837347,-0.022311678156256676
1772525796997461000,6.5154609375,-0.027435585856437683,-0.007882358506321907,-0.017078299075365067
1772525797007444000,6.52544384765625,-0.025212928652763367,-0.00865600910037756,-0.010587909258902073
1772525797017428000,6.535427978515625,-0.029577316716313362,-0.005313209258019924,-0.0074685486033558846
1772525797027411000,6.545410888671875,-0.030726497992873192,-0.0019545850809663534,0.005405573174357414
1772525797037394000,6.555393798828125,-0.03293745592236519,0.0035192761570215225,0.014237680472433567
1772525797047378200,6.565378173828125,-0.03460440784692764,0.006143482867628336,0.02084176056087017
1772525797057361000,6.57536083984375,-0.03062538057565689,0.003334913169965148,0.023395467549562454
1772525797067344000,6.58534375,-0.0283362977206707,0.008855966851115227,0.020889747887849808
1772525797077328000,6.595327880859375,-0.025422800332307816,0.013395058922469616,0.01891661062836647
1772525797087311000,6.60531103515625,-0.024265624582767487,0.021358083933591843,0.013397583737969398
1772525797097295000,6.615295166015625,-0.020447449758648872,0.021296832710504532,0.009660902433097363
1772525797107277800,6.62527783203125,-0.018506774678826332,0.023862769827246666,0.004891769960522652
1772525797117261000,6.635260986328125,-0.013910425826907158,0.02238205261528492,0.002191857434809208
1772525797127245000,6.6452451171875,-0.010953985154628754,0.01449313573539257,0.003690574551001191
1772525797137228000,6.65522802734375,-0.0033317520283162594,0.008371593430638313,0.011083776131272316
1772525797147211300,6.665211181640625,0.004857922904193401,-0.0004700734280049801,0.014980405569076538
1772525797157195300,6.6751953125,0.008479288779199123,-0.006514383479952812,0.018565285950899124
1772525797167178500,6.685178466796875,0.012748867273330688,-0.011250115931034088,0.01683514192700386
1772525797177162500,6.69516259765625,0.0117373988032341,-0.012489551678299904,0.01708414778113365
1772525797187145500,6.7051455078125,0.0055017974227666855,-0.012196476571261883,0.00653807632625103
1772525797197128200,6.715128173828125,0.003050624392926693,-0.0060621509328484535,0.0017718174494802952
1772525797207112200,6.7251123046875,-0.00050773611292243,0.0048887114971876144,-0.006124238949269056
1772525797217095400,6.735095458984375,-0.001614812295883894,0.01150799822062254,-0.013592543080449104
1772525797227078400,6.745078369140625,0.000162376556545496,0.01365403737872839,-0.010942695662379265
1772525797237062400,6.7550625,0.010730864480137825,0.015200534835457802,-0.009835885837674141
1772525797247045400,6.76504541015625,0.01026963908225298,0.011200283654034138,-0.004776733927428722
1772525797257029400,6.775029296875,0.012941853143274784,0.006189013831317425,-0.008570140227675438
1772525797267012400,6.785012451171875,0.020096424967050552,-0.0004974515177309513,-0.008720571175217628
1772525797276995300,6.794995361328125,0.02267356589436531,-0.00595187209546566,-0.010194363072514534
1772525797286979300,6.804979248046875,0.025505708530545235,-0.009349233470857143,-0.009621935896575451
1772525797296962600,6.814962646484375,0.016847774386405945,-0.010670161806046963,-0.010230734013020992
1772525797306945300,6.8249453125,0.008061954751610756,-0.008582237176597118,-0.016420232132077217
1772525797316929300,6.83492919921875,0.005014766473323107,-0.012071244418621063,-0.020640278235077858
1772525797326912500,6.84491259765625,0.004123140592128038,-0.007706057280302048,-0.022064536809921265
1772525797336896500,6.854896484375,0.001216566190123558,-0.005261807702481747,-0.017660200595855713
1772525797346879500,6.86487939453125,0.010622739791870117,0.002367560751736164,-0.014987237751483917
1772525797356862200,6.8748623046875,0.013901624828577042,0.01000896841287613,-0.008075002580881119
1772525797366846200,6.88484619140625,0.02127876877784729,0.012962080538272858,-0.0038712029345333576
1772525797376829400,6.894829345703125,0.024499859660863876,0.007699673995375633,0.00446395855396986
1772525797386812400,6.9048125,0.024802759289741516,0.0013344287872314453,0.013040241785347462
1772525797396796400,6.91479638671875,0.02355347014963627,-0.005431864410638809,0.021467015147209167
1772525797406779400,6.924779296875,0.016747821122407913,-0.011566483415663242,0.0194681528955698
1772525797416762400,6.934762451171875,0.007237141020596027,-0.01497772615402937,0.011425139382481575
1772525797426746400,6.944746337890625,-0.000008171424269676208,-0.006723890081048012,0.0036030556075274944
1772525797436729300,6.954729248046875,-0.008378487080335617,0.002120467834174633,-0.006377672776579857
1772525797446713300,6.96471337890625,-0.007952102459967136,0.011658383533358574,-0.00999855063855648
1772525797456696300,6.9746962890625,-0.005802399478852749,0.016244880855083466,-0.01781759224832058
1772525797466679300,6.98467919921875,-0.00253687659278512,0.023502903059124947,-0.019156793132424355
1772525797476663300,6.994663330078125,-0.0031398162245750427,0.026016395539045334,-0.01341288723051548
1772525797486646500,7.004646484375,-0.0067109595984220505,0.022924941033124924,-0.0000449339859187603
1772525797496629500,7.01462939453125,-0.002831798978149891,0.014442773535847664,0.011094802990555763
1772525797506613500,7.024613525390625,0.002106655389070511,0.0010679650586098433,0.021929658949375153
1772525797516596200,7.03459619140625,0.010071903467178345,-0.020225338637828827,0.02414887212216854
1772525797526580200,7.044580322265625,0.007095716428011656,-0.024187982082366943,0.02345670945942402
1772525797536563500,7.0545634765625,0.004205653909593821,-0.023902226239442825,0.018198831006884575
1772525797546546400,7.06454638671875,-0.0024924357421696186,-0.012690698727965355,0.004244034178555012
1772525797556530400,7.074530517578125,-0.008735951036214828,0.000003791647031903267,-0.008003577589988708
1772525797566513400,7.084513427734375,-0.017420688644051552,0.01189078576862812,-0.020772263407707214
1772525797576496400,7.094496337890625,-0.02372785471379757,0.00929899699985981,-0.026234138756990433
1772525797586480400,7.10448046875,-0.02562178671360016,0.0052815768867731094,-0.03127800673246384
1772525797596463400,7.11446337890625,-0.031209364533424377,0.007800661027431488,-0.02576206624507904
1772525797606447400,7.124447265625,-0.03076590597629547,0.006943952292203903,-0.01149208378046751
1772525797616430300,7.134430419921875,-0.028556548058986664,-0.0038873900193721056,0.0032189511694014072
1772525797626413300,7.144413330078125,-0.0247564148157835,-0.01275409571826458,0.017169209197163582
1772525797636397300,7.154397216796875,-0.02017977274954319,-0.021163826808333397,0.014683946967124939
1772525797646380500,7.164380615234375,-0.014008298516273499,-0.025923093780875206,0.01201789453625679
1772525797656363500,7.174363525390625,-0.015914322808384895,-0.025264494121074677,0.0014587272889912128
1772525797666347500,7.184347412109375,-0.012940077111124992,-0.008456241339445114,-0.008236980065703392
1772525797676330200,7.194330322265625,-0.011667884886264801,0.011994970962405205,-0.004202556796371937
1772525797686313500,7.2043134765625,-0.014499873854219913,0.02810700424015522,0.0032530673779547215
1772525797696297500,7.21429736328125,-0.013560842722654343,0.03183702751994133,0.0064363437704741955
1772525797706280400,7.224280517578125,-0.012032253667712212,0.02113574743270874,0.003920568153262138
1772525797716264400,7.234264404296875,-0.01000132691115141,0.007712883874773979,0.0038742288015782833
1772525797726247400,7.244247314453125,-0.011281082406640053,-0.004485412500798702,-0.0012911390513181686
1772525797736230400,7.25423046875,-0.008703143335878849,-0.00838374812155962,-0.0050387391820549965
1772525797746214400,7.26421435546875,-0.006237588357180357,-0.0023961623664945364,-0.006033962592482567
1772525797756197400,7.274197265625,-0.0035390073899179697,0.0029762322083115578,-0.003812619484961033
1772525797766180400,7.284180419921875,0.00254750344902277,0.011948016472160816,0.00005216570571064949
1772525797776164400,7.294164306640625,0.014772744849324226,0.015400005504488945,0.0065004779025912285
1772525797786147300,7.304147216796875,0.017480693757534027,0.006408267188817263,0.013661080040037632
1772525797796131300,7.31413134765625,0.019555294886231422,0.0052346121519804,0.01542356051504612
1772525797806114600,7.324114501953125,0.020935315638780594,-0.006355183199048042,0.011132885701954365
1772525797816097500,7.33409765625,0.008061861619353294,-0.014470633119344711,0.004096281714737415
1772525797826081300,7.344081298828125,0.0005569010972976685,-0.014963436871767044,-0.006464271806180477
1772525797836064300,7.354064208984375,-0.0028455534484237432,-0.0022210103925317526,-0.016641275957226753
1772525797846047500,7.364047607421875,-0.0059009213000535965,0.008298086933791637,-0.02270747534930706
1772525797856031500,7.374031494140625,-0.006985360756516457,0.014229745604097843,-0.024306438863277435
1772525797866014500,7.384014404296875,-0.001782730221748352,0.007667951285839081,-0.024342503398656845
1772525797875998500,7.39399853515625,0.0023576864041388035,0.003940857481211424,-0.026125755161046982
1772525797885981400,7.4039814453125,0.009309614077210426,0.0002457930240780115,-0.02833010070025921
1772525797895964400,7.41396435546875,0.006839532405138016,-0.01677020825445652,-0.020715588703751564
1772525797905948400,7.423948486328125,-0.004390861839056015,-0.016951624304056168,-0.017440486699342728
1772525797915931400,7.433931396484375,-0.013433358632028103,-0.013682859018445015,-0.012156243436038494
1772525797925914400,7.443914306640625,-0.02000005543231964,-0.01737217605113983,-0.009731543250381947
1772525797935898400,7.4538984375,-0.026459818705916405,-0.015776675194501877,-0.014310049824416637
1772525797945881300,7.46388134765625,-0.029937639832496643,-0.022402619943022728,-0.0298788882791996
1772525797955864300,7.4738642578125,-0.026924006640911102,-0.018780454993247986,-0.042785901576280594
1772525797965848300,7.483848388671875,-0.021741462871432304,-0.012221538461744785,-0.04920976608991623
1772525797975831300,7.493831298828125,-0.01967272162437439,-0.0032677240669727325,-0.04420648515224457
1772525797985815300,7.503815185546875,-0.019057799130678177,0.011345474049448967,-0.03949550911784172
1772525797995798300,7.51379833984375,-0.015426844358444214,0.022700659930706024,-0.0278732068836689
1772525798005781500,7.523781494140625,-0.013991840183734894,0.017973164096474648,-0.010200257413089275
1772525798015765500,7.533765625,-0.021330978721380234,-0.006292494013905525,-0.004043827764689922
1772525798025748500,7.54374853515625,-0.017834573984146118,-0.023603005334734917,-0.0021640192717313766
1772525798035731200,7.553731201171875,-0.01541056390851736,-0.026369230821728706,-0.0025832010433077812
1772525798045715500,7.563715576171875,-0.014677305705845356,-0.024755576625466347,-0.004205268807709217
1772525798055698400,7.573698486328125,-0.01136380061507225,-0.011479985900223255,-0.0035594524815678596
1772525798065682400,7.583682373046875,-0.010960721410810947,0.009341278113424778,-0.0009953654371201992
1772525798075665400,7.59366552734375,-0.007648281753063202,0.01908258907496929,0.0009870915673673153
1772525798085648400,7.6036484375,-0.006909945514053106,0.02256116457283497,0.005733808036893606
1772525798095632400,7.61363232421875,-0.0018304986879229546,0.022897522896528244,0.011149079538881779
1772525798105615400,7.623615478515625,0.0031678322702646255,0.01352910790592432,0.014300450682640076
1772525798115598300,7.633598388671875,0.009046494029462337,0.010048622265458107,0.016474921256303787
1772525798125582300,7.643582275390625,0.009323244914412498,0.0047292159870266914,0.016293875873088837
1772525798135565300,7.6535654296875,0.004947405308485031,0.009487485513091087,0.017413202673196793
1772525798145549300,7.66354931640625,0.0008072382770478725,0.011089468374848366,0.010489944368600845
1772525798155532000,7.673531982421875,0.0014354782178997993,0.01270787138491869,0.005380670074373484
1772525798165515300,7.683515380859375,0.0019324240274727345,0.01298324204981327,0.00213960325345397
1772525798175499300,7.693499267578125,0.002068511676043272,0.0090963589027524,-0.0025190645828843117
1772525798185482200,7.703482177734375,0.006602369714528322,0.0008679551538079977,-0.0041309259831905365
1772525798195465200,7.71346533203125,0.005285968538373709,-0.005147859919816256,-0.011076449416577816
1772525798205449200,7.72344921875,0.001795914489775896,-0.013887465000152588,-0.00981687381863594
1772525798215432200,7.73343212890625,-0.0008233045227825642,-0.013933537527918816,-0.013656886294484138
1772525798225415200,7.743415283203125,-0.008263770490884781,-0.009997082874178886,-0.023090224713087082
1772525798235399200,7.753399169921875,-0.01291844341903925,-0.00443906569853425,-0.029854387044906616
1772525798245382400,7.76338232421875,-0.015519551932811737,-0.0017194459214806557,-0.0363282673060894
1772525798255366400,7.773366455078125,-0.017128368839621544,0.0030955492984503508,-0.041402120143175125
1772525798265349000,7.78334912109375,-0.016767950728535652,0.010329545475542545,-0.03692635893821716
1772525798275332000,7.79333203125,-0.009255439043045044,0.011904805898666382,-0.026871327310800552
1772525798285316400,7.80331640625,-0.010278341360390186,0.006076214835047722,-0.01867065764963627
1772525798295299300,7.81329931640625,-0.011905265972018242,-0.0013223132118582726,-0.01404581218957901
1772525798305282000,7.823281982421875,-0.013374466449022293,-0.013564961031079292,-0.012940717861056328
1772525798315266000,7.83326611328125,-0.01377047784626484,-0.012152686715126038,-0.01132870651781559
1772525798325249300,7.843249267578125,-0.01653672382235527,0.0008089048787951469,-0.010702050291001797
1772525798335233300,7.8532333984375,-0.013927625492215157,0.011490311473608017,-0.009323331527411938
1772525798345216300,7.86321630859375,-0.006682663690298796,0.015551351010799408,-0.008932020515203476
1772525798355199200,7.87319921875,-0.008125031366944313,0.025179743766784668,0.00010435236617922783
1772525798365183200,7.883183349609375,-0.007368746213614941,0.027925902977585793,0.008172730915248394
1772525798375166200,7.893166259765625,-0.005656067747622728,0.017532384023070335,0.0224898848682642
1772525798385149200,7.903149169921875,-0.009344465099275112,0.0015809183241799474,0.026369309052824974
1772525798395133200,7.91313330078125,-0.00917801819741726,-0.01070024911314249,0.022892553359270096
1772525798405116400,7.923116455078125,-0.007121650967746973,-0.019326191395521164,0.0164432842284441
1772525798415100400,7.933100341796875,-0.00532827852293849,-0.015057941898703575,0.005035633221268654
1772525798425083100,7.943083251953125,-0.011228385381400585,-0.0033595117274671793,-0.009651808068156242
1772525798435066000,7.953066162109375,-0.018415724858641624,0.0221309345215559,-0.02551839128136635
1772525798445050000,7.963050048828125,-0.016802221536636353,0.03086322359740734,-0.0372077077627182
1772525798455033300,7.973033447265625,-0.015401131473481655,0.03442467004060745,-0.03931240364909172
1772525798465016000,7.98301611328125,-0.011965077370405197,0.028605815023183823,-0.025668328627943993
1772525798475000000,7.993,-0.010667851194739342,0.017224527895450592,-0.0012338259257376194
1772525798484980200,8.002980224609376,-0.007368025835603476,-0.0022157279308885336,0.023094847798347473
1772525798494964200,8.012964111328126,-0.003459836822003126,-0.015073202550411224,0.04094548523426056
1772525798504947200,8.022947265625,0.0028114067390561104,-0.026961207389831543,0.043673306703567505
1772525798514931200,8.03293115234375,0.0021040719002485275,-0.032384201884269714,0.03499379754066467
1772525798524914200,8.0429140625,0.0008105002343654633,-0.027538981288671494,0.01600976102054119
1772525798534897400,8.0528974609375,-0.0045858630910515785,-0.024062223732471466,-0.0050531793385744095
1772525798544881200,8.062881103515625,-0.004175974056124687,-0.004195863846689463,-0.025738155469298363
1772525798554864000,8.072864013671875,-0.003515243763104081,0.01380071323364973,-0.031216276809573174
1772525798564847000,8.08284716796875,-0.00871967151761055,0.02509067952632904,-0.027414990589022636
1772525798574831400,8.092831298828125,-0.010859787464141846,0.02570054493844509,-0.01847236044704914
1772525798584814300,8.102814453125,-0.01300375908613205,0.01488574966788292,-0.00373671343550086
1772525798594797000,8.112797119140625,-0.009894518181681633,0.004583577159792185,0.007637647446244955
1772525798604781000,8.122781005859375,-0.00871758908033371,-0.008897904306650162,0.012561140581965446
1772525798614764300,8.132764404296875,-0.008114649914205074,-0.013152036815881729,0.015967324376106262
1772525798624748300,8.142748291015625,-0.010674132034182549,-0.012735444121062756,0.016065318137407303
1772525798634731300,8.152731201171875,-0.0023725260980427265,-0.013232921250164509,0.012743556872010231
1772525798644714200,8.16271435546875,-0.00046520354226231575,-0.007955686189234257,0.013801690191030502
1772525798654698200,8.1726982421875,0.000631219707429409,-0.002413115929812193,0.013044819235801697
1772525798664681200,8.18268115234375,-0.0006022648885846138,0.005891201086342335,0.01137347798794508
1772525798674664200,8.192664306640625,-0.0010105273686349392,0.012260417453944683,0.005373909138143063
1772525798684648200,8.202648193359375,-0.004004483111202717,0.015342509374022484,-0.0007503521628677845
1772525798694631400,8.21263134765625,-0.007336896378546953,0.021302662789821625,-0.0051653399132192135
1772525798704615200,8.222615234375,-0.007971306331455708,0.020514745265245438,-0.003392639569938183
1772525798714598100,8.23259814453125,-0.009022189304232597,0.010110042057931423,-0.004584137350320816
1772525798724581000,8.2425810546875,-0.004240139853209257,-0.00006299535743892193,-0.00015066517516970634
1772525798734565400,8.2525654296875,-0.0006062565371394157,-0.009940393269062042,0.011252458207309246
1772525798744548400,8.26254833984375,-0.0015377691015601158,-0.015289822593331337,0.023679835721850395
1772525798754531000,8.272531005859374,-0.0036821463145315647,-0.01843448169529438,0.031691424548625946
1772525798764515000,8.28251513671875,-0.0026278949808329344,-0.015235373750329018,0.032050471752882004
1772525798774498300,8.292498291015624,-0.0017176265828311443,-0.012938663363456726,0.02620057202875614
1772525798784482300,8.302482421875,-0.0024666795507073402,-0.00010714028030633926,0.011388815939426422
1772525798794465300,8.31246533203125,-0.004135682713240385,0.009569721296429634,-0.004169371910393238
1772525798804448000,8.322447998046876,-0.006582565605640411,0.009310579858720303,-0.014569493010640144
1772525798814432300,8.332432373046874,-0.008727475069463253,0.012895194813609123,-0.024817602708935738
1772525798824415200,8.342415283203126,-0.012661261484026909,0.014294872991740704,-0.024189844727516174
1772525798834398200,8.352398193359376,-0.011189598590135574,0.012128124944865704,-0.01999562978744507
1772525798844382200,8.36238232421875,-0.010929517447948456,0.008358102291822433,-0.007829034700989723
1772525798854365200,8.372365234375,-0.011639783158898354,-0.0004332589451223612,-0.0020537041127681732
1772525798864350200,8.38235009765625,-0.005166218150407076,-0.014882134273648262,-0.0001078885979950428
1772525798874334200,8.392334228515624,-0.005915365181863308,-0.01993468403816223,-0.004637126810848713
1772525798884317200,8.402317138671876,-0.004562116228044033,-0.011595814488828182,-0.00515367928892374
1772525798894300200,8.412300048828126,-0.0054971519857645035,-0.00460368487983942,-0.007731619291007519
1772525798904284200,8.4222841796875,-0.007023504003882408,0.0041465163230896,-0.004998363088816404
1772525798914267400,8.432267333984376,-0.007322576828300953,0.010749025270342827,-0.0035663810558617115
1772525798924251400,8.44225146484375,-0.006946333218365908,0.012037666514515877,0.004696337506175041
1772525798934234000,8.452234130859376,-0.006149781867861748,0.0016750399954617023,0.008190138265490532
1772525798944217000,8.462217041015625,0.003795054741203785,-0.008755434304475784,0.008718781173229218
1772525798954201300,8.472201416015626,0.009050004184246063,-0.01786877028644085,0.0009956136345863342
1772525798964184300,8.482184326171875,0.010918477550148964,-0.011866805143654346,-0.0033136471174657345
1772525798974167000,8.4921669921875,0.008332815021276474,-0.009671561419963837,-0.0015242691151797771
1772525798984151000,8.502151123046875,0.000815744511783123,-0.004291792865842581,-0.000976666808128357
1772525798994134300,8.51213427734375,0.0003459630534052849,0.0014302748022601008,-0.004414808005094528
1772525799004118300,8.5221181640625,0.0019252793863415718,0.0021163704805076122,-0.00569871673360467
1772525799014101200,8.532101318359375,-0.0023429689463227987,0.0025925436057150364,-0.005681938026100397
1772525799024084200,8.542084228515625,-0.0057070255279541016,0.003544081235304475,-0.008885139599442482
1772525799034068200,8.552068115234375,-0.0037876851856708527,0.006885549519211054,-0.007642240729182959
1772525799044051200,8.56205126953125,-0.002976658521220088,0.0043967063538730145,-0.011124378070235252
1772525799054034200,8.5720341796875,-0.002068254165351391,0.0025050630792975426,-0.009310765191912651
1772525799064018200,8.58201806640625,0.002559063956141472,-0.006141546182334423,-0.0034409421496093273
1772525799074001400,8.59200146484375,0.003804357722401619,-0.013051916845142841,-0.000322114210575819
1772525799083985400,8.6019853515625,0.005778810009360313,-0.004641293548047543,0.004093032795935869
1772525799093968100,8.611968017578125,0.005233128555119038,0.0005510712508112192,0.008589513599872589
1772525799103951000,8.621951171875,0.005485204979777336,0.0033219563774764538,0.008139441721141338
1772525799113935400,8.631935302734375,0.0017639696598052979,0.006922283675521612,0.007269653026014566
1772525799123918300,8.64191845703125,0.001369305420666933,-0.0006081629544496536,0.006266546435654163
1772525799133901000,8.651901123046875,0.003446836955845356,-0.010835234075784683,0.006158422213047743
1772525799143885000,8.661885009765625,0.002808870282024145,-0.014808176085352898,0.005023273639380932
1772525799153868300,8.671868408203125,0.00247650733217597,-0.014177272096276283,-0.00022475142031908035
1772525799163851300,8.681851318359374,-0.0010088817216455936,-0.010409221053123474,-0.0024924841709434986
1772525799173835300,8.691835205078124,-0.0024246179964393377,0.0025537158362567425,-0.0032938295044004917
1772525799183818200,8.701818359375,-0.006120298523455858,0.004831446800380945,0.000056469347327947617
1772525799193802200,8.71180224609375,-0.0009076935239136219,0.00875241868197918,-0.000517707783728838
1772525799203785200,8.72178515625,0.003218604251742363,0.004525612574070692,0.008132623508572578
1772525799213768200,8.731768310546874,0.006108400411903858,-0.004323272965848446,0.004230027087032795
1772525799223752200,8.741752197265624,0.0018126433715224266,-0.01092682033777237,-0.0012226351536810398
1772525799233735400,8.7517353515625,0.0019391439855098724,-0.016069116070866585,-0.009485360234975815
1772525799243718100,8.76171826171875,0.001994319725781679,-0.009793919511139393,-0.014368483796715736
1772525799253702100,8.7717021484375,-0.0033051040954887867,0.001549282344058156,-0.019469235092401505
1772525799263685000,8.78168505859375,-0.010620747692883015,0.012227460741996765,-0.021071547642350197
1772525799273669000,8.791669189453126,-0.013930791057646275,0.00666172057390213,-0.016137242317199707
1772525799283652400,8.80165234375,-0.01477009430527687,0.003583332058042288,-0.0101670753210783
1772525799293635000,8.811635009765626,-0.010703446343541145,-0.001092912396416068,-0.00289371469989419
1772525799303619000,8.821619140625,-0.007295477669686079,-0.009436302818357944,0.006535366643220186
1772525799313602300,8.831602294921876,-0.00032598525285720825,-0.015196987427771091,0.017296934500336647
1772525799323585300,8.841585205078125,-0.003028716892004013,-0.01336387824267149,0.023188697174191475
1772525799333569300,8.8515693359375,0.003410806879401207,-0.007652197033166885,0.022510657086968422
1772525799343552000,8.861552001953125,0.001443653367459774,0.00037976261228322983,0.01588604412972927
1772525799353536300,8.871536376953125,0.00025481823831796646,0.013808486983180046,0.00989046972244978
1772525799363519200,8.881519287109375,-0.0016095819883048534,0.011415875516831875,-0.0030696974135935307
1772525799373502200,8.891502197265625,-0.0027558065485209227,0.00888853520154953,-0.010861575603485107
1772525799383486200,8.901486328125,0.00008794805034995079,0.006787913851439953,-0.012726638466119766
1772525799393469400,8.911469482421875,-0.0038878850173205137,0.00035904301330447197,-0.007005103398114443
1772525799403452200,8.9214521484375,-0.006407376378774643,-0.004171125590801239,0.00023549655452370644
1772525799413436200,8.931436279296875,-0.0062670279294252396,-0.005782337859272957,0.013452498242259026
1772525799423419100,8.941419189453125,-0.0058897510170936584,0.0015199959743767977,0.023087231442332268
1772525799433403100,8.951403076171875,-0.004078801721334457,0.0015460950089618564,0.02219214290380478
1772525799443386400,8.961386474609375,-0.0003391122445464134,-0.00437680259346962,0.01710694283246994
1772525799453369000,8.971369140625,0.0004963213577866554,-0.0046883923932909966,0.010874347761273384
1772525799463353000,8.98135302734375,-0.0010311086662113667,-0.001181228319182992,-0.0005230829119682312
1772525799473336300,8.99133642578125,-0.0037344833835959435,0.001834801514633,-0.014084432274103165
1772525799483319300,9.0013193359375,-0.005929915700107813,0.008476696908473969,-0.019842078909277916
1772525799493303300,9.01130322265625,-0.012173697352409363,0.006175725720822811,-0.022951850667595863
1772525799503286000,9.0212861328125,-0.016695387661457062,0.009245865046977997,-0.01797727309167385
1772525799513270000,9.03127001953125,-0.018635500222444534,0.008249310776591301,-0.010355040431022644
1772525799523253200,9.041253173828125,-0.010360822081565857,0.0025589503347873688,0.0024459203705191612
1772525799533236200,9.051236328125,-0.006832399405539036,-0.0022981229703873396,0.007523769978433847
1772525799543220200,9.06122021484375,-0.0033980985172092915,-0.007520729675889015,0.011217094026505947
1772525799553203200,9.071203125,0.0048236120492219925,-0.012203898280858994,0.008638621307909489
1772525799563186200,9.081186279296874,0.009638059884309769,-0.013657531701028347,0.00013493793085217476
1772525799573170200,9.091170166015624,0.006403651088476181,-0.013278831727802753,-0.010601064190268517
1772525799583153200,9.101153076171874,0.000052576884627342224,-0.01097618043422699,-0.015429960563778877
1772525799593137200,9.11113720703125,-0.004155750386416912,-0.0067414878867566586,-0.017643846571445465
1772525799603120400,9.121120361328124,-0.0026278123259544373,0.005004195962101221,-0.009155035018920898
1772525799613103000,9.13110302734375,-0.005391906946897507,0.010525994002819061,-0.004645238164812326
1772525799623087000,9.141087158203124,0.002770424820482731,0.015160933136940002,-0.0008877166546881199
1772525799633070300,9.1510703125,0.003918513655662537,0.01719585433602333,0.004354449454694986
1772525799643053300,9.16105322265625,0.009222324937582016,0.008334677666425705,0.009203162044286728
1772525799653037300,9.171037353515626,0.007321093697100878,0.004029944073408842,0.014012563973665237
1772525799663020000,9.18102001953125,0.008872149512171745,0.0070448974147439,0.015109837055206299
1772525799673004000,9.191004150390626,0.006536024622619152,-0.002093473682180047,0.01505950279533863
1772525799682987300,9.2009873046875,0.0019949907436966896,-0.007174759171903133,0.015783244743943214
1772525799692970200,9.21097021484375,-0.001829841174185276,-0.015089673921465874,0.014845279976725578
1772525799702954200,9.220954345703126,-0.0033819943200796843,-0.021336983889341354,0.009968234226107597
1772525799712937200,9.230937255859375,-0.0005007204599678516,-0.01901550590991974,0.0030301669612526894
1772525799722920200,9.240920166015625,0.0068998923525214195,-0.001982087967917323,-0.001088571734726429
1772525799732904200,9.250904296875,0.005907864309847355,0.012218419462442398,-0.008470854721963406
1772525799742887200,9.26088720703125,0.003983373753726482,0.01735161803662777,-0.008924719877541065
1772525799752871200,9.27087109375,-0.000934152863919735,0.02090107835829258,-0.010720224119722843
1772525799762854400,9.2808544921875,-0.0010959208011627197,0.011078386567533016,-0.006896659266203642
1772525799772837000,9.290837158203125,-0.0030125980265438557,0.001411111676134169,0.002409224398434162
1772525799782821000,9.300821044921875,-0.003984933719038963,-0.010763436555862427,0.010382888838648796
1772525799792804400,9.310804443359375,-0.0031740013509988785,-0.018332937732338905,0.017361968755722046
1772525799802787300,9.320787353515625,0.0027406769804656506,-0.018040362745523453,0.02950587496161461
1772525799812771300,9.330771240234375,0.00776526378467679,-0.012691935524344444,0.02392122521996498
1772525799822754000,9.340754150390625,0.008448049426078796,-0.0008512435015290976,0.011412040330469608
1772525799832738000,9.350738037109375,0.005416573490947485,0.003933657892048359,-0.005215672310441732
1772525799842721300,9.36072119140625,-0.0007220916450023651,0.008067088201642036,-0.015860334038734436
1772525799852704300,9.370704345703125,-0.002643296029418707,0.010332105681300163,-0.026678360998630524
1772525799862688300,9.380688232421875,-0.0011361967772245407,0.004235860891640186,-0.027312185615301132
1772525799872671200,9.390671142578125,0.0034026289358735085,0.0012430001515895128,-0.0212300606071949
1772525799882654200,9.400654296875,0.006729495711624622,0.000040390295907855034,-0.011163587681949139
1772525799892638200,9.41063818359375,0.00792152713984251,-0.0034323716536164284,0.004002582281827927
1772525799902621200,9.42062109375,0.007976576685905457,-0.003124132053926587,0.014063004404306412
1772525799912605200,9.430605224609375,0.003958131652325392,-0.0038226789329200983,0.0169522687792778
1772525799922588200,9.440588134765624,0.00464579276740551,-0.010912199504673481,0.01529652625322342
1772525799932571100,9.450571044921874,0.006131569854915142,-0.005239400081336498,0.008559261448681355
1772525799942555100,9.46055517578125,0.008339346386492252,0.0022405278868973255,0.005499661900103092
1772525799952538400,9.470538330078124,0.008483955636620522,0.0041119311936199665,0.005074088461697102
1772525799962521300,9.480521240234374,0.008574189618229866,-0.0018527389038354158,0.001530434936285019
1772525799972505300,9.49050537109375,0.00716910557821393,-0.015746982768177986,-0.0031516682356595993
1772525799982488000,9.500488037109376,0.004547459073364735,-0.014082935638725758,-0.011569244787096977
1772525799992472000,9.51047216796875,-0.0005016280338168144,-0.0031898075249046087,-0.020055141299962997
1772525800002455300,9.520455322265626,-0.009161397814750671,0.008579928427934647,-0.0251762755215168
1772525800012438300,9.530438232421876,-0.011957185342907906,0.02034284546971321,-0.027298547327518463
1772525800022422300,9.54042236328125,-0.011038551107048988,0.02330300211906433,-0.018476244062185287
1772525800032405200,9.5504052734375,-0.009613227099180222,0.010991208255290985,-0.002850412391126156
1772525800042388200,9.56038818359375,-0.0033199514728039503,-0.0031172032468020916,0.017043381929397583
1772525800052372200,9.570372314453126,0.004708946216851473,-0.013942420482635498,0.034139811992645264
1772525800062355200,9.580355224609375,0.010404360480606556,-0.031105536967515945,0.0444202683866024
1772525800072339200,9.590339111328126,0.009532441385090351,-0.040663886815309525,0.0357399620115757
1772525800082322200,9.600322265625,0.003507622517645359,-0.030651649460196495,0.021140987053513527
1772525800092305200,9.61030517578125,-0.00233721686527133,-0.004672513343393803,-0.0008239657618105412
1772525800102289200,9.6202890625,-0.010047411546111107,0.020611299201846123,-0.015183571726083755
1772525800112272400,9.6302724609375,-0.017092006281018257,0.029600532725453377,-0.023436974734067917
1772525800122255400,9.64025537109375,-0.01922820508480072,0.027131810784339905,-0.02408263459801674
1772525800132239000,9.650239013671875,-0.01772351935505867,0.015875695273280144,-0.020308401435613632
1772525800142222000,9.66022216796875,-0.0106231439858675,-0.008125747554004192,-0.008490774780511856
1772525800152206300,9.670206298828125,-0.009174385108053684,-0.02600780874490738,0.0024673338048160076
1772525800162189600,9.680189453125,-0.001766690518707037,-0.029631419107317924,0.004293939098715782
1772525800172172500,9.690172607421875,0.00037981756031513214,-0.0248478502035141,0.010531861335039139
1772525800182156500,9.700156494140625,-0.00555377034470439,-0.01121396292001009,0.01636030152440071
1772525800192139300,9.71013916015625,-0.006032340228557587,0.002411834429949522,0.01358422078192234
1772525800202122500,9.72012255859375,-0.007094393949955702,0.01597140170633793,0.012705587781965733
1772525800212106500,9.7301064453125,-0.010521349497139454,0.01616447977721691,0.004764041397720575
1772525800222089500,9.74008935546875,-0.010224704630672932,0.005329154431819916,0.001713606994599104
1772525800232073500,9.750073486328125,-0.007259807549417019,-0.004978344775736332,0.00004194071516394615
1772525800242056400,9.760056396484375,-0.001042657531797886,-0.010211190208792686,-0.002044911962002516
1772525800252039400,9.770039306640625,-0.000273803249001503,-0.004112550988793373,-0.002359165344387293
1772525800262023400,9.7800234375,0.003399043343961239,0.005089009180665016,0.0008432809263467789
1772525800272006400,9.79000634765625,-0.0010817255824804306,0.01191176101565361,0.0012379614636301994
1772525800281989600,9.79998974609375,0.00036615412682294846,0.014421364292502403,0.002126228529959917
1772525800291973400,9.809973388671875,-0.0024565302301198244,0.0005223271436989307,0.0022474019788205624
1772525800301956400,9.819956298828124,-0.0029830681160092354,-0.005922248587012291,0.003648445475846529
1772525800311940400,9.8299404296875,0.00014854269102215767,-0.01241157203912735,0.002628454938530922
1772525800321923600,9.839923583984374,0.010374973528087139,-0.007533153519034386,0.007862205617129803
1772525800331906600,9.849906494140624,0.019584182649850845,0.0009135941509157419,0.013841003179550171
1772525800341890600,9.859890625,0.018591217696666718,-0.009915919974446297,0.01633574068546295
1772525800351873300,9.869873291015624,0.015036695636808872,-0.010828319005668163,0.014107741415500641
1772525800361856500,9.8798564453125,0.015743043273687363,-0.013361278921365738,0.0029731723479926586
1772525800371840500,9.889840576171874,0.006426508072763681,-0.01548355259001255,-0.011903511360287666
1772525800381823500,9.899823486328126,0.0020203380845487118,-0.01176313403993845,-0.02490207925438881
1772525800391807500,9.909807373046876,0.0007356288842856884,0.0023774527944624424,-0.03506070747971535
1772525800401790500,9.91979052734375,0.000284003559499979,0.012755419127643108,-0.0463547483086586
1772525800411773400,9.9297734375,0.0028563514351844788,0.02031293697655201,-0.037049662321805954
1772525800421757400,9.93975732421875,0.010454507544636726,0.029596490785479546,-0.02989177592098713
1772525800431740400,9.949740478515626,0.011808192357420921,0.024603065103292465,-0.0167770404368639
1772525800441723600,9.9597236328125,0.009075099602341652,-0.003963544499129057,-0.004893697332590818
1772525800451707400,9.969707275390626,0.005254262592643499,-0.02343657799065113,0.001828919630497694
1772525800461690400,9.9796904296875,0.009991570375859737,-0.012434913776814938,0.0026994533836841583
1772525800471674400,9.98967431640625,0.0057134684175252914,0.006971273571252823,-0.00788714550435543
1772525800481657600,9.99965771484375,0.0033000647090375423,0.014693214558064938,-0.020083513110876083
1772525800491640600,10.009640625,0.005867352243512869,0.02147309109568596,-0.02877633646130562
1772525800501624600,10.01962451171875,0.008947266265749931,0.02572261542081833,-0.03647788241505623
1772525800511607300,10.029607177734375,0.007611159235239029,0.031133627519011497,-0.038508277386426926
1772525800521590500,10.039590576171875,0.010074317455291748,0.03680252656340599,-0.04341046139597893
1772525800531574500,10.049574462890625,0.01610930636525154,0.05914431810379028,-0.045673616230487823
1772525800541557500,10.0595576171875,0.016534127295017242,0.06996187567710876,-0.04292098060250282
1772525800551541500,10.06954150390625,0.017084335908293724,0.06269863992929459,-0.040758226066827774
1772525800561524500,10.0795244140625,0.01678711175918579,0.04610040411353111,-0.0378103107213974
1772525800571507500,10.089507568359375,0.014961248263716698,0.03556494042277336,-0.03341636434197426
1772525800581491500,10.099491455078125,0.017940199002623558,0.020696179941296577,-0.01999776065349579
1772525800591474400,10.109474365234375,0.015945756807923317,0.021173151209950447,-0.013708440586924553
1772525800601457400,10.11945751953125,0.009617648087441921,0.03583693131804466,-0.014445123262703419
1772525800611441400,10.12944140625,0.0088839465752244,0.04838068410754204,-0.01893894001841545
1772525800621424400,10.13942431640625,0.010223719291388988,0.060961298644542694,-0.0335201770067215
1772525800631408400,10.149408447265625,0.008044455200433731,0.06921416521072388,-0.05942714214324951
1772525800641391600,10.1593916015625,0.0037104585207998753,0.07169471681118011,-0.0894109234213829
1772525800651374600,10.16937451171875,0.005533392075449228,0.09204366058111191,-0.12810878455638885
1772525800661358300,10.1793583984375,0.015721704810857773,0.12370825558900833,-0.1778838038444519
1772525800671341300,10.18934130859375,0.011488611809909344,0.14826233685016632,-0.18067452311515808
1772525800681324500,10.199324462890624,-0.021893596276640892,0.06974524259567261,-0.15363049507141113
1772525800691308500,10.20930859375,-0.02957282029092312,-0.043156806379556656,-0.11662934720516205
1772525800701291500,10.21929150390625,-0.01006165612488985,-0.14811971783638,-0.07800492644309998
1772525800711275500,10.229275634765624,0.02348112314939499,-0.18079563975334167,-0.05534221976995468
1772525800721258500,10.239258544921874,0.02902498096227646,-0.126397967338562,-0.0580059215426445
1772525800731241500,10.249241455078124,0.01652170717716217,-0.03781963884830475,-0.060321010649204254
1772525800741225500,10.2592255859375,0.0007451535202562809,0.04727872088551521,-0.09670905768871307
1772525800751208400,10.26920849609375,-0.02243420109152794,0.13152329623699188,-0.1651104837656021
1772525800761191400,10.27919140625,-0.03711894899606705,0.25091347098350525,-0.25664085149765015
1772525800771175400,10.289175537109376,-0.07856173068284988,0.4065406024456024,-0.2704874277114868
