time,seconds_elapsed,z,y,x
1772525984907675100,0.086675048828125,-1.2894219709008932,-0.9993749027147889,-0.9867736336864531
1772525984917659100,0.0966591796875,-1.404888424989581,-0.9081317663870752,-0.7875298491060734
1772525984927642000,0.10664208984375,-1.3495821328312159,-0.7430905495293438,-0.5367619212545455
1772525984937624800,0.116624755859375,-1.3134738776177166,-0.5147592021524906,-0.2745943552494049
1772525984947608800,0.12660888671875,-1.388599553489685,-0.31948768220394846,-0.08075169906020165
1772525984957592000,0.136592041015625,-1.5045400548309087,-0.2977092733770609,0.140854577845335
1772525984967576000,0.146576171875,-1.537751419559121,-0.4593932887613773,0.41962212712615726
1772525984977559000,0.15655908203125,-1.389628896537423,-0.6160641521587967,0.5993311901532113
1772525984987542000,0.1665419921875,-1.1497563105791806,-0.6933557738929986,0.5855944873541593
1772525984997526000,0.176526123046875,-0.9779887080758809,-0.7415145323842763,0.3380480057671666
1772525985007509000,0.186509033203125,-0.9045885408222675,-0.8346955049067735,-0.0657543286755681
1772525985017493000,0.196492919921875,-0.8430313715755939,-0.8843108919471502,-0.4543240226730704
1772525985027476000,0.20647607421875,-0.8271592641830444,-0.8513944185122847,-0.7544292512759566
1772525985037460000,0.2164599609375,-0.8811012822508811,-0.7517565249353647,-0.8674415171455592
1772525985047443000,0.22644287109375,-0.9549509468376636,-0.6399062155172228,-0.8044178555428981
1772525985057426000,0.236426025390625,-1.0120756865948437,-0.5252402641564607,-0.6577864478617906
1772525985067410000,0.246409912109375,-1.0208388387650251,-0.3785568340271711,-0.5325323208607733
1772525985077393200,0.25639306640625,-0.9364110815405845,-0.18015636840313673,-0.48200763695575294
1772525985087377200,0.266377197265625,-0.848329477983713,0.015137655638158321,-0.5080890036735684
1772525985097360000,0.27635986328125,-0.7665145336061716,0.1262915072247386,-0.5442590720769017
1772525985107342800,0.2863427734375,-0.6746329532444477,0.17811989413946866,-0.5762862685218453
1772525985117326800,0.296326904296875,-0.6087655195832252,0.2492684830740094,-0.6117621441159397
1772525985127310000,0.30631005859375,-0.5583709648638964,0.3427972461208701,-0.62894526104182
1772525985137294000,0.316294189453125,-0.5966308451533318,0.42424920240491626,-0.5962886075869203
1772525985147277000,0.326277099609375,-0.7364145788967609,0.5277022703558206,-0.5921582297839224
1772525985157260800,0.3362607421875,-0.877595319956541,0.6759785226345062,-0.6310398952335119
1772525985167244000,0.346244140625,-0.8969856646031141,0.8957707358554005,-0.6508694350149482
1772525985177227000,0.35622705078125,-0.7948778737813234,1.110435523059964,-0.5962414805095643
1772525985187211000,0.3662109375,-0.5721569136321545,1.2512854247301817,-0.4868169369336217
1772525985197194000,0.376194091796875,-0.33159108471274373,1.3040844102427362,-0.3238797796830535
1772525985207178200,0.38617822265625,-0.011450783818960189,1.300522626107931,-0.12382672454640269
1772525985217161000,0.396160888671875,0.34732816754877566,1.2686612146839498,0.04027786904834211
1772525985227144000,0.40614404296875,0.6715507693201304,1.2443036030188201,0.09892645737193524
1772525985237128000,0.4161279296875,0.9100976596325635,1.2126713241755962,0.11224756510742008
1772525985247111200,0.426111083984375,1.051598718687892,1.1255033283323048,0.13287987263910472
1772525985257095200,0.43609521484375,1.0654916349619625,0.9715902392104268,0.1585663217552006
1772525985267078000,0.446077880859375,0.9506552954703569,0.7688865234345197,0.17078626331575214
1772525985277062000,0.456061767578125,0.8966811286985874,0.6337932855948806,0.15869623174518346
1772525985287045000,0.466045166015625,0.860621973323822,0.5648705560162663,0.09845949744731188
1772525985297028000,0.476028076171875,0.7817460050076246,0.5205845473051071,-0.002440013563260436
1772525985307012000,0.48601220703125,0.6316483825206757,0.5231351085707545,-0.13304887253046035
1772525985316994800,0.495994873046875,0.32780338286757466,0.5984560147538781,-0.26075543418489394
1772525985326978800,0.505978759765625,-0.06467910065948963,0.7270148823887109,-0.4129539014086127
1772525985336962000,0.515962158203125,-0.4528618411660194,0.8313263207346201,-0.5354689588345587
1772525985346944800,0.52594482421875,-0.7869564331322908,0.8771800171539187,-0.6020061084508895
1772525985356928800,0.5359287109375,-1.050242627903819,0.9285714739561081,-0.5521282345494255
1772525985366912000,0.545912109375,-1.171401156154275,1.0069193267449736,-0.40233511143438516
1772525985376896000,0.55589599609375,-1.167633328053355,1.1076049758091568,-0.1986299269983545
1772525985386879000,0.56587890625,-0.9947902052730321,1.1835407990202307,0.03400459746513516
1772525985396861700,0.57586181640625,-0.7082862165212631,1.1869631746843456,0.23706874405127018
1772525985406845700,0.585845703125,-0.3663192837446928,1.0912681735143064,0.36374271125495433
1772525985416829000,0.595828857421875,-0.03159048552811146,0.9109849638611077,0.3824445621807128
1772525985426813000,0.60581298828125,0.25559096409380433,0.7064902730152011,0.3389903281185776
1772525985436796000,0.6157958984375,0.5183721319526433,0.5073609085947275,0.2690761032845825
1772525985446780000,0.62577978515625,0.7532073082655668,0.34009529368579383,0.1843848362857476
1772525985456763000,0.635762939453125,0.933685455968976,0.16679039861261843,0.13896934862062335
1772525985466745900,0.645745849609375,1.053814056649804,0.0007692308068275451,0.13246888068541884
1772525985476729900,0.655729736328125,1.1695055516660213,-0.10724778405874967,0.1073870463989675
1772525985486712800,0.665712890625,1.275968030565977,-0.13048691308796406,0.0840357256995514
1772525985496696800,0.67569677734375,1.3219897770285605,-0.15393763904124497,0.13793328357115386
1772525985506679800,0.6856796875,1.3290899644225835,-0.19097966797351837,0.24135807527564465
1772525985516662800,0.695662841796875,1.3069640573322772,-0.21557050387263296,0.33725429810620844
1772525985526646800,0.705646728515625,1.1640624838292597,-0.2108490283086896,0.435198685638234
1772525985536630000,0.715630126953125,0.9910182855188846,-0.21815175253748892,0.506612866706401
1772525985546614000,0.725614013671875,0.8000795340776443,-0.2448182256668806,0.5108966084402055
1772525985556596700,0.7355966796875,0.605589812156558,-0.2830322209879756,0.4557786784607917
1772525985566579700,0.745579833984375,0.43534138204455375,-0.31914719820320603,0.38282030015792695
1772525985576563700,0.755563720703125,0.27396365613043305,-0.33638854812234636,0.28301004568878557
1772525985586547000,0.765546875,0.09998363827466965,-0.3580003682106733,0.18170520528033374
1772525985596531000,0.775531005859375,-0.08260872510373592,-0.35310207477509975,0.07599957262966782
1772525985606514000,0.785513916015625,-0.2578670923322439,-0.3239326789140701,-0.013151523322239518
1772525985616497700,0.79549755859375,-0.4252075260430574,-0.26421529231518504,-0.08172701036576181
1772525985626481000,0.80548095703125,-0.5894920793145895,-0.20022680426836012,-0.12121526340637355
1772525985636463900,0.8154638671875,-0.7488169643521309,-0.1327703478500247,-0.1258244011696428
1772525985646447900,0.82544775390625,-0.9047995532244444,-0.04784983867257833,-0.15573086086725815
1772525985656430800,0.835430908203125,-1.0087561867833137,0.10300415513962506,-0.203517114518024
1772525985666415000,0.8454150390625,-1.0694611231148243,0.2269654658511281,-0.1954636632534675
1772525985676397800,0.855397705078125,-1.110344337645173,0.14470803840309382,0.016801716392859815
1772525985686380800,0.865380859375,-0.9657803838878869,-0.2134057270541787,0.3276347848350182
1772525985696364800,0.87536474609375,-0.6553045679181814,-0.43210722242891786,0.27034847957426683
1772525985706348000,0.88534814453125,-0.509478631401062,-0.4636807568222284,-0.12752234592763706
1772525985716332000,0.89533203125,-0.5667424873679876,-0.5580249279052019,-0.5530940839068964
1772525985726314800,0.905314697265625,-0.6510925031810999,-0.8177163130551576,-0.7992373841650784
1772525985736298800,0.915298828125,-0.6009615678340197,-1.0818719841375946,-0.9084246849190443
1772525985746282000,0.925281982421875,-0.4003945718258619,-1.1860180027887224,-1.0672902088165284
1772525985756265000,0.935264892578125,-0.1182721591591835,-1.1423115475311876,-1.1917977552339434
1772525985766249000,0.9452490234375,0.22179390843212604,-1.0798545068353413,-1.1849725123237818
1772525985776231700,0.955231689453125,0.49916708074510097,-1.0430068314313887,-1.0725110122047363
1772525985786215700,0.965215576171875,0.718543991163373,-0.9762135150969028,-0.9269777750238776
1772525985796199000,0.975198974609375,0.8421867374449968,-0.8600114402100444,-0.8578927675556391
1772525985806182000,0.985181884765625,0.906590528294444,-0.7300652098700404,-0.8218407725740223
1772525985816166000,0.995165771484375,0.8986112199783325,-0.6591027911573648,-0.7734731205724179
1772525985826148900,1.00514892578125,0.7423135738074779,-0.6280097337573767,-0.7286397801768034
1772525985836132900,1.0151328125,0.48017947168052194,-0.550553569111228,-0.6779284145932645
1772525985846115800,1.02511572265625,0.1320090080887079,-0.4336006758570671,-0.5781788773354143
1772525985856099800,1.035099853515625,-0.2847872479617595,-0.242448866187036,-0.4745004031307995
1772525985866082800,1.045082763671875,-0.6572305675446987,0.03998597342967987,-0.3442993212468922
1772525985876066000,1.055066162109375,-0.9283803352981805,0.3516220653504133,-0.24399302688911556
1772525985886050000,1.065050048828125,-1.108854391348362,0.6468783926174044,-0.1303062958240509
1772525985896032800,1.07503271484375,-1.280574647578597,0.8512269529908895,0.045589200264215465
1772525985906016800,1.085016845703125,-1.3320435535311699,1.008621454487741,0.2565980222444981
1772525985916000000,1.095,-1.2793056505560874,1.1295602025076745,0.43817032186016436
1772525985925983000,1.10498291015625,-1.1400579233855008,1.1842200134560465,0.5571279060002416
1772525985935967000,1.114967041015625,-0.9161913003325461,1.2018611763477325,0.5672033098127692
1772525985945949700,1.12494970703125,-0.6435597695887089,1.206746318040788,0.4410828483060002
1772525985955933700,1.13493359375,-0.3873755157768726,1.103167870144546,0.26857830983027814
1772525985965917000,1.1449169921875,-0.14864800820052623,0.9250015065148472,0.0729514736380428
1772525985975900000,1.15489990234375,0.07311608961522578,0.7913713269650936,-0.21926745869442818
1772525985985884000,1.1648837890625,0.25385727216899395,0.6583201163470744,-0.5470808514993637
1772525985995867000,1.174866943359375,0.37063071720302104,0.45522418638318773,-0.835416877983883
1772525986005851000,1.184850830078125,0.4051005575597286,0.21588468438833952,-1.0856780253570526
1772525986015833900,1.194833740234375,0.3861164556264877,-0.0016509820774197577,-1.301189711714536
1772525986025817900,1.20481787109375,0.379170582011342,-0.10898001467883586,-1.4983262948825955
1772525986035800800,1.21480078125,0.40247254714369773,-0.1385822489991784,-1.5722694829717279
1772525986045783800,1.22478369140625,0.39690906779766083,-0.07556465181112289,-1.5990569521322846
1772525986055767800,1.234767822265625,0.34833939041793344,0.06267419057786465,-1.6211830053530631
1772525986065750800,1.244750732421875,0.24848902313411234,0.13136661853194237,-1.5161683871738612
1772525986075734800,1.25473486328125,0.17732640567421912,0.21652911977171896,-1.4034097307391464
1772525986085718000,1.264718017578125,0.2191074458271265,0.36239860316962,-1.2766262022137642
1772525986095701000,1.274700927734375,0.3434913658648729,0.500151707868278,-1.1188313032224775
1772525986105684700,1.284684814453125,0.5219119965165854,0.5740554407298565,-0.9299901085823774
1772525986115667700,1.294667724609375,0.7042582761794328,0.6085065763860941,-0.7259785250782966
1772525986125651700,1.304651611328125,0.8539987557917833,0.643802053911984,-0.5514308634024113
1772525986135635000,1.314635009765625,0.9893635040491818,0.6913450185924768,-0.3845872732978314
1772525986145618000,1.324617919921875,1.086410504350066,0.7116641685217618,-0.1927795570023358
1772525986155602000,1.334601806640625,1.1938906358599661,0.6991723512172698,-0.0005356412466615438
1772525986165585000,1.3445849609375,1.276508713313937,0.657949821729958,0.16207696022465823
1772525986175569000,1.35456884765625,1.2990320952892302,0.5592056621223688,0.25484767144583165
1772525986185552000,1.3645517578125,1.2493915738075971,0.4376391375929117,0.2275110439699143
1772525986195534800,1.374534912109375,1.176689910212159,0.2912707647621631,0.11167283395938575
1772525986205518800,1.384518798828125,1.1212252126216888,0.10426993729174136,-0.00002038520090281963
1772525986215501800,1.394501708984375,1.1535849289566278,-0.12328560340702532,-0.11417531829960643
1772525986225485800,1.40448583984375,1.280024612480402,-0.3233148392766714,-0.19722974134422838
1772525986235468800,1.41446875,1.4545868141382932,-0.5289630840718745,-0.2638915402535349
1772525986245452800,1.424452880859375,1.6281062287449837,-0.7241498483464122,-0.31003472113870084
1772525986255436000,1.43443603515625,1.7781401383459567,-0.8273179618760943,-0.3629626667931676
1772525986265418800,1.444418701171875,1.870349050965905,-0.8859832090735434,-0.4203095248684287
1772525986275402800,1.45440283203125,1.9139689969837665,-0.8667574073389172,-0.4830549540515989
1772525986285385700,1.4643857421875,1.8775550368219613,-0.7999912712723016,-0.48418468873389064
1772525986295370000,1.474369873046875,1.6946324185758828,-0.6721186323359608,-0.46484271327368915
1772525986305353000,1.48435302734375,1.3859177670598029,-0.5373763998910784,-0.3534724424574524
1772525986315336000,1.4943359375,0.9956675726294517,-0.4893538350000977,-0.0631578824415803
1772525986325319700,1.504319580078125,0.6163496911019086,-0.4737950313404202,0.37325361305251714
1772525986335302400,1.514302490234375,0.291216988748312,-0.4111979976519942,0.7897019324481487
1772525986345286100,1.5242861328125,0.006613865181803703,-0.33675153621584175,1.1332736700728534
1772525986355269000,1.53426904296875,-0.2620937701165676,-0.46406244961619375,1.450852449915558
1772525986365252400,1.54425244140625,-0.47020051397979257,-0.701777565279603,1.6619700660325585
1772525986375236400,1.554236328125,-0.5120984585106373,-0.7755994650766252,1.6234889442078768
1772525986385219300,1.56421923828125,-0.4288777389883995,-0.7058654191151261,1.3057441601485014
1772525986395203300,1.574203369140625,-0.28438977307677266,-0.7431497323706746,0.8972215191856027
1772525986405186300,1.584186279296875,-0.14815116459429264,-0.9083426326587796,0.5021648012563585
1772525986415170300,1.59417041015625,-0.06788111157119274,-0.9940300345554948,0.05178162516355514
1772525986425153300,1.6041533203125,-0.16855390115380287,-0.902347776158154,-0.4098870611838996
1772525986435136300,1.61413623046875,-0.5422691403687,-0.7432561153545976,-0.709904684568569
1772525986445120300,1.624120361328125,-1.1046563551366329,-0.6334729675993322,-0.7893341220490634
1772525986455103200,1.634103271484375,-1.6920616913050412,-0.4726183887764811,-0.6600660832315683
1772525986465087200,1.644087158203125,-2.1500316692650316,-0.2546957688197493,-0.4613631275296211
1772525986475070200,1.6540703125,-2.3963754970639943,0.03542173425406217,-0.23959267303831874
1772525986485053200,1.66405322265625,-2.463575640633702,0.35161095943450926,0.02607785958647728
1772525986495037400,1.674037353515625,-2.407393150162697,0.5760849007308483,0.2958941867791116
1772525986505020200,1.684020263671875,-2.267504202479124,0.6998980351433157,0.5542798230927437
1772525986515004200,1.694004150390625,-2.1027502781301735,0.7431234288856386,0.6918226460415869
1772525986524987100,1.703987060546875,-1.9285387896060942,0.716736649480462,0.6891537921585142
1772525986534970400,1.713970458984375,-1.78701142706573,0.6514616287544369,0.547121841096878
1772525986544954400,1.723954345703125,-1.7358265987515449,0.5850573117375374,0.32995055096410214
1772525986554937300,1.733937255859375,-1.6888310388207435,0.5727168856024741,0.1259762307304889
1772525986564921000,1.743921142578125,-1.5792320154607296,0.6482900129809975,0.010794657997786998
1772525986574904300,1.753904296875,-1.3752718698829411,0.7824430473610758,-0.000810147339105606
1772525986584887300,1.76388720703125,-1.037426400950551,0.9170593153387308,0.1402867878947407
1772525986594871300,1.773871337890625,-0.5924643731236457,0.9810592015624046,0.4084918074332177
1772525986604854300,1.783854248046875,-0.10444178672730922,0.9851873874083161,0.6964662340637297
1772525986614838300,1.79383837890625,0.3145066789209843,0.9958724475517868,0.8999756401993334
1772525986624821200,1.8038212890625,0.6140840842574834,1.0200079408988356,0.9745620946280658
1772525986634805200,1.81380517578125,0.8202765189319848,1.0356439014479517,1.000843367832154
1772525986644788200,1.823788330078125,0.9629355158507823,0.9969821623593568,0.9830690070148557
1772525986654771200,1.833771240234375,1.0259159958988429,0.8971744651734829,0.9059186934474855
1772525986664755500,1.84375537109375,0.9986924734085798,0.8156929905340075,0.7253946607757359
1772525986674738200,1.85373828125,0.8267746487796306,0.7656406733810901,0.49627048252075906
1772525986684722200,1.86372216796875,0.5724263782232999,0.7503527956172823,0.26193054237887264
1772525986694705200,1.873705078125,0.2808417252063751,0.7595613534674048,0.12013225394263863
1772525986704688400,1.8836884765625,0.021240356427431106,0.785891141988337,0.07344860950522124
1772525986714672400,1.89367236328125,-0.1351595810741186,0.8889791760191321,0.07463058583140372
1772525986724655000,1.903655029296875,-0.18295067529678344,1.0139692452564835,0.11939809444919228
1772525986734639000,1.91363916015625,-0.1162070433229208,1.1165069519281388,0.22905936939045785
1772525986744622300,1.923622314453125,0.030238486397266385,1.1988400749608874,0.3490134902872145
1772525986754605300,1.933605224609375,0.23154314903020856,1.2600377632454036,0.43823213504999875
1772525986764589300,1.94358935546875,0.4435147516280412,1.2984478656604885,0.5098606895212083
1772525986774572000,1.953572021484375,0.6210048234313726,1.275272157256305,0.5425323213495313
1772525986784556000,1.96355615234375,0.7712561751753091,1.199668927000463,0.5136422538865357
1772525986794539300,1.973539306640625,0.8996282880663872,1.103344980277121,0.44989619629345834
1772525986804522200,1.983522216796875,0.9998252768307924,0.9968272640585899,0.37087745850570497
1772525986814506200,1.99350634765625,1.0872317576050758,0.8900716474309563,0.2888049591705203
1772525986824489500,2.003489501953125,1.1239169359236956,0.7863184274896979,0.2156787134874612
1772525986834473200,2.01347314453125,1.1819798333138227,0.6882268865719438,0.17572949187159537
1772525986844456200,2.023456298828125,1.2571692220717667,0.5922571601137518,0.1573537310950458
1772525986854440200,2.033440185546875,1.3821943626224993,0.5326145923167467,0.17627609290368854
1772525986864423200,2.043423095703125,1.4856050527364015,0.5021744458675385,0.23011180105283854
1772525986874406400,2.053406494140625,1.471114755091071,0.4691960131123662,0.2791681659709662
1772525986884390400,2.063390380859375,1.3283756786733865,0.44376405021399257,0.278846825062111
1772525986894373000,2.073373046875,1.1718705272316932,0.4180351501956582,0.23890819790549575
1772525986904357000,2.083357177734375,1.0601911904662846,0.3643818859413266,0.21275931890942154
1772525986914340400,2.09334033203125,0.9648504095613956,0.2645367793545127,0.21276750221587717
1772525986924323300,2.1033232421875,0.8554963008731603,0.1321528004735708,0.19828816435597835
1772525986934307300,2.113307373046875,0.7417547708809376,0.052640287819504736,0.10766352525278926
1772525986944290000,2.1232900390625,0.6139286014348269,-0.00848930366486311,-0.023412001378089187
1772525986954274300,2.1332744140625,0.4812093992501497,-0.05527472797632217,-0.1495727948952466
1772525986964257300,2.14325732421875,0.37803602502346034,-0.11284984184950589,-0.24170710790902375
1772525986974240300,2.153240234375,0.23479835143387318,-0.15157237121462822,-0.31196700437553226
1772525986984224300,2.163224365234375,0.033306057274341584,-0.19062369414269922,-0.33227694808505476
1772525986994207200,2.173207275390625,-0.1338788936138153,-0.18494009554833174,-0.3427096409026533
1772525987004191200,2.183191162109375,-0.2662140649169683,-0.14631459681689737,-0.37866325354371216
1772525987014174200,2.19317431640625,-0.4063187011778354,-0.11021686299741268,-0.4148157132251188
1772525987024157200,2.2031572265625,-0.5722141967773438,-0.11581424461305141,-0.4398014301933348
1772525987034141200,2.21314111328125,-0.7394283737599849,-0.11832242804169654,-0.4738790198294446
1772525987044124400,2.22312451171875,-0.9007920711487531,-0.13413082254827022,-0.491452414714545
1772525987054108200,2.233108154296875,-1.0724211419641971,-0.12559066547900438,-0.5133682592507451
1772525987064091100,2.243091064453125,-1.2611872255414724,-0.09391922366917133,-0.5520195500105619
1772525987074074400,2.253074462890625,-1.4383417817801236,-0.1625268959492445,-0.497195123085007
1772525987084058400,2.263058349609375,-1.4714192909955977,-0.510185318365693,-0.2899431328875944
1772525987094041300,2.273041259765625,-1.2831570652872324,-0.7618383584886789,-0.249340087005496
1772525987104025300,2.283025390625,-1.0500690249025821,-0.7147770398452877,-0.5090334449168294
1772525987114008000,2.293008056640625,-0.917437501001358,-0.5392050766229629,-0.8380044833242892
1772525987123992300,2.302992431640625,-0.8581511992961168,-0.48239247155487536,-0.9549872602600604
1772525987133975300,2.312975341796875,-0.754269969061017,-0.6298804960653186,-0.8431311056230216
1772525987143958300,2.322958251953125,-0.543031941434741,-0.7118079609066248,-0.7160356616042554
1772525987153942300,2.3329423828125,-0.30668752960264684,-0.6199737268179655,-0.6752058577615767
1772525987163925200,2.34292529296875,-0.0803922180980444,-0.480054383996129,-0.6397603042405098
1772525987173909200,2.3529091796875,0.13255202892422677,-0.38567660290449857,-0.5402927987944335
1772525987183892200,2.362892333984375,0.33206513196527954,-0.33608342769592997,-0.45372269577905533
1772525987193875200,2.372875244140625,0.46380409094095226,-0.2977275396861136,-0.4283932434070855
1772525987203859500,2.382859375,0.5375163928836584,-0.23976021162495015,-0.443393353738077
1772525987213842200,2.39284228515625,0.5909703351736069,-0.20665449922829865,-0.43469369525816287
1772525987223826200,2.402826171875,0.6024860009223222,-0.2380444937482476,-0.37191056441310794
1772525987233809200,2.41280908203125,0.5003448923528194,-0.32974048840999604,-0.25480770476162434
1772525987243792400,2.42279248046875,0.2919780362486839,-0.3775780521228909,-0.2064873990330845
1772525987253776400,2.4327763671875,0.06964344506859779,-0.3256444512680173,-0.21415720300860702
1772525987263759000,2.442759033203125,-0.16758710194826126,-0.266718215046823,-0.22370237240195273
1772525987273743000,2.4527431640625,-0.3598702537357807,-0.19373247381299732,-0.2371883518429473
1772525987283726300,2.462726318359375,-0.53191842674613,-0.07380290283560753,-0.2462568436352536
1772525987293709300,2.472709228515625,-0.6925608241230249,0.03254427912160754,-0.2552624993244186
1772525987303693300,2.482693359375,-0.7922925334632396,0.12434446481019258,-0.2314103164307773
1772525987313676300,2.49267626953125,-0.8304939615637064,0.1157432252034545,-0.19677880097264422
1772525987323660000,2.502659912109375,-0.7685118449032307,0.049084202773123975,-0.12065432332167401
1772525987333643300,2.512643310546875,-0.5646557442218065,-0.042754561360180375,-0.09429578363029285
1772525987343627000,2.522626953125,-0.2684866860240698,-0.1491493818514049,-0.11542911775298416
1772525987353611000,2.532611083984375,-0.01063596030473709,-0.26558701905980703,-0.1603681104801595
1772525987363594000,2.542593994140625,0.18560382015407084,-0.35040947469025846,-0.24691499701673164
1772525987373578000,2.552577880859375,0.29603461816310883,-0.4533072468459606,-0.36623803520202636
1772525987383561200,2.562561279296875,0.3370966963917017,-0.5830244907356799,-0.48376375990808007
1772525987393544200,2.572544189453125,0.3684434362918138,-0.6444666553005576,-0.6899651085413993
1772525987403528000,2.58252783203125,0.387895155736804,-0.653612815438956,-0.945955447216332
1772525987413511000,2.592510986328125,0.31435937940478326,-0.6687934334360063,-1.2161929954957216
1772525987423495200,2.6024951171875,0.13448562733530997,-0.7323543437205254,-1.3975073748275637
1772525987433478100,2.61247802734375,-0.09997253235876559,-0.6956614204868674,-1.4775721145369112
1772525987443461000,2.622461181640625,-0.33480244797468184,-0.4789040449172258,-1.4931674508146942
1772525987453445000,2.632445068359375,-0.5186889428168535,-0.20896350682303308,-1.3677534570768475
1772525987463428000,2.642427978515625,-0.6396756216317415,0.054811932770162816,-1.1253838666711002
1772525987473412000,2.652412109375,-0.6566466301769017,0.33441461770087477,-0.8458804773963987
1772525987483395000,2.66239501953125,-0.6018015257894992,0.586678775459528,-0.5846806969774887
1772525987493379000,2.672379150390625,-0.5209598103582859,0.7640870141983032,-0.3390083752319217
1772525987503362300,2.6823623046875,-0.41551556859016414,0.8879379964031279,-0.12315434171017259
1772525987513345000,2.692344970703125,-0.277404736495018,0.9455852987296879,0.02279182365313172
1772525987523329000,2.7023291015625,-0.08889350446164608,0.9341222399510443,0.09020495238639414
1772525987533312000,2.71231201171875,0.11510054338574409,0.8715389425270259,0.09367040000725536
1772525987543296000,2.7222958984375,0.3254986130565405,0.7806865590825677,0.06178732474073767
1772525987553279200,2.732279296875,0.5505787035524845,0.668952423390001,0.0005186901118606329
1772525987563262000,2.742261962890625,0.7850000383675098,0.5393124825201928,-0.09978048038538545
1772525987573246000,2.752245849609375,1.0618424648046494,0.372852923297137,-0.15540968435518443
1772525987583229200,2.762229248046875,1.3273100952684878,0.22051175966709852,-0.19137601034734397
1772525987593213200,2.772213134765625,1.5450725562274454,0.11726327437758445,-0.24511220364477485
1772525987603196200,2.782196044921875,1.746188418290019,0.06298267200514673,-0.2864844803337008
1772525987613179000,2.792178955078125,1.9502046779692173,-0.004846270987391471,-0.3106726902486756
1772525987623163000,2.802162841796875,2.100749459701776,-0.11116101197972893,-0.3608864085083827
1772525987633146000,2.81214599609375,2.1780717688351867,-0.24316870489418504,-0.424994942738302
1772525987643130000,2.822130126953125,2.2090923455208538,-0.3774645087458193,-0.48956652790270744
1772525987653113000,2.832113037109375,2.1695161219358443,-0.49687867754697795,-0.5881008441518992
1772525987663096000,2.842095947265625,2.0726327877640722,-0.5767870576508343,-0.6992503118243069
1772525987673080000,2.852080078125,1.8752771550178526,-0.6756035518422723,-0.8105756475202739
1772525987683063000,2.86206298828125,1.6142963145792484,-0.7644367044188082,-0.9198100753515959
1772525987693047000,2.872047119140625,1.357159290087223,-0.8393940379865467,-0.9699787123605609
1772525987703030000,2.882030029296875,1.163510110643506,-0.8611005506210029,-0.958924526643753
1772525987713013200,2.89201318359375,0.9645265844345092,-0.8395002748399972,-0.9061353318728506
1772525987722997200,2.901997314453125,0.743400784522295,-0.7914503835506737,-0.7885601420018822
1772525987732980000,2.91197998046875,0.5164473013699055,-0.7451812381982803,-0.57999480418358
1772525987742964000,2.9219638671875,0.32282851706445215,-0.7163957270883023,-0.2572890001833439
1772525987752947200,2.931947265625,0.1818283932685852,-0.6887133549146354,0.14464224315788596
1772525987762930200,2.94193017578125,0.08924714020490646,-0.8017632493808865,0.674096216019243
1772525987772914200,2.9519140625,0.035035657545924186,-0.9470455805405974,1.1304494794975966
1772525987782897000,2.96189697265625,-0.16676234156191347,-0.9482596325054764,1.3081389463305473
1772525987792881000,2.971880859375,-0.5651636937439442,-0.7435869547441601,1.0566892467599363
1772525987802864000,2.981864013671875,-1.1229308474957942,-0.5324820519782603,0.6287197817228735
1772525987812847000,2.99184716796875,-1.7405933747619389,-0.5114414559066295,0.2800136038191616
1772525987822831000,3.0018310546875,-2.3992156889259815,-0.5098743527203798,0.05990786766968667
1772525987832814000,3.01181396484375,-3.1328888601601124,-0.5065821793071925,-0.0010410334855318068
1772525987842798000,3.021798095703125,-3.8699627797484397,-0.4429014420352876,0.05041983529105782
1772525987852781000,3.031781005859375,-4.474329772111774,-0.29494258514270183,0.19635522353202103
1772525987862764000,3.041763916015625,-4.83933680421412,-0.11189487921223044,0.398167543426156
1772525987872748000,3.051748046875,-4.9241369018822905,0.08849179179295898,0.6102332540482283
1772525987882731300,3.061731201171875,-4.658182949206233,0.3916260858934372,0.7441979993145913
1772525987892715000,3.071715087890625,-4.209122253888845,0.6416386653330177,0.900811433436349
1772525987902698000,3.081697998046875,-3.6213930925935505,0.7949390293840318,1.0288079910133034
1772525987912682000,3.091681884765625,-3.030110622730851,0.8757216350391507,1.0889443336766214
1772525987922665200,3.101665283203125,-2.5422441036790606,0.8872488450951874,1.1142326503206044
1772525987932648200,3.111648193359375,-2.15383924485445,0.8820959923766553,1.0872940091863275
1772525987942632200,3.121632080078125,-1.8005127136737107,0.9380388288728893,1.0130730270691215
1772525987952615000,3.131614990234375,-1.4369161328911781,0.9898647315695881,0.9656196403682231
1772525987962599000,3.141598876953125,-1.0421142665058374,1.0457315802201628,0.9323015273299068
1772525987972582100,3.15158203125,-0.6389163276970387,1.1019110019512475,0.9002053573019803
1772525987982565000,3.161565185546875,-0.22112930704355238,1.1619460761971772,0.9194890997689217
1772525987992549000,3.171549072265625,0.18485913926661013,1.2032533613584935,0.9864154678985476
1772525988002532000,3.181531982421875,0.5912409688085317,1.215426175841689,1.124063066396117
1772525988012516000,3.19151611328125,1.025542486411333,1.2199058054737746,1.249426206729561
1772525988022499000,3.2014990234375,1.4543489137291907,1.2398163746021686,1.3595670818813144
1772525988032482000,3.21148193359375,1.8550439298063515,1.2450998679630458,1.4827850268796086
1772525988042466000,3.221466064453125,2.2020371663123366,1.1855389871001243,1.6309019969433545
1772525988052449000,3.231448974609375,2.425788638553023,1.0735323180764913,1.7441113197550178
1772525988062433000,3.24143310546875,2.4851187793999907,0.9201397456973791,1.7852165064729748
1772525988072416000,3.251416015625,2.4061434423625467,0.7658394108235835,1.7350694967739284
1772525988082399200,3.261399169921875,2.1804344063133,0.6551853254526853,1.6287816437885165
1772525988092383200,3.27138330078125,1.8588725481837987,0.6387476931318641,1.4632663796782492
1772525988102366000,3.281365966796875,1.475643046170473,0.6454872305199504,1.3085102638609707
1772525988112350000,3.291349853515625,1.085133324021101,0.6607374066218733,1.1308104948297142
1772525988122333000,3.3013330078125,0.6776151839256286,0.7201599019274115,1.013713663060218
1772525988132316200,3.311316162109375,0.2409223872721195,0.8024930249601602,0.9402632999893278
1772525988142300200,3.321300048828125,-0.2671913855165243,0.9139899908959865,0.8653761821135878
1772525988152283100,3.331283203125,-0.7662094131797552,1.064963227173686,0.7558989585023372
1772525988162267000,3.341266845703125,-1.20777770691514,1.198491992175579,0.6498617923423647
1772525988172250000,3.35125,-1.5096388392746447,1.3109317919194698,0.539974526625499
1772525988182233000,3.361233154296875,-1.6139894405871629,1.3833964318886398,0.41804757128581405
1772525988192217000,3.371217041015625,-1.513051278066635,1.3981702226504682,0.29948168987706303
1772525988202200000,3.381199951171875,-1.240014673653245,1.3821379562601446,0.18505261601209638
1772525988212184000,3.39118408203125,-0.8709867154717444,1.3275444885462522,0.04845321139320731
1772525988222167000,3.4011669921875,-0.380285849776864,1.2421388262003659,-0.13028466851413248
1772525988232150000,3.41114990234375,0.19228607439696788,1.1401567075848578,-0.3021165684252977
1772525988242134000,3.421134033203125,0.7871808895379304,0.9948512878105044,-0.4588734296057373
1772525988252117200,3.4311171875,1.3651929589390754,0.8408873452842235,-0.5503905605692416
1772525988262101200,3.441101318359375,1.879862729242444,0.7283592827349901,-0.6249130829162896
1772525988272084000,3.451083984375,2.2842589379251,0.6492918834999203,-0.7019035297468305
1772525988282067000,3.46106689453125,2.5465134515613315,0.5519324562489986,-0.7779379179615526
1772525988292051200,3.47105126953125,2.6968255935817957,0.4619830129936337,-0.8726374052882194
1772525988302034200,3.4810341796875,2.7668431326597926,0.3780032917976379,-0.9125037709262221
1772525988312018200,3.49101806640625,2.7474738308012485,0.2941024810567498,-0.9568925093594938
1772525988322001000,3.5010009765625,2.685964007827639,0.1927566145181656,-1.0377268452018498
1772525988331984100,3.510984130859375,2.6089818904340265,0.11230682101398706,-1.1321944234687835
1772525988341968100,3.520968017578125,2.5153853228479623,0.0404702498152852,-1.2090449503719807
1772525988351950800,3.530950927734375,2.3649013313919305,-0.08894844951927662,-1.2460339339427648
1772525988361934800,3.540934814453125,2.071418735799193,-0.2905675849288702,-1.225730419974029
1772525988371918000,3.55091796875,1.6404022312164306,-0.5014233352392912,-1.231429800659418
1772525988381901000,3.560901123046875,1.1606348474681376,-0.6077005207002163,-1.2342749609574675
1772525988391885000,3.570885009765625,0.6677958007007837,-0.65844958794564,-1.2299711262837052
1772525988401867800,3.58086767578125,0.2429401568353176,-0.6853194746926426,-1.2198915577527134
1772525988411851800,3.590851806640625,-0.13537994582653046,-0.7101970185786485,-1.1683723098523915
1772525988421835000,3.6008349609375,-0.460626629948616,-0.7602741779118776,-1.0715069497287273
1772525988431818000,3.61081787109375,-0.7467518485158682,-0.8277265426769852,-0.9269167655516415
1772525988441802000,3.620802001953125,-0.9906272403746843,-0.9622676995918155,-0.7232149055838585
1772525988451785000,3.630784912109375,-1.1463795276224613,-1.2258961319297552,-0.373162062311545
1772525988461769000,3.64076904296875,-1.1787363213479518,-1.5713313253387808,-0.012083528764545918
1772525988471752000,3.650751953125,-1.0941741240888834,-1.83695648445189,0.16613032726868987
1772525988481735000,3.66073486328125,-0.8946943387955426,-1.8875646819218992,-0.04400141961611807
1772525988491719000,3.670718994140625,-0.7022972052395343,-1.737671057574451,-0.49010253447555
1772525988501702100,3.6807021484375,-0.7107102287977933,-1.537365342850983,-0.8455398472651838
1772525988511686000,3.690685791015625,-1.0457049844741821,-1.3583145976021884,-0.9194170574460178
1772525988521668900,3.7006689453125,-1.5427730471134184,-1.082052309140563,-0.7842069882936775
1772525988531652000,3.710652099609375,-2.010934748741984,-0.7267036244824528,-0.5791596320010721
1772525988541636000,3.720635986328125,-2.242397818273306,-0.3481453291505575,-0.24438129555433988
1772525988551619000,3.730619140625,-2.241226436406374,0.05735474912077188,0.15195552531331777
1772525988561603000,3.74060302734375,-2.05519942240417,0.45275750400871034,0.5232262209203093
1772525988571585800,3.750585693359375,-1.718821103414893,0.7010904597982763,0.882191196379438
1772525988581569000,3.760569091796875,-1.308698918300867,0.8112173064246774,1.157805907652527
1772525988591553000,3.770552978515625,-0.8649749078363179,0.7772802577704191,1.2487187891125677
1772525988601536000,3.780535888671875,-0.40740240476131434,0.5642153069779277,1.2039270228363572
1772525988611520000,3.79052001953125,0.026789807248115537,0.2395478840485215,0.978987875181064
1772525988621503000,3.8005029296875,0.3392635190367698,-0.10985358264297246,0.6282994374189526
1772525988631486000,3.81048583984375,0.5206348161876201,-0.4105857109725475,0.2776457056440413
1772525988641470000,3.820469970703125,0.6875877118855714,-0.545635401931405,-0.08468085520267486
1772525988651453000,3.830452880859375,0.826110047391057,-0.4306774818867445,-0.3784977242510766
1772525988661437000,3.84043701171875,0.8864058183997869,-0.14674772753715515,-0.41329876932352777
1772525988671420000,3.850419921875,0.8133008347004651,0.21523265022039412,-0.1439148421987891
1772525988681403000,3.86040283203125,0.6908920141279697,0.541560407577455,0.287941547274217
1772525988691387000,3.870386962890625,0.5408563509613276,0.7236556350886821,0.6658945701893418
1772525988701370000,3.8803701171875,0.4102414275795221,0.8749924439817667,0.8963157294522971
1772525988711354000,3.89035400390625,0.26950200054645534,1.0834978317737578,1.026192620883137
1772525988721336800,3.9003369140625,0.11579787800014019,1.161626488853991,1.2364888376146554
1772525988731319800,3.91031982421875,-0.10150281066596507,1.194903904555738,1.4312602990865706
1772525988741303800,3.9203037109375,-0.3171399500340223,1.2219748668327928,1.5057210813090205
1772525988751287000,3.930287109375,-0.4915694652229547,1.2653995825394988,1.451073253059387
1772525988761271000,3.94027099609375,-0.5658259570449591,1.302300157174468,1.2599994770616292
1772525988771254000,3.95025390625,-0.5852215623885393,1.2292357977464794,1.0169445347402244
1772525988781237000,3.960237060546875,-0.6347767436742783,1.0680004029124974,0.7700196191176771
1772525988791221000,3.970220947265625,-0.6864665989011526,0.9268436272501945,0.5224472724370658
1772525988801204000,3.980203857421875,-0.7119336331129074,0.8122372971221804,0.35473332923874257
1772525988811188000,3.99018798828125,-0.6950444576323032,0.7017661671027541,0.3065598846349865
1772525988821171000,4.0001708984375,-0.6177437758088111,0.6081961952626704,0.32008155644387004
1772525988831154000,4.01015380859375,-0.4489268398046493,0.6063374156534671,0.39325354096479714
1772525988841138000,4.020137939453125,-0.16348726541399955,0.6089759474635124,0.514081083695218
1772525988851121000,4.030120849609375,0.22858196113705634,0.6308259602218866,0.6598649346362799
1772525988861105000,4.04010498046875,0.6374211207032203,0.5897945693925023,0.772135734488815
1772525988871088000,4.050088134765625,0.9960814141273497,0.5109364289939403,0.8439541124437003
1772525988881070800,4.06007080078125,1.2455658780395984,0.39214229178726673,0.8764633202519267
1772525988891054800,4.070054931640625,1.4365554828852414,0.26919395751059055,0.7985154265660792
1772525988901037800,4.080037841796875,1.55330730060935,0.16033376981914044,0.6660694883648306
1772525988911021800,4.090021728515625,1.6109037495315075,0.08498100719302892,0.5558037081917747
1772525988921005000,4.100005126953125,1.6145663636922836,0.03162351101487875,0.4886644644964486
1772525988930988000,4.109988037109375,1.577185019803047,0.003136252199113369,0.46450621132832015
1772525988940971800,4.1199716796875,1.4866823265790938,-0.013785948768258094,0.4807083178602159
1772525988950955000,4.129955078125,1.3435621418893335,-0.006040156947076321,0.5203087260384113
1772525988960938000,4.13993798828125,1.1558417679727078,-0.00673076955974102,0.5375833571726456
1772525988970922000,4.149921875,0.8957721971601247,-0.04690612808167934,0.5322350914798677
1772525988980905000,4.159905029296875,0.6624123540967702,-0.0960772784858942,0.4770145048435777
1772525988990889000,4.169888916015625,0.5432365240961313,-0.12024375149309635,0.3530559340784326
1772525989000872000,4.179871826171875,0.5657786107718944,-0.17185089687258004,0.24234273893143982
1772525989010855000,4.18985498046875,0.6947896060883998,-0.3025195962682366,0.15186626699413172
1772525989020839000,4.1998388671875,0.8405763796389103,-0.4375479521781206,0.0630666696273256
1772525989030822100,4.209822265625,0.9048919076830149,-0.5556640439927578,-0.04360200850237161
1772525989040806100,4.21980615234375,0.8049018396675586,-0.6359545552819967,-0.1364787373812869
1772525989050788900,4.229788818359375,0.578101501250267,-0.6684707773528993,-0.22359414452081544
1772525989060771800,4.239771728515625,0.3307908742457628,-0.6562726822979748,-0.2631220171857625
1772525989070755800,4.249755859375,0.0858645120292902,-0.6376791871175169,-0.23082047904515637
1772525989080739000,4.259739013671875,-0.13353636378645897,-0.5955826512746513,-0.16043887416142968
1772525989090723000,4.26972314453125,-0.3337918096274137,-0.5054416309699415,-0.048543227764219044
1772525989100705800,4.279705810546875,-0.4937760353565216,-0.44395285078436136,0.14166768432650714
1772525989110689000,4.28968896484375,-0.6228180103331804,-0.45845191625803705,0.4015302978575229
1772525989120673000,4.299673095703125,-0.7742968580454588,-0.5080186418510974,0.670305080107972
1772525989130656000,4.309656005859375,-0.9029606473594903,-0.6685651776380837,0.8294772588018328
1772525989140640000,4.319639892578125,-0.8935048367500305,-0.7866311467006802,0.6474477900031954
1772525989150622700,4.329622802734375,-0.9626227966398,-0.6134213825650513,0.11430975833423435
1772525989160606000,4.33960595703125,-1.3019617190003394,-0.5257867921233177,-0.2805667807225138
1772525989170590000,4.34958984375,-1.816642595219612,-0.5829306749723852,-0.4612766913551837
1772525989180573000,4.359572998046875,-2.346168573871255,-0.5692367884017526,-0.5163040935069322
1772525989190557000,4.369556884765625,-2.7843519013434648,-0.4156662291072309,-0.5499535939240828
1772525989200540200,4.3795400390625,-3.083110391512513,-0.11279036674723028,-0.5637682938627898
1772525989210523000,4.38952294921875,-3.202693048748374,0.19318989136889575,-0.48513318509776143
1772525989220507000,4.3995068359375,-3.130349112549424,0.47331660017371174,-0.28952355576865374
1772525989230489900,4.40948974609375,-2.877342319729924,0.6927787046574055,-0.05603541015051305
1772525989240474000,4.41947412109375,-2.4865385830700397,0.851979524923861,0.18526961976364253
1772525989250457000,4.42945703125,-2.0376134968310593,0.9502094513989985,0.3813125624760985
1772525989260439800,4.439439697265625,-1.5575643735319376,0.9789860485501587,0.49959045725632456
1772525989270423800,4.449423828125,-1.1022925486147404,0.9394142088793218,0.5671890986243262
1772525989280407000,4.459406982421875,-0.7462579275190829,0.7820408963009715,0.6273366568014025
1772525989290390000,4.46939013671875,-0.5034954653382301,0.634110534850508,0.5743765624430031
1772525989300374000,4.4793740234375,-0.26044951004087924,0.6001958441585302,0.46373650559745727
1772525989310356700,4.489356689453125,0.004091068705916404,0.5926930673129857,0.41562023454103614
1772525989320341000,4.499341064453125,0.26829905449748037,0.550132859481126,0.4565617551298812
1772525989330324000,4.509323974609375,0.5563859285265207,0.5512085258886218,0.514019416635856
1772525989340307000,4.519306884765625,0.8141472223967313,0.6465145277410745,0.5738062517417595
1772525989350291000,4.529291015625,1.0879840372771024,0.8364179447852075,0.6395279567893594
1772525989360274000,4.53927392578125,1.3696663049608468,1.0327489106588066,0.8088187208503484
1772525989370258000,4.5492578125,1.6059867513954638,1.0955118024334312,1.1003674988362937
1772525989380241000,4.559240966796875,1.7761001569509505,1.0620017470195888,1.3358768480837344
1772525989390224000,4.569223876953125,1.9173124621927737,1.0692390047967433,1.3408733411967753
1772525989400208000,4.579207763671875,2.0797341442018746,1.1207514576300979,1.221694588586688
1772525989410191000,4.589191162109375,2.190086031755805,1.0135545269757509,1.1470332422908396
1772525989420174800,4.5991748046875,2.195341468065977,0.8101467545837163,1.1112200245011596
1772525989430157800,4.60915771484375,2.155593979567289,0.5688470584318042,1.0770414221759885
1772525989440141000,4.61914111328125,2.076587078347802,0.3876718683749437,0.9914874374005943
1772525989450125000,4.629125,1.9901064802467823,0.29171587818115946,0.9451533370532095
1772525989460108000,4.63910791015625,1.871147507867217,0.2902422984972596,0.8256793278235942
1772525989470092000,4.649092041015625,1.6985341021895408,0.3571943125247955,0.6611154461540282
1772525989480075000,4.659074951171875,1.4657429989248514,0.4914990303352475,0.53430908474233
1772525989490058000,4.66905810546875,1.0753840834230184,0.6529580047920346,0.5099645152218639
1772525989500042000,4.6790419921875,0.5843646532982587,0.8296025656819344,0.5613206449823454
1772525989510025000,4.68902490234375,0.07763619738817215,1.0448892841771245,0.5877715025996789
1772525989520009000,4.699009033203125,-0.4100894518882036,1.2176967511221766,0.6125043773179873
1772525989529992000,4.708991943359375,-0.7861983082413673,1.3577014341399072,0.6485990789301693
1772525989539975000,4.718974853515625,-0.9571236147016287,1.4878715363636612,0.7329753251630813
1772525989549959000,4.728958984375,-0.8919143526881933,1.5818965584948659,0.8256458639454096
1772525989559942000,4.73894189453125,-0.5365694674223661,1.6885750182330608,0.7967414756961166
1772525989569925000,4.748925048828125,0.06710077484846115,1.759799302752316,0.6864138458006084
1772525989579908900,4.758908935546875,0.7035229476422071,1.7241504817441105,0.5470618180053308
1772525989589891800,4.768891845703125,1.302212478891015,1.7323425560280679,0.34176556498557326
1772525989599875800,4.778875732421875,1.8969395362496375,1.7790604680612683,0.18351791725810615
1772525989609859000,4.788859130859375,2.3979870239138603,1.7423428487777708,0.10136066224891692
1772525989619842000,4.798842041015625,2.878220856130123,1.7111939695373177,0.036590412707254286
1772525989629826000,4.808825927734375,3.253182296013832,1.6721581364393234,0.031023718490824102
1772525989639808800,4.818808837890625,3.3800328984260557,1.5718530111253262,-0.008992942338064313
1772525989649793000,4.82879296875,3.318704861760139,1.436216752450168,-0.09798727682568133
1772525989659776000,4.83877587890625,3.173152481487393,1.3022078027158974,-0.2055509949658066
1772525989669759000,4.848759033203125,3.0652929952710863,1.2153282684251665,-0.28772721040379257
1772525989679743000,4.858742919921875,2.962824554443359,1.1092127032667398,-0.26976269730925556
1772525989689726000,4.868725830078125,2.7315678211390972,0.9619061728030442,-0.19379823252558706
1772525989699710000,4.8787099609375,2.417912790611386,0.8222577558770775,-0.16316804339699445
1772525989709693000,4.88869287109375,2.0947183628439903,0.6942313876837491,-0.16097060641795397
1772525989719676000,4.898676025390625,1.747167492455244,0.5182862072348594,-0.1558860331626609
1772525989729660200,4.90866015625,1.2866986834168432,0.24461335074454543,-0.14596857812451197
1772525989739643000,4.918642822265625,0.6979273195922374,-0.1337403619259596,-0.13953792402250692
1772525989749625900,4.9286259765625,0.0763525873184204,-0.4017844187490642,-0.26897129120323804
1772525989759609900,4.93860986328125,-0.5872235498607158,-0.666822717884928,-0.374868939294666
1772525989769593000,4.948593017578125,-1.3120938214361666,-0.9815579448647797,-0.3817953775569796
1772525989779577000,4.9585771484375,-1.960917795163393,-1.2398207585163414,-0.34714440847970546
1772525989789559800,4.968559814453125,-2.505600426414609,-1.4109851344294846,-0.330737573155947
1772525989799542800,4.978542724609375,-2.9227643467336892,-1.5185408153936266,-0.32493067697547373
1772525989809527000,4.988527099609375,-3.2119325862586496,-1.7150863008007406,-0.16589489281130954
1772525989819510000,4.998510009765625,-3.2803602257966995,-1.9964577489696442,0.03922795813661068
1772525989829494000,5.008493896484375,-3.1295635151296852,-1.9937331463113426,-0.048206397025287145
1772525989839477000,5.01847705078125,-2.9789275479823347,-1.776143996092677,-0.201620322719682
1772525989849460000,5.0284599609375,-2.9651591348707673,-1.587035236557573,-0.2781639938971028
1772525989859444000,5.03844384765625,-3.002169307360053,-1.433945300386846,-0.2754330345632508
1772525989869427000,5.048427001953125,-2.9765748473763463,-1.2323425315901637,-0.3106439390782267
1772525989879411000,5.058410888671875,-2.9363404521435497,-0.9287975377969443,-0.4162576191291213
1772525989889394000,5.068393798828125,-2.9431717594683167,-0.589164747056365,-0.5571094570280983
1772525989899377000,5.078376953125,-2.905118215405941,-0.27739392284005876,-0.6012782691003754
1772525989909361000,5.08836083984375,-2.7031740858256814,0.05094707403555512,-0.4826993090143427
1772525989919343900,5.09834375,-2.3065935193300247,0.36075244339779017,-0.26299203413054345
1772525989929327000,5.1083271484375,-1.7665052301317452,0.566102143637836,-0.0800695620149374
1772525989939311000,5.11831103515625,-1.151365499341488,0.6263869548611343,0.03862224732842296
1772525989949293800,5.1282939453125,-0.6318026962995529,0.6027351533778011,0.08393956271554343
1772525989959277800,5.13827783203125,-0.22073417024612427,0.5455496233440935,0.05098735124701634
1772525989969261000,5.148260986328125,0.07611293334364891,0.4763245498180389,-0.048798526832694186
1772525989979244000,5.158244140625,0.31678222263753414,0.4507175226137042,-0.2325564359922893
1772525989989228000,5.16822802734375,0.5617366419047117,0.4985276137977838,-0.43963115166034544
1772525989999211000,5.1782109375,0.7569464947938919,0.5842360584825277,-0.6145322664164007
1772525990009194800,5.18819482421875,0.903410729214549,0.6943843862883746,-0.7134951833412051
1772525990019178000,5.198177978515625,1.0375947432547807,0.8331964985206722,-0.7253264909103513
1772525990029161000,5.208160888671875,1.1325947478979825,0.9200523596748709,-0.6828581991456448
1772525990039145000,5.21814501953125,1.1245528957396744,0.9656253394566475,-0.6827077578242868
1772525990049128000,5.2281279296875,0.9977291813343763,0.973104150904715,-0.6486698791440576
1772525990059112200,5.2381123046875,0.8317121051818132,0.978591057883203,-0.5932169815892353
1772525990069095000,5.248094970703125,0.6014852994471788,0.8504543611831963,-0.526808609451726
1772525990079078000,5.258077880859375,0.33054069887697696,0.6554293633416295,-0.4991130855355411
1772525990089062000,5.268061767578125,0.10637363157272338,0.49812911599949,-0.5387897738203407
1772525990099045000,5.278045166015625,-0.1503928060412407,0.364698112283647,-0.6644382339011877
1772525990109027800,5.28802783203125,-0.5192506683528423,0.2170963982656598,-0.8098440453100949
1772525990119011800,5.29801171875,-0.9207979173451661,0.08218158573284745,-0.8934867896366864
1772525990128994800,5.307994873046875,-1.2728215492337942,-0.024446605122834444,-0.9059270959496497
1772525990138979000,5.31797900390625,-1.569329630127549,-0.14854688591361045,-0.837889332512021
1772525990148962000,5.327962158203125,-1.7608914819031953,-0.28284553930945694,-0.7510855668712407
1772525990158944800,5.33794482421875,-1.750895573067665,-0.3536725681394338,-0.6350558528766036
1772525990168928800,5.3479287109375,-1.5223329011529683,-0.3975585446823388,-0.4629002739690244
1772525990178912000,5.357912109375,-1.1160095238000154,-0.4615182450260967,-0.23854608659483492
1772525990188896000,5.36789599609375,-0.6570183860987424,-0.5415284050039947,-0.05070275301882066
1772525990198879000,5.37787890625,-0.31316870831549165,-0.5921618099804967,0.05507002658392302
1772525990208862000,5.387862060546875,-0.08545651575028895,-0.5825947940815239,0.09482695876439101
1772525990218846000,5.397845947265625,0.07767126870155334,-0.5697669497556984,0.1630508467581123
1772525990228829000,5.407828857421875,0.15726093824505805,-0.5965685205068438,0.25579492570068685
1772525990238812000,5.41781201171875,0.14425883333086967,-0.6446835129216313,0.3431179294425994
1772525990248796000,5.4277958984375,0.05924480065107345,-0.6417725208457559,0.35799583816602826
1772525990258779100,5.437779052734375,-0.015036825612187384,-0.6057323624324054,0.34672190875131637
1772525990268763100,5.44776318359375,-0.024371640190482137,-0.5931148729216307,0.3625146307647228
1772525990278745900,5.457745849609375,0.00682137045264244,-0.6000814239986241,0.37467721611484883
1772525990288728800,5.467728759765625,0.061712067547440526,-0.5904009377878159,0.39149734494723376
1772525990298713000,5.477713134765625,0.11518588358163832,-0.5748009253349154,0.3987099432071671
1772525990308696000,5.487696044921875,0.12023673723042011,-0.5582784642748534,0.3479429384462535
1772525990318680000,5.49768017578125,0.1087479594886303,-0.5825408719372004,0.2492063776232302
1772525990328662800,5.507662841796875,0.10242752429544925,-0.6359850965507328,0.1296331823354587
1772525990338646000,5.51764599609375,0.17645955971181393,-0.667629211962223,-0.0342100934419781
1772525990348629500,5.52762939453125,0.36092940739989277,-0.7158537291660905,-0.16016794826555997
1772525990358612500,5.537612548828125,0.5798585740506649,-0.7737028376750648,-0.2099014087276533
1772525990368596500,5.547596435546875,0.7161544656783342,-0.8279751106105744,-0.23472850106805562
1772525990378579700,5.557579833984375,0.7427046189516783,-0.8019047036781907,-0.25489370254464444
1772525990388562700,5.567562744140625,0.6979600528180598,-0.7260489599660038,-0.26937015432771294
1772525990398546700,5.577546630859375,0.5234200629919767,-0.6806092511750758,-0.2445617666877806
1772525990408529400,5.587529296875,0.2073293297499418,-0.631345600181818,-0.28971641145963223
1772525990418512600,5.5975126953125,-0.18544190759062765,-0.4985900115095079,-0.3858646728225052
1772525990428496600,5.60749658203125,-0.4966799401044845,-0.3437248823598027,-0.3744075323279947
1772525990438479600,5.617479736328125,-0.7160796468764543,-0.24804332519322633,-0.259196222044155
1772525990448463600,5.627463623046875,-0.795689774686098,-0.20547902570813892,-0.0535061839338392
1772525990458446600,5.637446533203125,-0.8176613679975271,-0.10905074182748795,0.14983349165804682
1772525990468429600,5.6474296875,-0.8611170633643865,0.04238105187267065,0.3395142789274454
1772525990478413600,5.65741357421875,-0.9943190806299448,0.038277415946125985,0.6291870339084417
1772525990488396500,5.667396484375,-1.0940315007477999,-0.08256985439807175,0.8570432380542159
1772525990498379500,5.677379638671875,-1.0773305413156746,0.028309418030828235,0.8102899624466896
1772525990508363500,5.687363525390625,-1.0577759460180998,0.16415069775879382,0.5961239916097373
1772525990518346500,5.697346435546875,-1.0795020401358604,0.1329674778573215,0.3427464657817036
1772525990528330500,5.70733056640625,-1.0563690018296241,0.043118280106037854,0.07681494413316249
1772525990538313700,5.717313720703125,-0.9363415234357118,-0.046815965580195185,-0.19171390053220091
1772525990548296700,5.727296630859375,-0.773432934692502,-0.08673106573075055,-0.4343723178166896
1772525990558280400,5.737280517578125,-0.6491647499889135,-0.07569675375819206,-0.6074899832220748
1772525990568263400,5.747263427734375,-0.6136562142342329,-0.025325726044923065,-0.6713891490176319
1772525990578247400,5.757247314453125,-0.6465040063470602,0.012467851907014845,-0.6448406031794846
1772525990588230700,5.767230712890625,-0.6826344733923673,0.0900534881517291,-0.5901595302473753
1772525990598213600,5.777213623046875,-0.6819470756500959,0.19597674560844897,-0.5513302160395309
1772525990608197600,5.78719775390625,-0.5702601401001215,0.3079280311830342,-0.49065954730380323
1772525990618180600,5.7971806640625,-0.3241168033093214,0.41841099777072666,-0.3790041394032538
1772525990628164600,5.80716455078125,-0.002928454667329788,0.5320226177729666,-0.25586704108882696
1772525990638147600,5.817147705078125,0.25889701990187164,0.674968907200545,-0.15734594964738935
1772525990648130600,5.827130615234375,0.43626317306458945,0.8114063992559909,-0.08946439968477934
1772525990658114600,5.837114501953125,0.4717302077651024,0.9443247772745788,-0.021368622449599205
1772525990668097500,5.84709765625,0.37340076643824577,1.0697491462759674,0.05945124647598713
1772525990678080500,5.85708056640625,0.21481296350359916,1.2368763756275176,0.11679887173622847
1772525990688064500,5.867064453125,0.07015022554695606,1.4010191823408007,0.1831804654646665
1772525990698047700,5.8770478515625,-0.012796937730908392,1.5068278735071419,0.2713944632295519
1772525990708031700,5.88703173828125,0.03504091824293137,1.5267252908930182,0.36720019476506854
1772525990718014500,5.897014404296875,0.24422376690506933,1.5196310948483644,0.4403821161581203
1772525990727997400,5.90699755859375,0.638868981423974,1.4900623244062066,0.4443497776800766
1772525990737981400,5.9169814453125,1.0475520736455917,1.4310234215907751,0.3902663053149357
1772525990747964700,5.926964599609375,1.2924813584715127,1.3229150751799343,0.30611893593445416
1772525990757947600,5.93694775390625,1.4462638069510458,1.2119478322066366,0.24460198910031467
1772525990767931600,5.946931640625,1.553413683593273,1.0762022679381071,0.20973580636978148
1772525990777914600,5.95691455078125,1.629689114022255,0.9378969361841678,0.19752149083241818
1772525990787898600,5.966898681640625,1.6413719530314206,0.8069840527690947,0.1951519486894831
1772525990797881600,5.976881591796875,1.575665262889862,0.7034511975802481,0.15709464176744223
1772525990807864600,5.986864501953125,1.3982266290128231,0.6183402803972363,0.09504705865532159
1772525990817848600,5.9968486328125,1.146881631925702,0.5923080135181545,0.048840274482034145
1772525990827831600,6.00683154296875,0.8046621856927871,0.6339966992124915,0.05185465386714786
1772525990837815600,6.016815673828125,0.41946693656444545,0.6667629505217075,0.08088270502872764
1772525990847798500,6.026798583984375,0.04355798669755458,0.7128216679938137,0.09835457576811313
1772525990857781800,6.03678173828125,-0.31525135980844493,0.7390491651840507,0.1500300919423811
1772525990867765800,6.046765869140625,-0.5908966854155063,0.7856560180582106,0.17498084719507023
1772525990877748500,6.05674853515625,-0.7893734311461448,0.805273157197982,0.20598690216504037
1772525990887731500,6.0667314453125,-0.8929068708568811,0.7371206813395023,0.23271668632160872
1772525990897715500,6.076715576171875,-0.9177192405521869,0.6667050828546285,0.20029559518825263
1772525990907698700,6.08669873046875,-0.7564175024837255,0.5998216040186584,0.14771750415107235
1772525990917682700,6.0966826171875,-0.47738604156970976,0.4888520229578018,0.096393459162442
1772525990927665400,6.10666552734375,-0.17649755363464353,0.31610651533305645,0.0710499417325016
1772525990937648600,6.116648681640625,0.12966799792051314,0.16871303723827002,0.040213571640476585
1772525990947632600,6.126632568359375,0.422593544152379,0.06997969128564,0.009435754202120006
1772525990957615600,6.13661572265625,0.6448685140997171,-0.026357845571637152,-0.019577784376917404
1772525990967598600,6.1465986328125,0.8113736660301685,-0.12292319983541965,-0.037149416563194246
1772525990977582600,6.15658251953125,0.9247644828885793,-0.1935856126882136,-0.028960465818084775
1772525990987565600,6.166565673828125,1.002671898433566,-0.23377748395353554,-0.0406254769096151
1772525990997549600,6.176549560546875,1.0404390267699957,-0.2684539527982473,-0.044904122343193735
1772525991007532500,6.186532470703125,1.0298328770816325,-0.3148381028324365,-0.036910602838639166
1772525991017515800,6.196515869140625,1.013769046509266,-0.3496564643658697,-0.028926837543118745
1772525991027499800,6.206499755859375,0.9505418982237577,-0.382128555034101,-0.030919911056477574
1772525991037482500,6.216482421875,0.8532131583720445,-0.4075808300681412,-0.07712026548897848
1772525991047466500,6.226466552734375,0.7838912003427744,-0.4228082098163664,-0.11457273838566616
1772525991057449500,6.236449462890625,0.7087386364638805,-0.42049905609115956,-0.1683549079829827
1772525991067432700,6.2464326171875,0.6642027446448803,-0.4181640372723341,-0.18796050281543283
1772525991077416700,6.256416748046875,0.6162836401283741,-0.43644115997999905,-0.1821543738199398
1772525991087399400,6.2663994140625,0.6091472123771906,-0.47279696021378037,-0.14661231938814742
1772525991097382700,6.276382568359375,0.6093412736445665,-0.5406560060836374,-0.07116003277716226
1772525991107366700,6.28636669921875,0.574891891553998,-0.6278837692901492,0.03911377087214496
1772525991117349600,6.296349609375,0.45744799991250035,-0.6834820301324128,0.1400324112748727
1772525991127333600,6.306333740234375,0.2694610840141773,-0.6682042353712022,0.17720599416494368
1772525991137316400,6.31631640625,0.018819266760349274,-0.6477388088390231,0.2088745864305645
1772525991147299600,6.326299560546875,-0.28642566281855103,-0.6370838515728712,0.2560761903274804
1772525991157283600,6.33628369140625,-0.473079284286499,-0.577175472446531,0.3172308431878686
1772525991167266600,6.3462666015625,-0.5096428820520639,-0.4556330594450235,0.36368889870848503
1772525991177249800,6.356249755859375,-0.4501999284803867,-0.38068361692279573,0.3392975674368441
1772525991187233800,6.36623388671875,-0.3845060978204012,-0.3706190267652273,0.2742106348951347
1772525991197216500,6.376216552734375,-0.4409107066094875,-0.4280062168508768,0.2738799051034264
1772525991207200500,6.386200439453125,-0.6365881770104169,-0.6462494470641017,0.3973305080801248
1772525991217183500,6.39618359375,-0.8036772663086652,-0.693794311440736,0.34978049260433763
1772525991227166700,6.406166748046875,-1.0073357985913753,-0.48653673175275325,0.14496709119807927
1772525991237150700,6.416150634765625,-1.2880880919486284,-0.29007907075956463,-0.024523506283946332
1772525991247133400,6.426133544921875,-1.5694330905020235,-0.24381182510331273,-0.04979326435793191
1772525991257117400,6.436117431640625,-1.751430995118618,-0.24369813559576867,-0.03929455709941685
1772525991267100700,6.4461005859375,-1.893589056777954,-0.13524141413867471,-0.14604546101931482
1772525991277083600,6.456083740234375,-2.026961169913411,0.024823037219792603,-0.29723778340779244
1772525991287067600,6.466067626953125,-2.1402964571923015,0.17151786552593112,-0.36453375203479077
1772525991297050400,6.47605029296875,-2.140506885072589,0.28917335409149525,-0.29444683751501144
1772525991307033600,6.48603369140625,-1.9580390248566866,0.4215286913998425,-0.14105075800456107
1772525991317017600,6.496017578125,-1.5711270349383353,0.5651990573182701,0.04492324716877192
1772525991327000600,6.50600048828125,-1.0254694211751223,0.6894505831480026,0.21347057245131582
1772525991336984600,6.515984619140625,-0.42846565105617046,0.7184215338274836,0.35078524920009074
1772525991346967300,6.52596728515625,0.09842647196054458,0.675792352412641,0.4361335553355515
1772525991356950300,6.5359501953125,0.4856915131002664,0.6281625862315297,0.41013884398788214
1772525991366934300,6.545934326171875,0.7665747393608093,0.6139838387534022,0.25440458558714013
1772525991376917200,6.555917236328125,0.9606102877736091,0.6310391645811497,0.10218752326080575
1772525991386900200,6.565900146484375,1.0532131681472063,0.6102843997135758,0.01919924252126366
1772525991396884200,6.57588427734375,1.11139413895905,0.5393912468448281,0.02735806298959069
1772525991406867200,6.5858671875,1.1596809077441692,0.4879954061284661,0.00792257316019386
1772525991416851200,6.595851318359375,1.2333218980163334,0.47911374214515084,-0.04384200953701511
1772525991426834200,6.605834228515625,1.2673404874742031,0.43772710813730953,-0.11411081996234133
1772525991436817200,6.615817138671875,1.2547183217883109,0.3871507671102881,-0.18197941911183296
1772525991446801200,6.62580126953125,1.2074994744956493,0.34296120451092715,-0.25097550618760284
1772525991456784100,6.6357841796875,1.1558271549254655,0.29185747860893607,-0.321845935767889
1772525991466767400,6.645767333984375,1.0680921728491783,0.16917919344529508,-0.3437260879362002
1772525991476751000,6.655751220703125,0.9335545230656862,0.045433863572031254,-0.3835592819569632
1772525991486734000,6.665734130859375,0.6551636981427669,-0.011082827289402485,-0.47924175243899225
1772525991496718000,6.675718017578125,0.26326281389594075,-0.040927784324437375,-0.6154309688217937
1772525991506701300,6.685701416015625,-0.21296645885407922,-0.00811287156790495,-0.7138972613360732
1772525991516684300,6.695684326171875,-0.6608516806513071,0.06827449480295181,-0.7887682317946105
1772525991526668300,6.705668212890625,-0.9819283856123685,0.1724554386369884,-0.8256452063582838
1772525991536651000,6.715651123046875,-1.1365145516902209,0.29537206260114907,-0.8209763377644121
1772525991546634200,6.72563427734375,-1.117552661588788,0.40600539744496345,-0.7253897654049098
1772525991556618200,6.7356181640625,-0.9444242921262979,0.5029318401060998,-0.5691445800736546
1772525991566601200,6.745601318359375,-0.7081973691940308,0.5710812472246587,-0.35494178435765206
1772525991576585200,6.755585205078125,-0.5134960503488779,0.5701141557581723,-0.13079999762512742
1772525991586568200,6.765568115234375,-0.3166781777411699,0.5416017625011503,0.05809800523612648
1772525991596551200,6.77555126953125,-0.03863923499584198,0.491927923271805,0.21628926486754788
1772525991606535200,6.78553515625,0.3084089465677738,0.4290263536788523,0.33944296725690365
1772525991616518100,6.79551806640625,0.6659492960512637,0.3329804932445288,0.4248328109791502
1772525991626501400,6.80550146484375,0.8732751186698675,0.18260113120675087,0.5141165203347802
1772525991636485000,6.815485107421875,0.9380074108213186,0.03069777447208762,0.5163052260180935
1772525991646468000,6.825468017578125,0.9414134198725223,-0.09884104411080478,0.4296542032536119
1772525991656452000,6.8354521484375,0.9438380166709422,-0.2016077372327447,0.33817528540864583
1772525991666435300,6.845435302734375,0.9434475560486316,-0.32754809293225406,0.26433252548668534
1772525991676418300,6.855418212890625,0.7934551475018262,-0.4267116469956934,0.16000704034911467
1772525991686402300,6.86540234375,0.617042934063077,-0.44052141503095626,-0.010006448495853693
1772525991696385000,6.875385009765625,0.5258715477973223,-0.37058293253853913,-0.16268546577813103
1772525991706369300,6.885369384765625,0.4218967940598726,-0.37718247693404555,-0.22004016009997576
1772525991716352300,6.895352294921875,0.294171162378788,-0.46866395206227895,-0.24025837040543555
1772525991726335200,6.905335205078125,0.2165361340343952,-0.47505277631655335,-0.29676527052521706
1772525991736319200,6.9153193359375,0.13652970038354395,-0.4211215719036758,-0.35466114078536626
1772525991746302200,6.92530224609375,0.006377133816480636,-0.3897488207794726,-0.4192904474863782
1772525991756285200,6.93528515625,-0.14823358218073843,-0.3830202431768179,-0.4504866729998961
1772525991766269200,6.945269287109375,-0.3183253604263067,-0.3770411687672138,-0.504437057037279
1772525991776252200,6.955252197265625,-0.43792438427507874,-0.34938583073094487,-0.5672751694725826
1772525991786235100,6.965235107421875,-0.5544564217686653,-0.31191826986297966,-0.5968965834174305
1772525991796219100,6.97521923828125,-0.67198039290905,-0.22372093097195028,-0.5812150301609188
1772525991806202000,6.9852021484375,-0.8276601994425058,-0.1466103648930788,-0.48952941076271234
1772525991816186000,6.99518603515625,-0.9828215350598096,-0.12253171629980206,-0.3771714440833777
1772525991826169300,7.00516943359375,-1.0204711744964121,-0.06851531782150268,-0.3548832591034472
1772525991836152300,7.01515234375,-0.9637187751829623,0.03445800378844142,-0.32775136041939257
1772525991846136000,7.025135986328125,-0.990472926595807,0.06510872424840927,-0.09081638054931536
1772525991856119000,7.035119140625,-1.1482891606360672,-0.06977846962511539,0.2969169174229726
1772525991866102300,7.045102294921875,-1.28411275857687,-0.08867942331954837,0.5005562700811773
1772525991876086300,7.055086181640625,-1.4126865315198898,0.04195084376186132,0.4951262443890795
1772525991886069200,7.0650693359375,-1.495598623484373,0.04520823812261224,0.45826070453487333
1772525991896053200,7.07505322265625,-1.4134931717276573,-0.06070215985253453,0.4328051050325855
1772525991906036200,7.0850361328125,-1.0605886653512715,-0.16436375598758457,0.2840243190315552
1772525991916019200,7.095019287109375,-0.5853092406719923,-0.25091625028103587,0.07738622294878586
1772525991926003200,7.105003173828125,-0.13507599444389343,-0.29147622420638797,-0.09782346456609665
1772525991935986200,7.114986083984375,0.1542132411122322,-0.24680355426520106,-0.19573091762121766
1772525991945969200,7.12496923828125,0.36763854964971543,-0.17654489990770816,-0.1930371667589061
1772525991955953200,7.134953125,0.5411234774649143,-0.06091887134313583,-0.14001052823662757
1772525991965936000,7.14493603515625,0.6545429358959197,0.06384469566196203,-0.10540748995430767
1772525991975920000,7.154920166015625,0.6711907038360834,0.17118308061361312,-0.026847638382576405
1772525991985903400,7.1649033203125,0.5305693502247333,0.28320728529393674,0.13966460087578744
1772525991995886000,7.174885986328125,0.2614484579503536,0.4490928440213203,0.35912053134702143
1772525992005870000,7.1848701171875,0.05253565840125084,0.6888125775054097,0.518318648199737
1772525992015853000,7.19485302734375,-0.07152034485638141,0.8929401886045932,0.5980443286804482
1772525992025836300,7.204836181640625,-0.134271107801795,1.0168693506121635,0.5877890747889876
1772525992035820300,7.2148203125,-0.1451426304280758,1.1298472027555106,0.5616674125934019
1772525992045803300,7.22480322265625,-0.12895488121509552,1.256782853102684,0.5962048748262226
1772525992055787300,7.234787353515625,-0.04943360073268413,1.3525444897681473,0.7006949576746672
1772525992065770200,7.244770263671875,0.09031681526303291,1.3728206773385405,0.8888583991836756
1772525992075753200,7.254753173828125,0.22433073343336582,1.3317442783236504,1.1114397316664457
1772525992085737200,7.2647373046875,0.3678559917926788,1.22502928596735,1.2393467112638055
1772525992095720200,7.27472021484375,0.5469307024389505,1.1631684575989842,1.2278886209212243
1772525992105703200,7.284703125,0.7591980731129646,1.1215104593038558,1.1798592609632759
1772525992115687200,7.294687255859375,0.9419348133981227,0.9867956993877887,1.181016175913438
1772525992125670100,7.304670166015625,1.075330891931057,0.7955591340437531,1.1888331332746893
1772525992135654100,7.314654052734375,1.1430822396427391,0.628436142475903,1.1627449714899063
1772525992145637400,7.324637451171875,1.0962252113997935,0.49469110437482594,1.0703696162618697
1772525992155620000,7.3346201171875,0.9476187042534351,0.41256811696141954,0.9092172966014593
1772525992165604000,7.34460400390625,0.7437292858242989,0.3948167716935277,0.7047551928509026
1772525992175587000,7.354587158203125,0.5191746805071831,0.41988925362974405,0.5021247615069151
1772525992185570300,7.3645703125,0.2974129207789898,0.4356735366083681,0.31371019478105006
1772525992195554300,7.37455419921875,0.05381693038344383,0.43034737314954397,0.16650305130491033
1772525992205537300,7.384537353515625,-0.16628069552481173,0.4741716095678508,0.08362246872354298
1772525992215520300,7.394520263671875,-0.37263854989409445,0.5914342994235455,0.05756240052208304
1772525992225504300,7.404504150390625,-0.500215128493309,0.7597875634387135,0.08684312040363439
1772525992235487200,7.4144873046875,-0.5377396802455187,0.8637273919932543,0.16496393210412932
1772525992245471200,7.42447119140625,-0.4831383214861154,0.915275939053297,0.2629289057664573
1772525992255454200,7.4344541015625,-0.33301088838279247,0.9517435290984809,0.4203171236529946
1772525992265437200,7.444437255859375,-0.17158230906426905,0.9574982932329177,0.5240617218963801
1772525992275421200,7.454421142578125,0.029894787526130673,0.9151433987148105,0.6153706900019198
1772525992285404200,7.464404052734375,0.21723580673635004,0.8249813356220722,0.6464785796448588
1772525992295388200,7.47438818359375,0.40599312248528,0.6818747410662472,0.6480049854945391
1772525992305371400,7.484371337890625,0.5799748939067125,0.5076948167242109,0.6343743003532291
1772525992315354000,7.49435400390625,0.6949135247290134,0.30461057719811796,0.6005712168095633
1772525992325338000,7.504338134765625,0.7669605238080024,0.11399170536100864,0.5309310231439769
1772525992335321000,7.514321044921875,0.8235854973495006,-0.04642871982827782,0.40244025230929253
1772525992345304600,7.5243046875,0.8716092312842607,-0.18857099939659236,0.31432902079913766
1772525992355288600,7.53428857421875,0.8745680810898542,-0.308803060451895,0.23111853040996938
1772525992365271600,7.544271484375,0.8030781313717364,-0.390341964367032,0.15854184490106998
1772525992375254300,7.554254150390625,0.659706602269411,-0.46927053965330123,0.056950954092852765
1772525992385238500,7.564238525390625,0.5115852482914924,-0.5526552175655961,-0.0728171066686511
1772525992395221500,7.574221435546875,0.37428456353545186,-0.6407635629989207,-0.13668017823752016
1772525992405205500,7.58420556640625,0.21454057630300521,-0.7394182907573879,-0.17696323491763322
1772525992415188500,7.5941884765625,0.0907312412828207,-0.7888346480943262,-0.2329617836564779
1772525992425171500,7.60417138671875,0.022148703444004058,-0.8049033009722828,-0.3061187532713637
1772525992435155500,7.614155517578125,0.02249240231513977,-0.8096085560537875,-0.3791043118420988
1772525992445138400,7.624138427734375,0.0038677813440561293,-0.8052839708529412,-0.4252162208061665
1772525992455121400,7.634121337890625,-0.018155249893665314,-0.7860109689757228,-0.4565355612426996
1772525992465105400,7.64410546875,-0.05137362888455391,-0.7260945526733994,-0.46298919436149294
1772525992475088400,7.65408837890625,-0.1089390981465578,-0.663495327027887,-0.44270858634430915
1772525992485071400,7.6640712890625,-0.19446634104549884,-0.6055113400928676,-0.3523289349781349
1772525992495055400,7.674055419921875,-0.277992180994153,-0.47539501388296485,-0.20997641019262372
1772525992505038600,7.68403857421875,-0.3564975624322891,-0.304805369117856,-0.08091408654768019
1772525992515022600,7.694022705078125,-0.464382767611742,-0.21403262678086757,0.06546371169853955
1772525992525005300,7.70400537109375,-0.611751841917634,-0.3849621710248291,0.3546883210532367
1772525992534988300,7.71398828125,-0.627803982052207,-0.5182610727936029,0.44435390586592255
1772525992544972500,7.72397265625,-0.5359072041213512,-0.35481560069471596,0.2653726456567645
1772525992554955500,7.73395556640625,-0.44519934371411796,-0.18410846702978015,-0.009471592700481415
1772525992564938500,7.7439384765625,-0.46399815220832824,-0.13421879309266804,-0.18379180229604244
1772525992574922500,7.753922607421875,-0.6777735893577337,-0.19954525174498558,-0.15605864978320896
1772525992584905500,7.763905517578125,-0.9613339258730411,-0.1730650949679315,-0.16370383077412842
1772525992594889500,7.773889404296875,-1.2275655264467,0.07289630938470364,-0.22014197650663553
1772525992604872400,7.78387255859375,-1.473627030172944,0.40714389995560046,-0.21343769309502095
1772525992614855400,7.79385546875,-1.6727128477126358,0.6885910437092184,-0.049727103786543006
1772525992624839400,7.80383935546875,-1.7573077781975268,0.9128986885279416,0.1945861680328846
1772525992634822400,7.813822509765625,-1.684917080247402,1.078020277145505,0.40800658119954164
1772525992644805400,7.823805419921875,-1.4585755915135143,1.1707691418610513,0.5237673420596868
1772525992654789400,7.833789306640625,-1.1827262677669526,1.16535807659775,0.5917991141479462
1772525992664772600,7.843772705078125,-0.8559767778664826,1.094387182317674,0.6572216535858809
1772525992674755600,7.853755615234375,-0.48795478185713287,0.9937561860501766,0.716174850879237
1772525992684739300,7.8637392578125,-0.20455752694904802,0.7929156337976455,0.7210711715534329
1772525992694722300,7.873722412109375,0.05080898073911667,0.6376615053303539,0.6169147045735269
1772525992704706300,7.883706298828125,0.32366555241048334,0.6074611589863896,0.47328021368607875
1772525992714689500,7.893689453125,0.5159451970666646,0.6155065182760358,0.411689361365512
1772525992724672500,7.903672607421875,0.578963086515665,0.6062137892737984,0.38308307927995916
1772525992734656500,7.913656494140625,0.5998328560650348,0.6272060161590576,0.3414458315119147
1772525992744639500,7.923639404296875,0.5915934355080127,0.5878374439753592,0.2738121188305318
1772525992754622500,7.93362255859375,0.5306511832892894,0.5028539525642991,0.15357231286019085
1772525992764606500,7.9436064453125,0.4594476492971182,0.4514860227681696,0.04864771105200052
1772525992774589400,7.95358935546875,0.40942894215285774,0.4381973559975624,-0.10783011399134992
1772525992784573400,7.963573486328125,0.2728624168902635,0.4007676429219544,-0.29335158962421115
1772525992794556400,7.973556396484375,0.09170914640426635,0.33587738372981546,-0.503839894861728
1772525992804539400,7.983539306640625,-0.048451603958010674,0.31929508224129677,-0.6402068058989941
1772525992814523400,7.9935234375,-0.16754384732842445,0.3675789284169674,-0.7536272872433066
1772525992824506600,8.003506591796874,-0.24558804099559783,0.4253216539420187,-0.8252247159238905
1772525992834489300,8.0134892578125,-0.2887134814947843,0.5426297903746367,-0.8297153053414076
1772525992844473300,8.023473388671874,-0.273825708964467,0.6949044646397232,-0.7923579999148845
1772525992854456300,8.033456298828124,-0.23638006766736505,0.8626971721626817,-0.6927849152024835
1772525992864439600,8.043439453125,-0.18634382486641407,0.9710887194290757,-0.5303426287967712
1772525992874423600,8.053423583984374,-0.1123117894500494,1.0313330525115132,-0.36921990055702625
1772525992884406500,8.063406494140626,0.018935586616396903,1.0664860528267919,-0.26820100095048544
1772525992894390300,8.073390380859376,0.18993395831286905,1.0713580427773297,-0.159928476953879
1772525992904373500,8.08337353515625,0.3010644290238619,0.9745255620099603,-0.09869184489846229
1772525992914356500,8.0933564453125,0.3679442545980215,0.8488456108123064,-0.1440484054505825
1772525992924340500,8.103340576171876,0.4730599950641393,0.7981628868013619,-0.16830350658930837
1772525992934323500,8.113323486328126,0.6033902562856673,0.7149100185751914,-0.1059916465178132
1772525992944306400,8.123306396484375,0.6870055280834436,0.5784867011755704,-0.046151144995912906
1772525992954290400,8.13329052734375,0.6720055273503065,0.4075463432766497,-0.07614135572053492
1772525992964273400,8.1432734375,0.6365297248214483,0.3168159787766635,-0.1247699236806482
1772525992974256600,8.153256591796875,0.6264028830826283,0.23721505718678235,-0.15046981680020688
1772525992984240600,8.16324072265625,0.6566454611331224,0.12988310197591782,-0.15407251746729014
1772525992994223400,8.173223388671875,0.7776374006450176,0.054296676724404094,-0.13860292646102607
1772525993004207400,8.183207275390625,0.8719049993604421,-0.05282864999845624,-0.14641513458192348
1772525993014190300,8.1931904296875,0.8947165506273508,-0.19377061386629937,-0.13781075317002833
1772525993024173600,8.203173583984375,0.8563093708217143,-0.2915316076554358,-0.12214227859079838
1772525993034157600,8.213157470703125,0.8157838836878538,-0.3701404494680464,-0.1539377121064812
1772525993044140300,8.223140380859375,0.7423498141646385,-0.4827094285495579,-0.1714199581094086
1772525993054123500,8.23312353515625,0.7132189967483281,-0.5863168102793395,-0.23149974827989936
1772525993064107500,8.243107421875,0.7253852353602648,-0.6311641061350702,-0.35868031329885125
1772525993074090500,8.253090576171875,0.6984323465049267,-0.697304365388304,-0.3920211496256292
1772525993084073500,8.263073486328125,0.6214262637138366,-0.767956402977556,-0.4182547112304717
1772525993094057500,8.273057373046875,0.5220704019486904,-0.8099196678295731,-0.41049547540582715
1772525993104040400,8.28304052734375,0.42188568814396854,-0.7988944159463047,-0.37220052380301055
1772525993114024400,8.2930244140625,0.33177754719555375,-0.7616602254427969,-0.3067044807374477
1772525993124007400,8.30300732421875,0.2489174776792526,-0.7406487093351781,-0.19343904382437466
1772525993133990400,8.312990478515625,0.16084581099450587,-0.6968671430148183,-0.10257643124684691
1772525993143974700,8.322974609375,0.054013329738378524,-0.6641172583185136,-0.09469013497643172
1772525993153957400,8.332957275390624,-0.06028992578983307,-0.6018310441449284,-0.14865348809324205
1772525993163940400,8.3429404296875,-0.15618775605559349,-0.5231152348265051,-0.1818067659586668
1772525993173924400,8.35292431640625,-0.26856676552295683,-0.5068783857747912,-0.11656206730566918
1772525993183907600,8.362907470703124,-0.4018015160143375,-0.48983197390586136,0.04480550254061818
1772525993193890600,8.372890625,-0.49997664356231686,-0.4161857229366898,0.20837109388783573
1772525993203874300,8.382874267578124,-0.5324380667060613,-0.2892437889792025,0.3251340905930847
1772525993213857500,8.392857421875,-0.5410591800570488,-0.17367226708084343,0.3889383081141859
1772525993223840500,8.402840576171876,-0.5508282943993806,-0.05487184626385569,0.3689386724628508
1772525993233824500,8.412824462890624,-0.5753928268134594,-0.02112608239799738,0.38344204878546295
1772525993243807500,8.422807373046876,-0.5761737480580806,-0.17686229529380798,0.5122470001358539
1772525993253791500,8.43279150390625,-0.4856757310092449,-0.25195406889617444,0.47269203853458164
1772525993263774500,8.4427744140625,-0.44992812580168245,-0.16988719558417797,0.16008286379799247
1772525993273757400,8.45275732421875,-0.5641133079081774,-0.16367022076547144,-0.15132241504155097
1772525993283741400,8.462741455078126,-0.7272387542724609,-0.3216156341433525,-0.2833624758556485
1772525993293724400,8.472724365234376,-0.8583996210992336,-0.5269616811215877,-0.2783835914645344
1772525993303707400,8.482707275390625,-0.9030319590300321,-0.627915917994082,-0.28919527366235853
1772525993313691400,8.49269140625,-0.8620382698625325,-0.5815922659754753,-0.29999146603010596
1772525993323674400,8.50267431640625,-0.7734358573019504,-0.4885568394035101,-0.24907149919718502
1772525993333658400,8.512658447265625,-0.6593938830584287,-0.4104255519747734,-0.1333751818753779
1772525993343641600,8.5226416015625,-0.4858744684517383,-0.31401363470703364,0.01825461861491203
1772525993353625000,8.532625,-0.32768121779263015,-0.19447657017856834,0.13182554128058255
1772525993363609000,8.542609130859375,-0.25406127030849457,-0.08476970252990722,0.1694634902793914
1772525993373592000,8.552592041015625,-0.27502280979454513,0.04310118284076452,0.17128113416060806
1772525993383575000,8.562574951171875,-0.35726153254210946,0.18909429261833427,0.16697474220357833
1772525993393559000,8.57255908203125,-0.4735065697878599,0.3142974200844765,0.09955854473039508
1772525993403542000,8.5825419921875,-0.6017015725463628,0.45417906124442814,0.013884806032851338
1772525993413525000,8.59252490234375,-0.7431856804668903,0.5750929670840501,-0.05135799292400479
1772525993423509200,8.60250927734375,-0.8474965342909098,0.6661644001066684,-0.0637161739114672
1772525993433492200,8.6124921875,-0.9066752839684485,0.7871022713437676,-0.07608516855388879
1772525993443475000,8.622474853515625,-0.9505682017087936,0.888565334521234,-0.13050298743993044
1772525993453459000,8.632458984375,-0.9347019395351409,0.9679761403664946,-0.13276530634872616
1772525993463442200,8.642442138671875,-0.8175619992762804,1.0509423006057739,-0.012175883223116397
1772525993473426200,8.65242626953125,-0.5415180297404527,1.0897516314715145,0.10022782229408621
1772525993483409200,8.6624091796875,-0.13892156395614147,1.0614400214836002,0.18533705897666514
1772525993493392000,8.672391845703125,0.26685470090806485,0.9766635969519615,0.291692497305572
1772525993503376100,8.682376220703125,0.6879933700770139,0.8920952622130512,0.38205833934210237
1772525993513359000,8.692359130859375,1.058920439878106,0.8388947101622819,0.4650677542012185
1772525993523342000,8.702342041015624,1.287697046804428,0.8011389800027012,0.573911794475466
1772525993533326000,8.712326171875,1.4003420137315987,0.6994944227784872,0.6658469316553324
1772525993543309000,8.72230908203125,1.4589070154249668,0.5857081768617034,0.7815077392723411
1772525993553292000,8.7322919921875,1.458373346939683,0.5120674788504839,0.8904158577587455
1772525993563276000,8.742276123046874,1.428521814033389,0.506895629170537,0.9615983489628881
1772525993573259000,8.752259033203124,1.3790677550345658,0.5157280471846462,0.9578462298877537
1772525993583242200,8.7622421875,1.2662988694667816,0.46428719828277826,0.784322577497363
1772525993593226200,8.772226318359374,1.084791963237524,0.4415343914657831,0.48352300995476544
1772525993603209000,8.782208984375,0.8887456595242023,0.5322995350182056,0.23655104032009838
1772525993613193000,8.79219287109375,0.6572106938004494,0.643636049695313,0.10162892126366495
1772525993623176200,8.80217626953125,0.3416314172118902,0.6783002435803412,0.022615699901245533
1772525993633159200,8.8121591796875,0.0020288754791021346,0.7587687417849898,-0.0023385990153998136
1772525993643143200,8.82214306640625,-0.33311493327915664,0.8733584130391479,0.01972622553743422
1772525993653126000,8.8321259765625,-0.590652939787507,0.9811959796845913,0.10670861741444096
1772525993663109000,8.842109130859376,-0.7742208701997995,1.0617001337245107,0.18023805533722043
1772525993673093000,8.852093017578126,-0.8350286823838948,1.1494365771055222,0.26043391061294824
1772525993683076000,8.862076171875,-0.6935901671707629,1.2197560217395425,0.30147615162990987
1772525993693059000,8.87205908203125,-0.3487117308616638,1.178131925714016,0.30733839472681285
1772525993703043000,8.88204296875,0.08577800278961659,0.9930679115250706,0.3792996152184903
1772525993713026000,8.892026123046875,0.48963002159297464,0.8068363148614763,0.4143963553018868
1772525993723009000,8.902009033203125,0.7939642660677433,0.6576648673087359,0.4217120120774954
1772525993732993000,8.911992919921875,0.9917769949316978,0.48757571941167116,0.3911185747627169
1772525993742976300,8.921976318359375,1.1277210043817758,0.2881824433580041,0.32630901612397284
1772525993752960000,8.9319599609375,1.1716852337926627,0.11291618508398532,0.18074995038211344
1772525993762943000,8.94194287109375,1.2102929046064614,-0.11524112090021371,0.1486537803541869
1772525993772926200,8.95192626953125,1.2686428022444247,-0.18474515749812126,0.07741539424434304
1772525993782910200,8.96191015625,1.265299921557307,-0.1842965369477868,0.0807292315000668
1772525993792893200,8.97189306640625,1.1477268505781888,-0.1436029997706413,0.13669088229462503
1772525993802876000,8.9818759765625,0.9086223263829946,-0.16876988199204204,0.24018625501729546
1772525993812860000,8.99185986328125,0.7774474310308694,-0.5003320328712463,0.21005305562540888
1772525993822843100,9.001843017578125,0.7922498633652925,-0.42809360287338494,0.17906221649087964
1772525993832826000,9.011826171875,0.5746335328787565,-0.04354162008464336,0.3964129913764074
1772525993842810000,9.02181005859375,0.24149989489912985,-0.04112257624417543,0.5256761713556946
1772525993852793000,9.03179296875,-0.09370587317943573,-0.23212679413706064,0.2822200278222561
1772525993862776000,9.041776123046875,-0.5427805970221757,-0.04821165772229433,-0.031631986582279205
1772525993872760000,9.051760009765625,-1.1747855378955603,0.3508665708079934,-0.00033138737883418797
1772525993882743000,9.061742919921874,-1.7534890966922043,-0.04714461301267147,0.0012705313924700021
