time,seconds_elapsed,z,y,x
1772525984907675100,0.086675048828125,-0.36587637662887573,0.3601173758506775,-0.16054780781269073
1772525984917659100,0.0966591796875,-0.37875211238861084,0.40107154846191406,0.019849197939038277
1772525984927642000,0.10664208984375,-0.3497081995010376,0.2980964481830597,0.18026868999004364
1772525984937624800,0.116624755859375,-0.28790006041526794,0.0870191752910614,0.3313300311565399
1772525984947608800,0.12660888671875,-0.20405283570289612,-0.1110832542181015,0.49140360951423645
1772525984957592000,0.136592041015625,-0.10473504662513733,-0.21711918711662292,0.6528086066246033
1772525984967576000,0.146576171875,0.007507605012506247,-0.29268479347229004,0.792695939540863
1772525984977559000,0.15655908203125,0.12302941083908081,-0.3758983910083771,0.8740156888961792
1772525984987542000,0.1665419921875,0.23629045486450195,-0.45959675312042236,0.9008632898330688
1772525984997526000,0.176526123046875,0.305131733417511,-0.5156237483024597,0.8671314716339111
1772525985007509000,0.186509033203125,0.3130725026130676,-0.5175780057907104,0.7788053750991821
1772525985017493000,0.196492919921875,0.25990986824035645,-0.4797154366970062,0.6477546691894531
1772525985027476000,0.20647607421875,0.1641457974910736,-0.4287089705467224,0.5006839632987976
1772525985037460000,0.2164599609375,0.06483214348554611,-0.3385385572910309,0.3616524040699005
1772525985047443000,0.22644287109375,-0.006493697874248028,-0.2095310389995575,0.23952142894268036
1772525985057426000,0.236426025390625,-0.04264175146818161,-0.0834866315126419,0.14111903309822083
1772525985067410000,0.246409912109375,-0.050012849271297455,0.028175709769129753,0.057266753166913986
1772525985077393200,0.25639306640625,-0.041560232639312744,0.10846526175737381,-0.0069549852050840855
1772525985087377200,0.266377197265625,-0.025845717638731003,0.1468142420053482,-0.05636408179998398
1772525985097360000,0.27635986328125,-0.014040213078260422,0.15541262924671173,-0.08902653306722641
1772525985107342800,0.2863427734375,-0.010301933623850346,0.12891018390655518,-0.11815884709358215
1772525985117326800,0.296326904296875,-0.014987580478191376,0.058451246470212936,-0.14053921401500702
1772525985127310000,0.30631005859375,-0.024490270763635635,-0.05075034126639366,-0.1551021784543991
1772525985137294000,0.316294189453125,-0.03149481117725372,-0.16411103308200836,-0.14318886399269104
1772525985147277000,0.326277099609375,-0.03713405504822731,-0.24679474532604218,-0.09163378924131393
1772525985157260800,0.3362607421875,-0.04530348628759384,-0.2733997702598572,-0.019703444093465805
1772525985167244000,0.346244140625,-0.04669072851538658,-0.24966168403625488,0.07439269870519638
1772525985177227000,0.35622705078125,-0.028972119092941284,-0.18193592131137848,0.15670204162597656
1772525985187211000,0.3662109375,0.009427201934158802,-0.08563361316919327,0.23352918028831482
1772525985197194000,0.376194091796875,0.07022132724523544,0.04119779169559479,0.30074191093444824
1772525985207178200,0.38617822265625,0.1448787897825241,0.15435923635959625,0.35953837633132935
1772525985217161000,0.396160888671875,0.22020116448402405,0.19463080167770386,0.4048028290271759
1772525985227144000,0.40614404296875,0.2868236005306244,0.16465240716934204,0.43200117349624634
1772525985237128000,0.4161279296875,0.33545008301734924,0.08082476258277893,0.4458569884300232
1772525985247111200,0.426111083984375,0.36706793308258057,-0.02129867486655712,0.44428759813308716
1772525985257095200,0.43609521484375,0.38702598214149475,-0.11443717777729034,0.4299105107784271
1772525985267078000,0.446077880859375,0.3869924247264862,-0.1840125322341919,0.39827775955200195
1772525985277062000,0.456061767578125,0.3605167865753174,-0.26531386375427246,0.3400192856788635
1772525985287045000,0.466045166015625,0.3153114914894104,-0.3662562072277069,0.2525767683982849
1772525985297028000,0.476028076171875,0.2594667077064514,-0.46363967657089233,0.14293000102043152
1772525985307012000,0.48601220703125,0.18993476033210754,-0.5486558079719543,0.019957471638917923
1772525985316994800,0.495994873046875,0.12941645085811615,-0.5997917652130127,-0.08186817914247513
1772525985326978800,0.505978759765625,0.06264008581638336,-0.6069503426551819,-0.162953719496727
1772525985336962000,0.515962158203125,-0.006582657340914011,-0.5583487153053284,-0.21398547291755676
1772525985346944800,0.52594482421875,-0.08550889790058136,-0.4600072205066681,-0.23453494906425476
1772525985356928800,0.5359287109375,-0.14939945936203003,-0.32474711537361145,-0.22524158656597137
1772525985366912000,0.545912109375,-0.1850634515285492,-0.19541524350643158,-0.17851243913173676
1772525985376896000,0.55589599609375,-0.18349386751651764,-0.09848474711179733,-0.10478530079126358
1772525985386879000,0.56587890625,-0.15826013684272766,-0.0451754555106163,-0.013120364397764206
1772525985396861700,0.57586181640625,-0.10604698956012726,-0.04772889241576195,0.07838369905948639
1772525985406845700,0.585845703125,-0.05005509406328201,-0.07041902840137482,0.16274331510066986
1772525985416829000,0.595828857421875,-0.00442173145711422,-0.10077355057001114,0.22448532283306122
1772525985426813000,0.60581298828125,0.02573324181139469,-0.09682754427194595,0.26584023237228394
1772525985436796000,0.6157958984375,0.038500506430864334,-0.08092121034860611,0.2827528715133667
1772525985446780000,0.62577978515625,0.03668449446558952,-0.029914490878582,0.27714693546295166
1772525985456763000,0.635762939453125,0.02743522822856903,0.03585037216544151,0.24583658576011658
1772525985466745900,0.645745849609375,0.005643646232783794,0.10479801893234253,0.20099960267543793
1772525985476729900,0.655729736328125,-0.019648820161819458,0.1629323661327362,0.1472731977701187
1772525985486712800,0.665712890625,-0.056215353310108185,0.19684424996376038,0.08779097348451614
1772525985496696800,0.67569677734375,-0.08319709450006485,0.20820142328739166,0.03710712119936943
1772525985506679800,0.6856796875,-0.1032823845744133,0.18456879258155823,-0.0014804857783019543
1772525985516662800,0.695662841796875,-0.1113608106970787,0.1200910285115242,-0.02762940153479576
1772525985526646800,0.705646728515625,-0.10044744610786438,0.0501665398478508,-0.021996550261974335
1772525985536630000,0.715630126953125,-0.08089157938957214,-0.03857973963022232,0.00865496601909399
1772525985546614000,0.725614013671875,-0.06439010053873062,-0.128366619348526,0.05103251710534096
1772525985556596700,0.7355966796875,-0.05428431183099747,-0.20488369464874268,0.09732789546251297
1772525985566579700,0.745579833984375,-0.05976855754852295,-0.2868509888648987,0.14872530102729797
1772525985576563700,0.755563720703125,-0.08380960673093796,-0.3529924154281616,0.19441430270671844
1772525985586547000,0.765546875,-0.11051391810178757,-0.4196132719516754,0.23659931123256683
1772525985596531000,0.775531005859375,-0.1467316746711731,-0.4851391017436981,0.27167999744415283
1772525985606514000,0.785513916015625,-0.19390557706356049,-0.5409302115440369,0.29370540380477905
1772525985616497700,0.79549755859375,-0.23829486966133118,-0.5668022036552429,0.31390199065208435
1772525985626481000,0.80548095703125,-0.2800588309764862,-0.5631155967712402,0.3179931342601776
1772525985636463900,0.8154638671875,-0.31872987747192383,-0.5224921703338623,0.3138011395931244
1772525985646447900,0.82544775390625,-0.34956368803977966,-0.44267404079437256,0.3139782249927521
1772525985656430800,0.835430908203125,-0.37443462014198303,-0.35602933168411255,0.3047865331172943
1772525985666415000,0.8454150390625,-0.381244033575058,-0.252173513174057,0.30883240699768066
1772525985676397800,0.855397705078125,-0.36660686135292053,-0.11736704409122467,0.3219328224658966
1772525985686380800,0.865380859375,-0.33400124311447144,-0.05538010597229004,0.31345492601394653
1772525985696364800,0.87536474609375,-0.31923067569732666,-0.12633860111236572,0.2691632807254791
1772525985706348000,0.88534814453125,-0.3377111554145813,-0.19394321739673615,0.20674408972263336
1772525985716332000,0.89533203125,-0.3869495093822479,-0.14305004477500916,0.14947640895843506
1772525985726314800,0.905314697265625,-0.45977818965911865,-0.006195001304149628,0.10802962630987167
1772525985736298800,0.915298828125,-0.547318696975708,0.1361876130104065,0.06627405434846878
1772525985746282000,0.925281982421875,-0.6587781310081482,0.25954896211624146,0.007333776447921991
1772525985756265000,0.935264892578125,-0.778695285320282,0.3688700795173645,-0.07316675037145615
1772525985766249000,0.9452490234375,-0.8867067098617554,0.4468543529510498,-0.1815052181482315
1772525985776231700,0.955231689453125,-0.9557521939277649,0.5134889483451843,-0.30079254508018494
1772525985786215700,0.965215576171875,-0.9845249652862549,0.5597296357154846,-0.4217139184474945
1772525985796199000,0.975198974609375,-0.9815598726272583,0.5917379260063171,-0.5280103087425232
1772525985806182000,0.985181884765625,-0.9814573526382446,0.5772455334663391,-0.6187897324562073
1772525985816166000,0.995165771484375,-0.9954645037651062,0.5186523795127869,-0.7029930353164673
1772525985826148900,1.00514892578125,-1.0107026100158691,0.43957966566085815,-0.7539377212524414
1772525985836132900,1.0151328125,-1.0218372344970703,0.34918516874313354,-0.7681856155395508
1772525985846115800,1.02511572265625,-1.0392812490463257,0.23475900292396545,-0.7324196696281433
1772525985856099800,1.035099853515625,-1.0267105102539062,0.12027907371520996,-0.6380797624588013
1772525985866082800,1.045082763671875,-1.0014081001281738,0.01378085371106863,-0.48377537727355957
1772525985876066000,1.055066162109375,-0.9534977078437805,-0.10401973873376846,-0.29535600543022156
1772525985886050000,1.065050048828125,-0.894194483757019,-0.2277241051197052,-0.08594951778650284
1772525985896032800,1.07503271484375,-0.8061277270317078,-0.30848604440689087,0.13821807503700256
1772525985906016800,1.085016845703125,-0.695533812046051,-0.3546932339668274,0.36351296305656433
1772525985916000000,1.095,-0.5671054720878601,-0.39277517795562744,0.5648695230484009
1772525985925983000,1.10498291015625,-0.43057218194007874,-0.4171020984649658,0.7341901063919067
1772525985935967000,1.114967041015625,-0.2978951334953308,-0.4183117151260376,0.8577451705932617
1772525985945949700,1.12494970703125,-0.17895808815956116,-0.4324919879436493,0.9350293278694153
1772525985955933700,1.13493359375,-0.0867980420589447,-0.4486004710197449,0.9761569499969482
1772525985965917000,1.1449169921875,-0.02307366207242012,-0.462594598531723,0.9876641631126404
1772525985975900000,1.15489990234375,0.007800010032951832,-0.49471086263656616,0.9659554958343506
1772525985985884000,1.1648837890625,0.005961097776889801,-0.5492684245109558,0.90055251121521
1772525985995867000,1.174866943359375,-0.03516023978590965,-0.6226659417152405,0.8011612296104431
1772525986005851000,1.184850830078125,-0.10470521450042725,-0.6743500828742981,0.6839352250099182
1772525986015833900,1.194833740234375,-0.20988677442073822,-0.6858331561088562,0.5684701800346375
1772525986025817900,1.20481787109375,-0.3272149860858917,-0.6818344593048096,0.44231757521629333
1772525986035800800,1.21480078125,-0.4365912675857544,-0.6941595673561096,0.32433152198791504
1772525986045783800,1.22478369140625,-0.5486517548561096,-0.7085872888565063,0.21259061992168427
1772525986055767800,1.234767822265625,-0.646696150302887,-0.6734613180160522,0.11993809044361115
1772525986065750800,1.244750732421875,-0.7207751274108887,-0.5645447373390198,0.04287179931998253
1772525986075734800,1.25473486328125,-0.7751703858375549,-0.4096886217594147,-0.026633288711309433
1772525986085718000,1.264718017578125,-0.8102679252624512,-0.24053609371185303,-0.09373056888580322
1772525986095701000,1.274700927734375,-0.8202368021011353,-0.058519989252090454,-0.159007266163826
1772525986105684700,1.284684814453125,-0.809190034866333,0.09420696645975113,-0.22037342190742493
1772525986115667700,1.294667724609375,-0.7859596014022827,0.22186219692230225,-0.2640533447265625
1772525986125651700,1.304651611328125,-0.7532967329025269,0.3315871059894562,-0.292330265045166
1772525986135635000,1.314635009765625,-0.7144865989685059,0.4022562503814697,-0.30281001329421997
1772525986145618000,1.324617919921875,-0.6656553745269775,0.4390241205692291,-0.29224392771720886
1772525986155602000,1.334601806640625,-0.5954898595809937,0.4446699321269989,-0.26485103368759155
1772525986165585000,1.3445849609375,-0.5062918066978455,0.4033360779285431,-0.22048571705818176
1772525986175569000,1.35456884765625,-0.41298380494117737,0.3232872188091278,-0.16053152084350586
1772525986185552000,1.3645517578125,-0.32918158173561096,0.23642663657665253,-0.07558786869049072
1772525986195534800,1.374534912109375,-0.26218512654304504,0.14783304929733276,0.025078773498535156
1772525986205518800,1.384518798828125,-0.2130410224199295,0.08270572125911713,0.1379171758890152
1772525986215501800,1.394501708984375,-0.1973419487476349,0.034359127283096313,0.2323354333639145
1772525986225485800,1.40448583984375,-0.19706711173057556,-0.020194660872220993,0.2945151627063751
1772525986235468800,1.41446875,-0.21998557448387146,-0.06749390810728073,0.30577465891838074
1772525986245452800,1.424452880859375,-0.2587129771709442,-0.0933457463979721,0.27657976746559143
1772525986255436000,1.43443603515625,-0.31493061780929565,-0.09453147649765015,0.20195887982845306
1772525986265418800,1.444418701171875,-0.38937848806381226,-0.07483766227960587,0.08963286876678467
1772525986275402800,1.45440283203125,-0.468254029750824,-0.044793471693992615,-0.05110619217157364
1772525986285385700,1.4643857421875,-0.5432395935058594,0.0022512697614729404,-0.20579802989959717
1772525986295370000,1.474369873046875,-0.5994481444358826,0.07308582216501236,-0.359887957572937
1772525986305353000,1.48435302734375,-0.6344341039657593,0.17869560420513153,-0.4866059422492981
1772525986315336000,1.4943359375,-0.6361207962036133,0.28801536560058594,-0.5629767179489136
1772525986325319700,1.504319580078125,-0.5951672792434692,0.3562769889831543,-0.5740370750427246
1772525986335302400,1.514302490234375,-0.5078374743461609,0.35775500535964966,-0.5358322262763977
1772525986345286100,1.5242861328125,-0.3853571116924286,0.31218913197517395,-0.45468461513519287
1772525986355269000,1.53426904296875,-0.2393399029970169,0.2777335047721863,-0.3486561179161072
1772525986365252400,1.54425244140625,-0.08351488411426544,0.2234359234571457,-0.23202697932720184
1772525986375236400,1.554236328125,0.059823788702487946,0.1120515689253807,-0.12682819366455078
1772525986385219300,1.56421923828125,0.1614513397216797,-0.03127496317028999,-0.05330631136894226
1772525986395203300,1.574203369140625,0.22202138602733612,-0.178397536277771,-0.03494150564074516
1772525986405186300,1.584186279296875,0.22242246568202972,-0.36942794919013977,-0.0876486599445343
1772525986415170300,1.59417041015625,0.16128474473953247,-0.6065619587898254,-0.21374890208244324
1772525986425153300,1.6041533203125,0.05752665549516678,-0.7960964441299438,-0.378145307302475
1772525986435136300,1.61413623046875,-0.0697084441781044,-0.8933489322662354,-0.5473864674568176
1772525986445120300,1.624120361328125,-0.18996508419513702,-0.8700832724571228,-0.6861997246742249
1772525986455103200,1.634103271484375,-0.2836267054080963,-0.7342227697372437,-0.7707762122154236
1772525986465087200,1.644087158203125,-0.3372691869735718,-0.5512607097625732,-0.8093925714492798
1772525986475070200,1.6540703125,-0.3483287990093231,-0.3557361960411072,-0.8001514673233032
1772525986485053200,1.66405322265625,-0.30802130699157715,-0.1862608939409256,-0.7607467770576477
1772525986495037400,1.674037353515625,-0.21878021955490112,-0.0698513388633728,-0.6941767930984497
1772525986505020200,1.684020263671875,-0.08944807201623917,-0.012653561308979988,-0.6035398244857788
1772525986515004200,1.694004150390625,0.05037696287035942,-0.014726237393915653,-0.5031951069831848
1772525986524987100,1.703987060546875,0.1548498421907425,-0.05511467158794403,-0.40040457248687744
1772525986534970400,1.713970458984375,0.21221838891506195,-0.1006598025560379,-0.29753270745277405
1772525986544954400,1.723954345703125,0.22543247044086456,-0.11926677823066711,-0.20260964334011078
1772525986554937300,1.733937255859375,0.21030473709106445,-0.09890852868556976,-0.0991569384932518
1772525986564921000,1.743921142578125,0.19042663276195526,-0.033990517258644104,-0.0060035535134375095
1772525986574904300,1.753904296875,0.18519912660121918,0.06741416454315186,0.08449798077344894
1772525986584887300,1.76388720703125,0.20331740379333496,0.18692457675933838,0.15965186059474945
1772525986594871300,1.773871337890625,0.2356073409318924,0.2683814465999603,0.2168000042438507
1772525986604854300,1.783854248046875,0.29523155093193054,0.28107407689094543,0.2555077373981476
1772525986614838300,1.79383837890625,0.36490657925605774,0.23699291050434113,0.27545422315597534
1772525986624821200,1.8038212890625,0.4330233037471771,0.1884237676858902,0.2757895290851593
1772525986634805200,1.81380517578125,0.49528536200523376,0.12400782853364944,0.2649187445640564
1772525986644788200,1.823788330078125,0.5470020174980164,0.04241923242807388,0.24175192415714264
1772525986654771200,1.833771240234375,0.5819902420043945,-0.04814527928829193,0.19773779809474945
1772525986664755500,1.84375537109375,0.5875011086463928,-0.1422765851020813,0.14231476187705994
1772525986674738200,1.85373828125,0.5607171654701233,-0.20452089607715607,0.08611008524894714
1772525986684722200,1.86372216796875,0.5154735445976257,-0.23461595177650452,0.03853058069944382
1772525986694705200,1.873705078125,0.45711326599121094,-0.23027770221233368,0.014071176759898663
1772525986704688400,1.8836884765625,0.4077813923358917,-0.19390398263931274,0.011038103140890598
1772525986714672400,1.89367236328125,0.3607567250728607,-0.1353347897529602,0.017492495477199554
1772525986724655000,1.903655029296875,0.3284216821193695,-0.05833667516708374,0.028491884469985962
1772525986734639000,1.91363916015625,0.3144058585166931,0.016053572297096252,0.029376406222581863
1772525986744622300,1.923622314453125,0.3207399249076843,0.07092054933309555,0.024049285799264908
1772525986754605300,1.933605224609375,0.3375008702278137,0.10512679815292358,0.009583482518792152
1772525986764589300,1.94358935546875,0.35815367102622986,0.12030894309282303,-0.012083463370800018
1772525986774572000,1.953572021484375,0.3819980025291443,0.1303977519273758,-0.040830690413713455
1772525986784556000,1.96355615234375,0.4041925370693207,0.1407420039176941,-0.0695427656173706
1772525986794539300,1.973539306640625,0.41650229692459106,0.15509699285030365,-0.09902280569076538
1772525986804522200,1.983522216796875,0.4145536720752716,0.17734797298908234,-0.12382347881793976
1772525986814506200,1.99350634765625,0.40422990918159485,0.2000984400510788,-0.15033473074436188
1772525986824489500,2.003489501953125,0.3839547336101532,0.21070927381515503,-0.17065437138080597
1772525986834473200,2.01347314453125,0.3542824387550354,0.22566698491573334,-0.18733592331409454
1772525986844456200,2.023456298828125,0.32184380292892456,0.23902831971645355,-0.20717807114124298
1772525986854440200,2.033440185546875,0.30463460087776184,0.24355177581310272,-0.2420465350151062
1772525986864423200,2.043423095703125,0.30242523550987244,0.21267588436603546,-0.2823180556297302
1772525986874406400,2.053406494140625,0.311994343996048,0.1541520357131958,-0.3159944415092468
1772525986884390400,2.063390380859375,0.32174018025398254,0.10734857618808746,-0.32428619265556335
1772525986894373000,2.073373046875,0.32759159803390503,0.07182898372411728,-0.3124726116657257
1772525986904357000,2.083357177734375,0.3275391459465027,0.036407869309186935,-0.29433169960975647
1772525986914340400,2.09334033203125,0.33841270208358765,-0.004030972719192505,-0.27327778935432434
1772525986924323300,2.1033232421875,0.34447991847991943,-0.05088769271969795,-0.2568780481815338
1772525986934307300,2.113307373046875,0.3404606878757477,-0.09842635691165924,-0.23524264991283417
1772525986944290000,2.1232900390625,0.32751479744911194,-0.14084066450595856,-0.21063584089279175
1772525986954274300,2.1332744140625,0.3000549376010895,-0.16781911253929138,-0.18673117458820343
1772525986964257300,2.14325732421875,0.26785650849342346,-0.2009432464838028,-0.17162279784679413
1772525986974240300,2.153240234375,0.22671425342559814,-0.24959751963615417,-0.1538374423980713
1772525986984224300,2.163224365234375,0.19018259644508362,-0.28035035729408264,-0.12757335603237152
1772525986994207200,2.173207275390625,0.15731823444366455,-0.30623435974121094,-0.10191357135772705
1772525987004191200,2.183191162109375,0.12417971342802048,-0.3489477336406708,-0.08388610184192657
1772525987014174200,2.19317431640625,0.09521408379077911,-0.3789066672325134,-0.0722997635602951
1772525987024157200,2.2031572265625,0.07200942933559418,-0.37918150424957275,-0.06881341338157654
1772525987034141200,2.21314111328125,0.04311235994100571,-0.36145320534706116,-0.06983225047588348
1772525987044124400,2.22312451171875,0.01852685771882534,-0.32854825258255005,-0.06531046330928802
1772525987054108200,2.233108154296875,-0.004690926056355238,-0.2938692271709442,-0.05345149338245392
1772525987064091100,2.243091064453125,-0.02275780960917473,-0.23779210448265076,-0.023183340206742287
1772525987074074400,2.253074462890625,-0.029074320569634438,-0.13514026999473572,0.029619943350553513
1772525987084058400,2.263058349609375,-0.022261155769228935,-0.06476277858018875,0.07791929692029953
1772525987094041300,2.273041259765625,-0.029230020940303802,-0.10717088729143143,0.09258182346820831
1772525987104025300,2.283025390625,-0.071524478495121,-0.16876527667045593,0.07723163068294525
1772525987114008000,2.293008056640625,-0.13433697819709778,-0.17831575870513916,0.046848833560943604
1772525987123992300,2.302992431640625,-0.19486451148986816,-0.13635286688804626,0.02749457396566868
1772525987133975300,2.312975341796875,-0.24298198521137238,-0.09697284549474716,0.008299700915813446
1772525987143958300,2.322958251953125,-0.29782021045684814,-0.09056128561496735,-0.022344494238495827
1772525987153942300,2.3329423828125,-0.3443593680858612,-0.08335992693901062,-0.07041658461093903
1772525987163925200,2.34292529296875,-0.37896421551704407,-0.053913891315460205,-0.1348552405834198
1772525987173909200,2.3529091796875,-0.38677695393562317,-0.014446303248405457,-0.2210778295993805
1772525987183892200,2.362892333984375,-0.37178653478622437,0.011926448903977871,-0.33214282989501953
1772525987193875200,2.372875244140625,-0.3545094430446625,0.04187594726681709,-0.4376814663410187
1772525987203859500,2.382859375,-0.3431289494037628,0.07371217012405396,-0.5354112386703491
1772525987213842200,2.39284228515625,-0.33664393424987793,0.07415619492530823,-0.6130516529083252
1772525987223826200,2.402826171875,-0.324194997549057,0.042174290865659714,-0.6716731190681458
1772525987233809200,2.41280908203125,-0.30098190903663635,-0.007462914101779461,-0.6970543265342712
1772525987243792400,2.42279248046875,-0.2821482717990875,-0.06542954593896866,-0.6838082671165466
1772525987253776400,2.4327763671875,-0.2652505338191986,-0.11891283839941025,-0.6264447569847107
1772525987263759000,2.442759033203125,-0.2518790662288666,-0.1679040938615799,-0.5357327461242676
1772525987273743000,2.4527431640625,-0.23391446471214294,-0.22264456748962402,-0.4203950762748718
1772525987283726300,2.462726318359375,-0.2131977379322052,-0.2802700698375702,-0.2926616072654724
1772525987293709300,2.472709228515625,-0.17956112325191498,-0.30153197050094604,-0.14737743139266968
1772525987303693300,2.482693359375,-0.1363782286643982,-0.28910404443740845,-0.0005546989850699902
1772525987313676300,2.49267626953125,-0.08583071082830429,-0.2560212314128876,0.14680272340774536
1772525987323660000,2.502659912109375,-0.032352566719055176,-0.20428133010864258,0.2852245271205902
1772525987333643300,2.512643310546875,0.012028193101286888,-0.17595157027244568,0.40088412165641785
1772525987343627000,2.522626953125,0.03918897360563278,-0.1750306487083435,0.47751498222351074
1772525987353611000,2.532611083984375,0.05784764885902405,-0.1772092878818512,0.5157947540283203
1772525987363594000,2.542593994140625,0.06363097578287125,-0.18159258365631104,0.5199617743492126
1772525987373578000,2.552577880859375,0.055145516991615295,-0.1872270107269287,0.49979516863822937
1772525987383561200,2.562561279296875,0.032394930720329285,-0.19376853108406067,0.45806318521499634
1772525987393544200,2.572544189453125,-0.014614321291446686,-0.20670634508132935,0.3916124701499939
1772525987403528000,2.58252783203125,-0.0945267304778099,-0.24171918630599976,0.2894695997238159
1772525987413511000,2.592510986328125,-0.2029348760843277,-0.28701409697532654,0.15524595975875854
1772525987423495200,2.6024951171875,-0.3252762258052826,-0.2860606610774994,0.019998926669359207
1772525987433478100,2.61247802734375,-0.46216344833374023,-0.23674999177455902,-0.10191810876131058
1772525987443461000,2.622461181640625,-0.5930241942405701,-0.15003159642219543,-0.2028665542602539
1772525987453445000,2.632445068359375,-0.6938943862915039,-0.030513156205415726,-0.2698040306568146
1772525987463428000,2.642427978515625,-0.748654842376709,0.0994562953710556,-0.31095999479293823
1772525987473412000,2.652412109375,-0.763420581817627,0.20911702513694763,-0.32839086651802063
1772525987483395000,2.66239501953125,-0.7373247742652893,0.2828999161720276,-0.3202061653137207
1772525987493379000,2.672379150390625,-0.681323766708374,0.3364028036594391,-0.283973753452301
1772525987503362300,2.6823623046875,-0.5984808206558228,0.3684858977794647,-0.22489579021930695
1772525987513345000,2.692344970703125,-0.509259045124054,0.374348908662796,-0.14935645461082458
1772525987523329000,2.7023291015625,-0.41786280274391174,0.3648132085800171,-0.0646226555109024
1772525987533312000,2.71231201171875,-0.3311097025871277,0.3358406722545624,0.021617241203784943
1772525987543296000,2.7222958984375,-0.2516409754753113,0.303483784198761,0.1087164580821991
1772525987553279200,2.732279296875,-0.1851387321949005,0.27279648184776306,0.19320741295814514
1772525987563262000,2.742261962890625,-0.12241356819868088,0.2531255781650543,0.26110899448394775
1772525987573246000,2.752245849609375,-0.07290622591972351,0.23038923740386963,0.3099232316017151
1772525987583229200,2.762229248046875,-0.028872454538941383,0.2025272399187088,0.3444492518901825
1772525987593213200,2.772213134765625,0.013508832082152367,0.1889818012714386,0.37086302042007446
1772525987603196200,2.782196044921875,0.052131857722997665,0.16367244720458984,0.38144803047180176
1772525987613179000,2.792178955078125,0.08965358138084412,0.11338578909635544,0.3684176206588745
1772525987623163000,2.802162841796875,0.1274060159921646,0.03787399083375931,0.34027519822120667
1772525987633146000,2.81214599609375,0.15193034708499908,-0.04833906143903732,0.2997978925704956
1772525987643130000,2.822130126953125,0.16324345767498016,-0.13592377305030823,0.24840502440929413
1772525987653113000,2.832113037109375,0.16681519150733948,-0.21154119074344635,0.18715646862983704
1772525987663096000,2.842095947265625,0.1550791710615158,-0.25996920466423035,0.11753638833761215
1772525987673080000,2.852080078125,0.13216304779052734,-0.2806481122970581,0.04975277557969093
1772525987683063000,2.86206298828125,0.09768229722976685,-0.24148152768611908,-0.015091998502612114
1772525987693047000,2.872047119140625,0.04182392731308937,-0.17434421181678772,-0.07010136544704437
1772525987703030000,2.882030029296875,-0.021222949028015137,-0.11609795689582825,-0.1289798617362976
1772525987713013200,2.89201318359375,-0.08168601244688034,-0.057641878724098206,-0.18279102444648743
1772525987722997200,2.901997314453125,-0.13207514584064484,0.0191090926527977,-0.2289198935031891
1772525987732980000,2.91197998046875,-0.16350483894348145,0.13894328474998474,-0.2605273425579071
1772525987742964000,2.9219638671875,-0.16402176022529602,0.2661784589290619,-0.2890743017196655
1772525987752947200,2.931947265625,-0.12101808190345764,0.37415948510169983,-0.3260464072227478
1772525987762930200,2.94193017578125,-0.021501079201698303,0.45951351523399353,-0.3863246440887451
1772525987772914200,2.9519140625,0.09678971022367477,0.47718244791030884,-0.4956969916820526
1772525987782897000,2.96189697265625,0.22598472237586975,0.44347909092903137,-0.6438915133476257
1772525987792881000,2.971880859375,0.32578355073928833,0.4243564307689667,-0.8084951639175415
1772525987802864000,2.981864013671875,0.38444793224334717,0.44563722610473633,-0.9753379225730896
1772525987812847000,2.99184716796875,0.4067957401275635,0.4728962481021881,-1.1338590383529663
1772525987822831000,3.0018310546875,0.3841327726840973,0.4711262881755829,-1.2543566226959229
1772525987832814000,3.01181396484375,0.33239156007766724,0.4525870978832245,-1.303650140762329
1772525987842798000,3.021798095703125,0.2773818373680115,0.4561173915863037,-1.2612099647521973
1772525987852781000,3.031781005859375,0.23202848434448242,0.46473273634910583,-1.118166208267212
1772525987862764000,3.041763916015625,0.20989841222763062,0.48260679841041565,-0.8985385298728943
1772525987872748000,3.051748046875,0.21359682083129883,0.4641895294189453,-0.6394768953323364
1772525987882731300,3.061731201171875,0.23669415712356567,0.3813018500804901,-0.3764100670814514
1772525987892715000,3.071715087890625,0.29403069615364075,0.25644227862358093,-0.1465112268924713
1772525987902698000,3.081697998046875,0.36310750246047974,0.09375456720590591,0.053731855005025864
1772525987912682000,3.091681884765625,0.44488152861595154,-0.09417400509119034,0.22894424200057983
1772525987922665200,3.101665283203125,0.5211169123649597,-0.2588905096054077,0.3821766674518585
1772525987932648200,3.111648193359375,0.5855153799057007,-0.37176066637039185,0.5217661261558533
1772525987942632200,3.121632080078125,0.6493577361106873,-0.4443126320838928,0.6610734462738037
1772525987952615000,3.131614990234375,0.7139655947685242,-0.4825507700443268,0.7889611721038818
1772525987962599000,3.141598876953125,0.7727548480033875,-0.5024139881134033,0.9098849296569824
1772525987972582100,3.15158203125,0.8296491503715515,-0.4976111352443695,1.0140831470489502
1772525987982565000,3.161565185546875,0.885411262512207,-0.47320884466171265,1.1073662042617798
1772525987992549000,3.171549072265625,0.9413257837295532,-0.4268665611743927,1.1882027387619019
1772525988002532000,3.181531982421875,1.003076195716858,-0.3730510175228119,1.2561732530593872
1772525988012516000,3.19151611328125,1.0575984716415405,-0.31521445512771606,1.2897177934646606
1772525988022499000,3.2014990234375,1.1004279851913452,-0.2643427550792694,1.2823530435562134
1772525988032482000,3.21148193359375,1.1389424800872803,-0.2316637635231018,1.2356458902359009
1772525988042466000,3.221466064453125,1.1746830940246582,-0.23887427151203156,1.1514593362808228
1772525988052449000,3.231448974609375,1.202235221862793,-0.2835925817489624,1.0286376476287842
1772525988062433000,3.24143310546875,1.2059378623962402,-0.36432844400405884,0.8833659887313843
1772525988072416000,3.251416015625,1.1781995296478271,-0.44553741812705994,0.7254091501235962
1772525988082399200,3.261399169921875,1.121548056602478,-0.5187612771987915,0.5663859844207764
1772525988092383200,3.27138330078125,1.04442298412323,-0.5719579458236694,0.426207959651947
1772525988102366000,3.281365966796875,0.9542980790138245,-0.6252366304397583,0.3029770851135254
1772525988112350000,3.291349853515625,0.8517979979515076,-0.6770357489585876,0.1904776245355606
1772525988122333000,3.3013330078125,0.7382309436798096,-0.7381163835525513,0.09228155761957169
1772525988132316200,3.311316162109375,0.6454858183860779,-0.7957590222358704,0.024456433951854706
1772525988142300200,3.321300048828125,0.5728800892829895,-0.8309822678565979,-0.006889237090945244
1772525988152283100,3.331283203125,0.5341113209724426,-0.8401327729225159,0.01948395185172558
1772525988162267000,3.341266845703125,0.5272645950317383,-0.8055992722511292,0.09891139715909958
1772525988172250000,3.35125,0.5399641990661621,-0.7282949686050415,0.21169914305210114
1772525988182233000,3.361233154296875,0.5662266612052917,-0.6134882569313049,0.3462633490562439
1772525988192217000,3.371217041015625,0.6031630635261536,-0.4608412981033325,0.47069188952445984
1772525988202200000,3.381199951171875,0.6393554210662842,-0.29162004590034485,0.5753908753395081
1772525988212184000,3.39118408203125,0.6761891841888428,-0.09711682796478271,0.6480079293251038
1772525988222167000,3.4011669921875,0.7003669142723083,0.1016431376338005,0.6833642721176147
1772525988232150000,3.41114990234375,0.7047845125198364,0.30355304479599,0.6664568781852722
1772525988242134000,3.421134033203125,0.6960647702217102,0.4748033583164215,0.6142418384552002
1772525988252117200,3.4311171875,0.6823393106460571,0.6050869822502136,0.5257646441459656
1772525988262101200,3.441101318359375,0.6724967956542969,0.6940240263938904,0.4163723587989807
1772525988272084000,3.451083984375,0.6611549854278564,0.7402306199073792,0.2959705591201782
1772525988282067000,3.46106689453125,0.6530344486236572,0.7581773996353149,0.16787463426589966
1772525988292051200,3.47105126953125,0.6426777243614197,0.7580727934837341,0.04595136642456055
1772525988302034200,3.4810341796875,0.6303129196166992,0.7315751314163208,-0.06536822766065598
1772525988312018200,3.49101806640625,0.6220747232437134,0.6836403608322144,-0.16235695779323578
1772525988322001000,3.5010009765625,0.6108694672584534,0.6208587288856506,-0.24437379837036133
1772525988331984100,3.510984130859375,0.5957784652709961,0.5342814922332764,-0.3138386309146881
1772525988341968100,3.520968017578125,0.5682442784309387,0.4085991680622101,-0.3745552599430084
1772525988351950800,3.530950927734375,0.5341795086860657,0.2497832477092743,-0.4305165112018585
1772525988361934800,3.540934814453125,0.48584502935409546,0.04862430691719055,-0.47095903754234314
1772525988371918000,3.55091796875,0.4207783341407776,-0.1346535086631775,-0.4762401580810547
1772525988381901000,3.560901123046875,0.342072069644928,-0.29619497060775757,-0.4424222707748413
1772525988391885000,3.570885009765625,0.253487765789032,-0.42676377296447754,-0.377787321805954
1772525988401867800,3.58086767578125,0.16711106896400452,-0.5278831720352173,-0.2849396765232086
1772525988411851800,3.590851806640625,0.0827825516462326,-0.611575186252594,-0.18786926567554474
1772525988421835000,3.6008349609375,0.003318086266517639,-0.6739628911018372,-0.08676262944936752
1772525988431818000,3.61081787109375,-0.061785660684108734,-0.7015364766120911,0.014128470793366432
1772525988441802000,3.620802001953125,-0.10904292017221451,-0.6563761830329895,0.10730341821908951
1772525988451785000,3.630784912109375,-0.12657123804092407,-0.5667577385902405,0.179656520485878
1772525988461769000,3.64076904296875,-0.12522074580192566,-0.4725812077522278,0.21333378553390503
1772525988471752000,3.650751953125,-0.1318325698375702,-0.39046481251716614,0.18090543150901794
1772525988481735000,3.66073486328125,-0.17375151813030243,-0.3697134554386139,0.07142767310142517
1772525988491719000,3.670718994140625,-0.28368404507637024,-0.4101696014404297,-0.1121591255068779
1772525988501702100,3.6807021484375,-0.4405170679092407,-0.44830766320228577,-0.32711777091026306
1772525988511686000,3.690685791015625,-0.604354202747345,-0.40800637006759644,-0.5097660422325134
1772525988521668900,3.7006689453125,-0.742794930934906,-0.28765013813972473,-0.6155568957328796
1772525988531652000,3.710652099609375,-0.8390189409255981,-0.10638610273599625,-0.6361875534057617
1772525988541636000,3.720635986328125,-0.8843845129013062,0.08577268570661545,-0.5886924862861633
1772525988551619000,3.730619140625,-0.8723747730255127,0.22719798982143402,-0.4945572316646576
1772525988561603000,3.74060302734375,-0.7947227358818054,0.288568377494812,-0.37248557806015015
1772525988571585800,3.750585693359375,-0.6511022448539734,0.27994608879089355,-0.2392696589231491
1772525988581569000,3.760569091796875,-0.46123674511909485,0.19732418656349182,-0.08453094959259033
1772525988591553000,3.770552978515625,-0.2526473104953766,0.0673057958483696,0.07167554646730423
1772525988601536000,3.780535888671875,-0.07059763371944427,-0.08553781360387802,0.22313590347766876
1772525988611520000,3.79052001953125,0.02628783881664276,-0.21667775511741638,0.33809226751327515
1772525988621503000,3.8005029296875,0.02832994982600212,-0.2934305965900421,0.3931635022163391
1772525988631486000,3.81048583984375,-0.05715133249759674,-0.291520357131958,0.3576461672782898
1772525988641470000,3.820469970703125,-0.21437662839889526,-0.20448586344718933,0.2464887648820877
1772525988651453000,3.830452880859375,-0.37680038809776306,-0.05051659047603607,0.08878757804632187
1772525988661437000,3.84043701171875,-0.5010381937026978,0.1331951767206192,-0.06445950269699097
1772525988671420000,3.850419921875,-0.5625386834144592,0.2970722019672394,-0.180917888879776
1772525988681403000,3.86040283203125,-0.5736789703369141,0.39854076504707336,-0.24877019226551056
1772525988691387000,3.870386962890625,-0.5510868430137634,0.45581257343292236,-0.2710881233215332
1772525988701370000,3.8803701171875,-0.5171062350273132,0.46310269832611084,-0.25935956835746765
1772525988711354000,3.89035400390625,-0.47188857197761536,0.4103263020515442,-0.21658019721508026
1772525988721336800,3.9003369140625,-0.40356728434562683,0.30111274123191833,-0.14657820761203766
1772525988731319800,3.91031982421875,-0.3069881498813629,0.15669047832489014,-0.052687231451272964
1772525988741303800,3.9203037109375,-0.19717083871364594,0.008036555722355843,0.06482581049203873
1772525988751287000,3.930287109375,-0.09634152054786682,-0.12772347033023834,0.18488354980945587
1772525988761271000,3.94027099609375,-0.020710144191980362,-0.26030948758125305,0.2768198847770691
1772525988771254000,3.95025390625,0.02656647376716137,-0.3633890450000763,0.31589820981025696
1772525988781237000,3.960237060546875,0.056088149547576904,-0.4129558205604553,0.3101561665534973
1772525988791221000,3.970220947265625,0.06625575572252274,-0.39675554633140564,0.2784177362918854
1772525988801204000,3.980203857421875,0.06406930088996887,-0.31369316577911377,0.23101027309894562
1772525988811188000,3.99018798828125,0.05321529507637024,-0.18689441680908203,0.18133056163787842
1772525988821171000,4.0001708984375,0.044885993003845215,-0.021625833585858345,0.13894368708133698
1772525988831154000,4.01015380859375,0.04482625797390938,0.1605203002691269,0.10333222895860672
1772525988841138000,4.020137939453125,0.05020211264491081,0.3336433470249176,0.057567935436964035
1772525988851121000,4.030120849609375,0.07729872316122055,0.47825637459754944,-0.0047695874236524105
1772525988861105000,4.04010498046875,0.1244816854596138,0.6006696224212646,-0.08656112104654312
1772525988871088000,4.050088134765625,0.1898929923772812,0.6939255595207214,-0.170562744140625
1772525988881070800,4.06007080078125,0.24432800710201263,0.7593575716018677,-0.24834969639778137
1772525988891054800,4.070054931640625,0.2801874876022339,0.7975031733512878,-0.32318851351737976
1772525988901037800,4.080037841796875,0.29271551966667175,0.8133587837219238,-0.38915926218032837
1772525988911021800,4.090021728515625,0.29531174898147583,0.8209096193313599,-0.4447169005870819
1772525988921005000,4.100005126953125,0.29466965794563293,0.8103882670402527,-0.4860219955444336
1772525988930988000,4.109988037109375,0.29937946796417236,0.7736712098121643,-0.5099247694015503
1772525988940971800,4.1199716796875,0.3168359398841858,0.7161250710487366,-0.5169890522956848
1772525988950955000,4.129955078125,0.34726130962371826,0.6563311815261841,-0.49497172236442566
1772525988960938000,4.13993798828125,0.38554105162620544,0.5837536454200745,-0.44492802023887634
1772525988970922000,4.149921875,0.4248350262641907,0.5439357757568359,-0.37606123089790344
1772525988980905000,4.159905029296875,0.4657342731952667,0.5485182404518127,-0.2906544506549835
1772525988990889000,4.169888916015625,0.5017121434211731,0.5756898522377014,-0.2165127992630005
1772525989000872000,4.179871826171875,0.530268132686615,0.5946100354194641,-0.17138686776161194
1772525989010855000,4.18985498046875,0.5475198030471802,0.6051971316337585,-0.16307833790779114
1772525989020839000,4.1998388671875,0.5567426085472107,0.6075884103775024,-0.19472600519657135
1772525989030822100,4.209822265625,0.5503681302070618,0.6023527979850769,-0.24862749874591827
1772525989040806100,4.21980615234375,0.5219570398330688,0.5986824035644531,-0.30430564284324646
1772525989050788900,4.229788818359375,0.4883737862110138,0.6217049956321716,-0.3469502031803131
1772525989060771800,4.239771728515625,0.4481893479824066,0.6505166888237,-0.37307819724082947
1772525989070755800,4.249755859375,0.41631343960762024,0.6869679689407349,-0.39071938395500183
1772525989080739000,4.259739013671875,0.3929615020751953,0.7370308637619019,-0.399345338344574
1772525989090723000,4.26972314453125,0.38912320137023926,0.7984513640403748,-0.39390829205513
1772525989100705800,4.279705810546875,0.4111669659614563,0.8427085876464844,-0.3762291669845581
1772525989110689000,4.28968896484375,0.46394550800323486,0.8403567671775818,-0.3433528244495392
1772525989120673000,4.299673095703125,0.5471961498260498,0.8102111220359802,-0.29134076833724976
1772525989130656000,4.309656005859375,0.6500027179718018,0.7038598656654358,-0.23610243201255798
1772525989140640000,4.319639892578125,0.7113920450210571,0.40285712480545044,-0.22140496969223022
1772525989150622700,4.329622802734375,0.6858223080635071,0.04508264362812042,-0.25002428889274597
1772525989160606000,4.33960595703125,0.6107144951820374,-0.19896385073661804,-0.27267739176750183
1772525989170590000,4.34958984375,0.5093599557876587,-0.3594016432762146,-0.27287501096725464
1772525989180573000,4.359572998046875,0.3992574214935303,-0.465658575296402,-0.24873769283294678
1772525989190557000,4.369556884765625,0.3017682135105133,-0.5146042704582214,-0.1990301012992859
1772525989200540200,4.3795400390625,0.2217136174440384,-0.4809565842151642,-0.12875114381313324
1772525989210523000,4.38952294921875,0.17901797592639923,-0.36397919058799744,-0.04489123448729515
1772525989220507000,4.3995068359375,0.18675951659679413,-0.2215394675731659,0.033678144216537476
1772525989230489900,4.40948974609375,0.23244622349739075,-0.06998968869447708,0.0872545912861824
1772525989240474000,4.41947412109375,0.31363508105278015,0.0779624879360199,0.11740610003471375
1772525989250457000,4.42945703125,0.4207979440689087,0.2147098034620285,0.12662295997142792
1772525989260439800,4.439439697265625,0.5313391089439392,0.3208056390285492,0.12037038803100586
1772525989270423800,4.449423828125,0.6308244466781616,0.3863828778266907,0.11199888586997986
1772525989280407000,4.459406982421875,0.7015939354896545,0.41682812571525574,0.12219879031181335
1772525989290390000,4.46939013671875,0.7440163493156433,0.42009925842285156,0.15216609835624695
1772525989300374000,4.4793740234375,0.7525094151496887,0.414615273475647,0.20534063875675201
1772525989310356700,4.489356689453125,0.7457952499389648,0.4016932547092438,0.26033610105514526
1772525989320341000,4.499341064453125,0.7341678738594055,0.3805757164955139,0.3096945881843567
1772525989330324000,4.509323974609375,0.7166416645050049,0.35854822397232056,0.34575116634368896
1772525989340307000,4.519306884765625,0.6959949731826782,0.35289299488067627,0.3736211359500885
1772525989350291000,4.529291015625,0.69087153673172,0.37297922372817993,0.39685893058776855
1772525989360274000,4.53927392578125,0.7224449515342712,0.39105144143104553,0.41377028822898865
1772525989370258000,4.5492578125,0.8023767471313477,0.4131993353366852,0.42921802401542664
1772525989380241000,4.559240966796875,0.9207814335823059,0.41391971707344055,0.44028639793395996
1772525989390224000,4.569223876953125,1.0274220705032349,0.39715319871902466,0.4521706998348236
1772525989400208000,4.579207763671875,1.1067367792129517,0.35963964462280273,0.448525607585907
1772525989410191000,4.589191162109375,1.151045560836792,0.2986764907836914,0.4230046272277832
1772525989420174800,4.5991748046875,1.1644207239151,0.21536242961883545,0.3788851201534271
1772525989430157800,4.60915771484375,1.146605372428894,0.136735200881958,0.30793389678001404
1772525989440141000,4.61914111328125,1.09877610206604,0.06123565137386322,0.22410982847213745
1772525989450125000,4.629125,1.0275894403457642,-0.02664935402572155,0.12685000896453857
1772525989460108000,4.63910791015625,0.9356377720832825,-0.13291135430335999,0.016737893223762512
1772525989470092000,4.649092041015625,0.8314685225486755,-0.2437099665403366,-0.11612298339605331
1772525989480075000,4.659074951171875,0.7318756580352783,-0.3392258286476135,-0.2505212724208832
1772525989490058000,4.66905810546875,0.6476259827613831,-0.4039686322212219,-0.3617454171180725
1772525989500042000,4.6790419921875,0.584270715713501,-0.4110555648803711,-0.4278983473777771
1772525989510025000,4.68902490234375,0.5380446910858154,-0.3820662200450897,-0.4372767508029938
1772525989520009000,4.699009033203125,0.5104615688323975,-0.2782844305038452,-0.37725868821144104
1772525989529992000,4.708991943359375,0.5183113217353821,-0.10136105120182037,-0.2579079270362854
1772525989539975000,4.718974853515625,0.5597474575042725,0.12155032157897949,-0.098084956407547
1772525989549959000,4.728958984375,0.6229925155639648,0.3436366617679596,0.07513611763715744
1772525989559942000,4.73894189453125,0.6902876496315002,0.5286896228790283,0.2252689003944397
1772525989569925000,4.748925048828125,0.7375551462173462,0.6567674875259399,0.32997873425483704
1772525989579908900,4.758908935546875,0.7801467776298523,0.7463349103927612,0.40105077624320984
1772525989589891800,4.768891845703125,0.8112940788269043,0.8070007562637329,0.43573933839797974
1772525989599875800,4.778875732421875,0.8309854865074158,0.8239350318908691,0.44113704562187195
1772525989609859000,4.788859130859375,0.8543016910552979,0.7788386344909668,0.42652055621147156
1772525989619842000,4.798842041015625,0.8651372790336609,0.6535182595252991,0.38345566391944885
1772525989629826000,4.808825927734375,0.8628367781639099,0.44436848163604736,0.32501840591430664
1772525989639808800,4.818808837890625,0.8485132455825806,0.21264122426509857,0.25860315561294556
1772525989649793000,4.82879296875,0.8128904104232788,0.007740279659628868,0.18024075031280518
1772525989659776000,4.83877587890625,0.742175281047821,-0.14036981761455536,0.08836914598941803
1772525989669759000,4.848759033203125,0.6654205322265625,-0.23660381138324738,-0.03159550577402115
1772525989679743000,4.858742919921875,0.6061838269233704,-0.2787112891674042,-0.17847895622253418
1772525989689726000,4.868725830078125,0.5751458406448364,-0.2958548367023468,-0.35100165009498596
1772525989699710000,4.8787099609375,0.5691359043121338,-0.2729884088039398,-0.5284784436225891
1772525989709693000,4.88869287109375,0.5654022693634033,-0.24744780361652374,-0.7086989879608154
1772525989719676000,4.898676025390625,0.5586042404174805,-0.24811653792858124,-0.8795098662376404
1772525989729660200,4.90866015625,0.5515144467353821,-0.27915486693382263,-1.0283184051513672
1772525989739643000,4.918642822265625,0.5389584898948669,-0.3270683288574219,-1.140566110610962
1772525989749625900,4.9286259765625,0.49934229254722595,-0.39358052611351013,-1.2120598554611206
1772525989759609900,4.93860986328125,0.44182759523391724,-0.46591275930404663,-1.2236483097076416
1772525989769593000,4.948593017578125,0.3725008964538574,-0.5316665768623352,-1.182108759880066
1772525989779577000,4.9585771484375,0.29186171293258667,-0.5497009754180908,-1.0842205286026
1772525989789559800,4.968559814453125,0.21396014094352722,-0.5249004364013672,-0.9472343325614929
1772525989799542800,4.978542724609375,0.1320333182811737,-0.46256378293037415,-0.7881781458854675
1772525989809527000,4.988527099609375,0.0717165470123291,-0.3568055033683777,-0.6243470311164856
1772525989819510000,4.998510009765625,0.02098013460636139,-0.31911033391952515,-0.4897753596305847
1772525989829494000,5.008493896484375,-0.05286115035414696,-0.40937918424606323,-0.4217459261417389
1772525989839477000,5.01847705078125,-0.14874187111854553,-0.5128268003463745,-0.3935267925262451
1772525989849460000,5.0284599609375,-0.2389044463634491,-0.5351542234420776,-0.38465893268585205
1772525989859444000,5.03844384765625,-0.3142487406730652,-0.5112048983573914,-0.39351263642311096
1772525989869427000,5.048427001953125,-0.37823617458343506,-0.4732573330402374,-0.4249417185783386
1772525989879411000,5.058410888671875,-0.45114046335220337,-0.3906697630882263,-0.4591819643974304
1772525989889394000,5.068393798828125,-0.521825909614563,-0.22035081684589386,-0.4869111478328705
1772525989899377000,5.078376953125,-0.5710453987121582,0.0239888746291399,-0.4906640946865082
1772525989909361000,5.08836083984375,-0.5674649477005005,0.2986513078212738,-0.4705451726913452
1772525989919343900,5.09834375,-0.5161588788032532,0.5276735424995422,-0.4295594096183777
1772525989929327000,5.1083271484375,-0.4256320893764496,0.6620512008666992,-0.37849846482276917
1772525989939311000,5.11831103515625,-0.321224182844162,0.710776686668396,-0.3113476634025574
1772525989949293800,5.1282939453125,-0.224008709192276,0.6713511943817139,-0.22187615931034088
1772525989959277800,5.13827783203125,-0.1404895782470703,0.5844202637672424,-0.10722282528877258
1772525989969261000,5.148260986328125,-0.08914977312088013,0.4692404270172119,0.02307559736073017
1772525989979244000,5.158244140625,-0.07292739301919937,0.34903281927108765,0.1359528750181198
1772525989989228000,5.16822802734375,-0.09201639145612717,0.23387868702411652,0.2209213227033615
1772525989999211000,5.1782109375,-0.12455010414123535,0.144424170255661,0.2718806266784668
1772525990009194800,5.18819482421875,-0.13724474608898163,0.09154060482978821,0.29662230610847473
1772525990019178000,5.198177978515625,-0.13572834432125092,0.05556795746088028,0.28756144642829895
1772525990029161000,5.208160888671875,-0.11961418390274048,-0.0012794851791113615,0.24269163608551025
1772525990039145000,5.21814501953125,-0.09249681234359741,-0.0791122317314148,0.1760372370481491
1772525990049128000,5.2281279296875,-0.052048299461603165,-0.14631929993629456,0.09807931631803513
1772525990059112200,5.2381123046875,-0.01037568412721157,-0.2017950713634491,0.005096376873552799
1772525990069095000,5.248094970703125,0.0323655791580677,-0.2378103882074356,-0.0875471979379654
1772525990079078000,5.258077880859375,0.06410140544176102,-0.25809648633003235,-0.18096688389778137
1772525990089062000,5.268061767578125,0.0790087878704071,-0.2831867039203644,-0.2609909474849701
1772525990099045000,5.278045166015625,0.06498990952968597,-0.3188765048980713,-0.33222144842147827
1772525990109027800,5.28802783203125,0.023105397820472717,-0.3336426913738251,-0.37381768226623535
1772525990119011800,5.29801171875,-0.027217427268624306,-0.32319140434265137,-0.3804875910282135
1772525990128994800,5.307994873046875,-0.07633683830499649,-0.293415904045105,-0.35899618268013
1772525990138979000,5.31797900390625,-0.12399117648601532,-0.22387835383415222,-0.309982031583786
1772525990148962000,5.327962158203125,-0.1710563451051712,-0.09278153628110886,-0.2438383400440216
1772525990158944800,5.33794482421875,-0.20929774641990662,0.06676551699638367,-0.17612269520759583
1772525990168928800,5.3479287109375,-0.23806652426719666,0.20947064459323883,-0.12502260506153107
1772525990178912000,5.357912109375,-0.25540342926979065,0.30102694034576416,-0.09997504204511642
1772525990188896000,5.36789599609375,-0.2662898302078247,0.3541289269924164,-0.1028115451335907
1772525990198879000,5.37787890625,-0.2707439661026001,0.39135777950286865,-0.12744738161563873
1772525990208862000,5.387862060546875,-0.2675304114818573,0.4349558651447296,-0.1499687135219574
1772525990218846000,5.397845947265625,-0.2634962499141693,0.44842585921287537,-0.17532840371131897
1772525990228829000,5.407828857421875,-0.24787700176239014,0.4347327649593353,-0.18146584928035736
1772525990238812000,5.41781201171875,-0.2370845377445221,0.4103619158267975,-0.1636570245027542
1772525990248796000,5.4277958984375,-0.2164669781923294,0.38841110467910767,-0.12643186748027802
1772525990258779100,5.437779052734375,-0.19728823006153107,0.36244821548461914,-0.07108578830957413
1772525990268763100,5.44776318359375,-0.1719697266817093,0.3406454026699066,-0.004550344310700893
1772525990278745900,5.457745849609375,-0.13976386189460754,0.3052975535392761,0.0622827485203743
1772525990288728800,5.467728759765625,-0.10550922155380249,0.25329187512397766,0.1294666826725006
1772525990298713000,5.477713134765625,-0.06242646649479866,0.20629559457302094,0.20287832617759705
1772525990308696000,5.487696044921875,-0.026127204298973083,0.16745789349079132,0.26631149649620056
1772525990318680000,5.49768017578125,0.0016386467032134533,0.1522429883480072,0.32669147849082947
1772525990328662800,5.507662841796875,0.02513623982667923,0.19084976613521576,0.37454620003700256
1772525990338646000,5.51764599609375,0.04216662421822548,0.23642337322235107,0.3992858827114105
1772525990348629500,5.52762939453125,0.046027667820453644,0.26591238379478455,0.38740527629852295
1772525990358612500,5.537612548828125,0.03956577181816101,0.27613359689712524,0.348587304353714
1772525990368596500,5.547596435546875,0.029930371791124344,0.2705531418323517,0.2907539904117584
1772525990378579700,5.557579833984375,0.028172951191663742,0.2663576006889343,0.2254173457622528
1772525990388562700,5.567562744140625,0.02457699179649353,0.25145524740219116,0.1582617312669754
1772525990398546700,5.577546630859375,0.025982340797781944,0.2477710098028183,0.10374390333890915
1772525990408529400,5.587529296875,0.02725604735314846,0.2565426230430603,0.07628556340932846
1772525990418512600,5.5975126953125,0.029862215742468834,0.30483531951904297,0.07886217534542084
1772525990428496600,5.60749658203125,0.035805683583021164,0.35203102231025696,0.10913840681314468
1772525990438479600,5.617479736328125,0.0610806830227375,0.3890247344970703,0.15080276131629944
1772525990448463600,5.627463623046875,0.09871768951416016,0.3731788694858551,0.19628289341926575
1772525990458446600,5.637446533203125,0.15417322516441345,0.29962393641471863,0.23420123755931854
1772525990468429600,5.6474296875,0.23742568492889404,0.21704937517642975,0.27279898524284363
1772525990478413600,5.65741357421875,0.3539679944515228,0.1602204442024231,0.3225487172603607
1772525990488396500,5.667396484375,0.48777613043785095,0.0754041001200676,0.3914356231689453
1772525990498379500,5.677379638671875,0.6008073687553406,-0.06291835755109787,0.4486991763114929
1772525990508363500,5.687363525390625,0.688119649887085,-0.19457732141017914,0.5137152075767517
1772525990518346500,5.697346435546875,0.7409165501594543,-0.28026852011680603,0.5755417943000793
1772525990528330500,5.70733056640625,0.7579571604728699,-0.35649558901786804,0.611508309841156
1772525990538313700,5.717313720703125,0.7377954125404358,-0.4270823895931244,0.6128537654876709
1772525990548296700,5.727296630859375,0.6911400556564331,-0.4770054817199707,0.5757367610931396
1772525990558280400,5.737280517578125,0.6310535073280334,-0.48747995495796204,0.5056540966033936
1772525990568263400,5.747263427734375,0.5771269798278809,-0.4522216022014618,0.4265446662902832
1772525990578247400,5.757247314453125,0.5319666862487793,-0.37116244435310364,0.3458881974220276
1772525990588230700,5.767230712890625,0.4948660731315613,-0.2286938577890396,0.26948481798171997
1772525990598213600,5.777213623046875,0.4593358039855957,-0.0473799966275692,0.2012125551700592
1772525990608197600,5.78719775390625,0.43264880776405334,0.1496431529521942,0.1372692734003067
1772525990618180600,5.7971806640625,0.4138178527355194,0.3123239576816559,0.07510709762573242
1772525990628164600,5.80716455078125,0.4114522635936737,0.3912520110607147,0.016191372647881508
1772525990638147600,5.817147705078125,0.4209405481815338,0.39225709438323975,-0.03736612945795059
1772525990648130600,5.827130615234375,0.42194610834121704,0.3233972489833832,-0.071157306432724
1772525990658114600,5.837114501953125,0.42638131976127625,0.21616590023040771,-0.08685477077960968
1772525990668097500,5.84709765625,0.43640393018722534,0.1068885549902916,-0.06919890642166138
1772525990678080500,5.85708056640625,0.450663298368454,0.03319329395890236,-0.013518869876861572
1772525990688064500,5.867064453125,0.4732842743396759,-0.007548307999968529,0.06538775563240051
1772525990698047700,5.8770478515625,0.5086566805839539,0.01242460124194622,0.15646199882030487
1772525990708031700,5.88703173828125,0.5555092096328735,0.07810637354850769,0.23862595856189728
1772525990718014500,5.897014404296875,0.6104369163513184,0.170262411236763,0.29440930485725403
1772525990727997400,5.90699755859375,0.6560226082801819,0.2316993623971939,0.30804458260536194
1772525990737981400,5.9169814453125,0.6917390823364258,0.2595547139644623,0.27292653918266296
1772525990747964700,5.926964599609375,0.7107948660850525,0.27813005447387695,0.2156992256641388
1772525990757947600,5.93694775390625,0.718238890171051,0.2956560552120209,0.1548505276441574
1772525990767931600,5.946931640625,0.7183494567871094,0.2793247401714325,0.08816098421812057
1772525990777914600,5.95691455078125,0.711371660232544,0.2119600772857666,0.02566804178059101
1772525990787898600,5.966898681640625,0.663174569606781,0.09575721621513367,-0.05066053569316864
1772525990797881600,5.976881591796875,0.6095627546310425,-0.03340236842632294,-0.1167503371834755
1772525990807864600,5.986864501953125,0.5337218046188354,-0.13626527786254883,-0.16741833090782166
1772525990817848600,5.9968486328125,0.4561154246330261,-0.25600606203079224,-0.21065634489059448
1772525990827831600,6.00683154296875,0.39329472184181213,-0.35821694135665894,-0.24395324289798737
1772525990837815600,6.016815673828125,0.3435359299182892,-0.4336200952529907,-0.26263612508773804
1772525990847798500,6.026798583984375,0.31067922711372375,-0.45203736424446106,-0.27121174335479736
1772525990857781800,6.03678173828125,0.29443687200546265,-0.4289482831954956,-0.2650529146194458
1772525990867765800,6.046765869140625,0.2903522849082947,-0.3709281086921692,-0.24336129426956177
1772525990877748500,6.05674853515625,0.3003881275653839,-0.29188814759254456,-0.20905658602714539
1772525990887731500,6.0667314453125,0.32159143686294556,-0.1834988296031952,-0.1621745228767395
1772525990897715500,6.076715576171875,0.34015020728111267,-0.05978221818804741,-0.11485440284013748
1772525990907698700,6.08669873046875,0.34794944524765015,0.04950284585356712,-0.08591889590024948
1772525990917682700,6.0966826171875,0.3438447117805481,0.13666118681430817,-0.07660528272390366
1772525990927665400,6.10666552734375,0.34256717562675476,0.20801863074302673,-0.0795755460858345
1772525990937648600,6.116648681640625,0.3314308822154999,0.26004883646965027,-0.0865519568324089
1772525990947632600,6.126632568359375,0.31710177659988403,0.28011593222618103,-0.09504396468400955
1772525990957615600,6.13661572265625,0.2946595847606659,0.2768988311290741,-0.10476024448871613
1772525990967598600,6.1465986328125,0.26620450615882874,0.24781353771686554,-0.10421864688396454
1772525990977582600,6.15658251953125,0.24059662222862244,0.1948493868112564,-0.10112405568361282
1772525990987565600,6.166565673828125,0.20928922295570374,0.13003979623317719,-0.09514614939689636
1772525990997549600,6.176549560546875,0.19068171083927155,0.07580052316188812,-0.09459860622882843
1772525991007532500,6.186532470703125,0.17721347510814667,0.03481299802660942,-0.09676545858383179
1772525991017515800,6.196515869140625,0.17436468601226807,0.003834840841591358,-0.09865337610244751
1772525991027499800,6.206499755859375,0.17044797539710999,-0.028841346502304077,-0.10184916853904724
1772525991037482500,6.216482421875,0.16407983005046844,-0.05624687299132347,-0.09758438169956207
1772525991047466500,6.226466552734375,0.14997243881225586,-0.0994412750005722,-0.08061053603887558
1772525991057449500,6.236449462890625,0.13348987698554993,-0.15183444321155548,-0.06254605203866959
1772525991067432700,6.2464326171875,0.1198204830288887,-0.20871710777282715,-0.03822758048772812
1772525991077416700,6.256416748046875,0.10167557001113892,-0.26358380913734436,-0.005160976201295853
1772525991087399400,6.2663994140625,0.0792069286108017,-0.3141716718673706,0.014058979228138924
1772525991097382700,6.276382568359375,0.057039037346839905,-0.3659816086292267,0.031705085188150406
1772525991107366700,6.28636669921875,0.027769038453698158,-0.41766664385795593,0.0421137809753418
1772525991117349600,6.296349609375,-0.00008977064862847328,-0.45085716247558594,0.05809484422206879
1772525991127333600,6.306333740234375,-0.03972896561026573,-0.42691564559936523,0.07306164503097534
1772525991137316400,6.31631640625,-0.07803454250097275,-0.3814608156681061,0.10021975636482239
1772525991147299600,6.326299560546875,-0.10710924863815308,-0.31949833035469055,0.14102308452129364
1772525991157283600,6.33628369140625,-0.12012624740600586,-0.25982168316841125,0.17778481543064117
1772525991167266600,6.3462666015625,-0.11919910460710526,-0.22777047753334045,0.19553369283676147
1772525991177249800,6.356249755859375,-0.1105819121003151,-0.222015380859375,0.18180936574935913
1772525991187233800,6.36623388671875,-0.10596027225255966,-0.24391110241413116,0.13041365146636963
1772525991197216500,6.376216552734375,-0.11542727798223495,-0.2722359299659729,0.07047442346811295
1772525991207200500,6.386200439453125,-0.12107904255390167,-0.29789629578590393,0.011247321031987667
1772525991217183500,6.39618359375,-0.1370132714509964,-0.39254558086395264,-0.056714415550231934
1772525991227166700,6.406166748046875,-0.16789722442626953,-0.47603386640548706,-0.12447106093168259
1772525991237150700,6.416150634765625,-0.20117530226707458,-0.475297749042511,-0.18856190145015717
1772525991247133400,6.426133544921875,-0.22355082631111145,-0.4096642732620239,-0.24788981676101685
1772525991257117400,6.436117431640625,-0.23771324753761292,-0.33884602785110474,-0.29864275455474854
1772525991267100700,6.4461005859375,-0.26619210839271545,-0.25867995619773865,-0.3381957709789276
1772525991277083600,6.456083740234375,-0.3038095235824585,-0.14096026122570038,-0.3520956039428711
1772525991287067600,6.466067626953125,-0.33708563446998596,0.020132439211010933,-0.33763647079467773
1772525991297050400,6.47605029296875,-0.35155218839645386,0.19542862474918365,-0.2942487597465515
1772525991307033600,6.48603369140625,-0.32865700125694275,0.3517017662525177,-0.2304190695285797
1772525991317017600,6.496017578125,-0.2747703194618225,0.46960070729255676,-0.15679731965065002
1772525991327000600,6.50600048828125,-0.19823764264583588,0.5237153768539429,-0.08602345734834671
1772525991336984600,6.515984619140625,-0.10751838982105255,0.5122688412666321,-0.017694203183054924
1772525991346967300,6.52596728515625,-0.011417431756854057,0.45553430914878845,0.04981984198093414
1772525991356950300,6.5359501953125,0.06801880896091461,0.3778049051761627,0.12035206705331802
1772525991366934300,6.545934326171875,0.12414383888244629,0.297481507062912,0.1923608034849167
1772525991376917200,6.555917236328125,0.15070781111717224,0.21825990080833435,0.26004159450531006
1772525991386900200,6.565900146484375,0.17057767510414124,0.1757964789867401,0.3291943669319153
1772525991396884200,6.57588427734375,0.19835497438907623,0.15339769423007965,0.3832962214946747
1772525991406867200,6.5858671875,0.2166501134634018,0.1469392627477646,0.4171885550022125
1772525991416851200,6.595851318359375,0.2331787496805191,0.13067187368869781,0.41996169090270996
1772525991426834200,6.605834228515625,0.2403133660554886,0.12230715900659561,0.39348986744880676
1772525991436817200,6.615817138671875,0.24552063643932343,0.11178074777126312,0.3466179668903351
1772525991446801200,6.62580126953125,0.24357324838638306,0.08597829937934875,0.28217634558677673
1772525991456784100,6.6357841796875,0.23169103264808655,0.03108389303088188,0.20605655014514923
1772525991466767400,6.645767333984375,0.20567326247692108,-0.05848425254225731,0.11719681322574615
1772525991476751000,6.655751220703125,0.1611981987953186,-0.19749993085861206,0.02216670662164688
1772525991486734000,6.665734130859375,0.0993729829788208,-0.3479076325893402,-0.06094905734062195
1772525991496718000,6.675718017578125,0.02572619542479515,-0.44111669063568115,-0.11999320238828659
1772525991506701300,6.685701416015625,-0.05618341639637947,-0.47112327814102173,-0.1639782339334488
1772525991516684300,6.695684326171875,-0.1390138417482376,-0.43133804202079773,-0.17607936263084412
1772525991526668300,6.705668212890625,-0.21752408146858215,-0.32257455587387085,-0.1827627718448639
1772525991536651000,6.715651123046875,-0.2766611874103546,-0.18217618763446808,-0.1789696365594864
1772525991546634200,6.72563427734375,-0.3164507746696472,-0.03487333655357361,-0.18244290351867676
1772525991556618200,6.7356181640625,-0.3302755057811737,0.07643347978591919,-0.20162644982337952
1772525991566601200,6.745601318359375,-0.3255428969860077,0.15710625052452087,-0.2275867760181427
1772525991576585200,6.755585205078125,-0.30580592155456543,0.2264011651277542,-0.23848070204257965
1772525991586568200,6.765568115234375,-0.2744920253753662,0.30443963408470154,-0.23617994785308838
1772525991596551200,6.77555126953125,-0.23583972454071045,0.38210806250572205,-0.2224675863981247
1772525991606535200,6.78553515625,-0.17738217115402222,0.4049260914325714,-0.21250659227371216
1772525991616518100,6.79551806640625,-0.10744783282279968,0.3501209020614624,-0.20337381958961487
1772525991626501400,6.80550146484375,-0.027019204571843147,0.2497297078371048,-0.18686264753341675
1772525991636485000,6.815485107421875,0.039376065135002136,0.12883737683296204,-0.135043665766716
1772525991646468000,6.825468017578125,0.0843873918056488,0.007795760408043861,-0.05920157581567764
1772525991656452000,6.8354521484375,0.10928688198328018,-0.10083884000778198,0.01953078806400299
1772525991666435300,6.845435302734375,0.11932123452425003,-0.18174393475055695,0.07396894693374634
1772525991676418300,6.855418212890625,0.12424088269472122,-0.22371907532215118,0.11585035175085068
1772525991686402300,6.86540234375,0.12698768079280853,-0.20669987797737122,0.1363265961408615
1772525991696385000,6.875385009765625,0.13285303115844727,-0.17926372587680817,0.13227006793022156
1772525991706369300,6.885369384765625,0.14073596894741058,-0.1342170685529709,0.11629747599363327
1772525991716352300,6.895352294921875,0.14837178587913513,-0.06363131105899811,0.09231065213680267
1772525991726335200,6.905335205078125,0.14943918585777283,-0.008515154011547565,0.06676376610994339
1772525991736319200,6.9153193359375,0.15422968566417694,0.023355960845947266,0.0388658232986927
1772525991746302200,6.92530224609375,0.1615709364414215,0.04522594064474106,0.02604544907808304
1772525991756285200,6.93528515625,0.1663782149553299,0.05380025506019592,0.021955100819468498
1772525991766269200,6.945269287109375,0.1592838168144226,0.0714256688952446,0.033880773931741714
1772525991776252200,6.955252197265625,0.138892263174057,0.09012318402528763,0.0495111346244812
1772525991786235100,6.965235107421875,0.11358176171779633,0.11434563994407654,0.07434556633234024
1772525991796219100,6.97521923828125,0.09498943388462067,0.14437730610370636,0.1064465120434761
1772525991806202000,6.9852021484375,0.08908288925886154,0.16988398134708405,0.15316878259181976
1772525991816186000,6.99518603515625,0.09931182116270065,0.22527585923671722,0.218360036611557
1772525991826169300,7.00516943359375,0.1068381741642952,0.25861483812332153,0.26125916838645935
1772525991836152300,7.01515234375,0.11660291999578476,0.20221254229545593,0.2830621898174286
1772525991846136000,7.025135986328125,0.14628838002681732,0.1240009069442749,0.29349952936172485
1772525991856119000,7.035119140625,0.2150072604417801,0.05341516062617302,0.3214757740497589
1772525991866102300,7.045102294921875,0.3021075427532196,-0.04575536400079727,0.3763850927352905
1772525991876086300,7.055086181640625,0.3801131248474121,-0.11881785839796066,0.4397052228450775
1772525991886069200,7.0650693359375,0.4685461223125458,-0.11423057317733765,0.5249963998794556
1772525991896053200,7.07505322265625,0.5398226976394653,-0.0891859382390976,0.591242790222168
1772525991906036200,7.0850361328125,0.5685125589370728,-0.09109459817409515,0.6033481359481812
1772525991916019200,7.095019287109375,0.5488216280937195,-0.11181905120611191,0.5624281764030457
1772525991926003200,7.105003173828125,0.49489444494247437,-0.14154024422168732,0.4809931218624115
1772525991935986200,7.114986083984375,0.42976152896881104,-0.16079357266426086,0.37504324316978455
1772525991945969200,7.12496923828125,0.3683232367038727,-0.16920094192028046,0.26144856214523315
1772525991955953200,7.134953125,0.31396225094795227,-0.173121377825737,0.1341332197189331
1772525991965936000,7.14493603515625,0.2558164894580841,-0.14629679918289185,0.006057870574295521
1772525991975920000,7.154920166015625,0.1949445903301239,-0.10553044825792313,-0.11873838305473328
1772525991985903400,7.1649033203125,0.15055380761623383,-0.0596160925924778,-0.1951708197593689
1772525991995886000,7.174885986328125,0.12956862151622772,-0.00024038483388721943,-0.20525142550468445
1772525992005870000,7.1848701171875,0.12225308269262314,0.052692294120788574,-0.16623838245868683
1772525992015853000,7.19485302734375,0.1233694776892662,0.08217934519052505,-0.10708771646022797
1772525992025836300,7.204836181640625,0.12116706371307373,0.11400961130857468,-0.05896804854273796
1772525992035820300,7.2148203125,0.11843732744455338,0.16679266095161438,-0.021332785487174988
1772525992045803300,7.22480322265625,0.12214622646570206,0.2517143189907074,0.008815841749310493
1772525992055787300,7.234787353515625,0.1497613489627838,0.3592839241027832,0.03382958471775055
1772525992065770200,7.244770263671875,0.19557692110538483,0.4731896221637726,0.05561193823814392
1772525992075753200,7.254753173828125,0.2597910761833191,0.5614664554595947,0.07836199551820755
1772525992085737200,7.2647373046875,0.31638315320014954,0.629253089427948,0.09000687301158905
1772525992095720200,7.27472021484375,0.3654308617115021,0.6819152235984802,0.08741854876279831
1772525992105703200,7.284703125,0.40967458486557007,0.7019085884094238,0.06731795519590378
1772525992115687200,7.294687255859375,0.4532529413700104,0.6850153803825378,0.03484230488538742
1772525992125670100,7.304670166015625,0.4893452525138855,0.6154382824897766,-0.0020706565119326115
1772525992135654100,7.314654052734375,0.5025720596313477,0.4742790162563324,-0.0422939769923687
1772525992145637400,7.324637451171875,0.4867156147956848,0.3022648096084595,-0.07178003340959549
1772525992155620000,7.3346201171875,0.44477829337120056,0.13930489122867584,-0.09383580088615417
1772525992165604000,7.34460400390625,0.38949403166770935,-0.0018026193138211966,-0.11264459788799286
1772525992175587000,7.354587158203125,0.3257507383823395,-0.1149134635925293,-0.13015781342983246
1772525992185570300,7.3645703125,0.2585465610027313,-0.1900775134563446,-0.14992722868919373
1772525992195554300,7.37455419921875,0.17629271745681763,-0.22346235811710358,-0.17828510701656342
1772525992205537300,7.384537353515625,0.08862562477588654,-0.2089967578649521,-0.2055872529745102
1772525992215520300,7.394520263671875,0.00878858007490635,-0.15155769884586334,-0.22278274595737457
1772525992225504300,7.404504150390625,-0.04997699335217476,-0.05514363572001457,-0.23249952495098114
1772525992235487200,7.4144873046875,-0.08248326927423477,0.06137978285551071,-0.2369704395532608
1772525992245471200,7.42447119140625,-0.09314607083797455,0.16562651097774506,-0.2361130267381668
1772525992255454200,7.4344541015625,-0.0656377449631691,0.2585894763469696,-0.2314375787973404
1772525992265437200,7.444437255859375,-0.024849360808730125,0.3291393518447876,-0.21623943746089935
1772525992275421200,7.454421142578125,0.02921174466609955,0.3845483064651489,-0.20685632526874542
1772525992285404200,7.464404052734375,0.08854324370622635,0.428642600774765,-0.19336245954036713
1772525992295388200,7.47438818359375,0.1381789892911911,0.45456287264823914,-0.19239653646945953
1772525992305371400,7.484371337890625,0.1709507703781128,0.4583550691604614,-0.19522137939929962
1772525992315354000,7.49435400390625,0.20292334258556366,0.4641631543636322,-0.20029497146606445
1772525992325338000,7.504338134765625,0.22729872167110443,0.48113423585891724,-0.21139638125896454
1772525992335321000,7.514321044921875,0.24234770238399506,0.49531930685043335,-0.2252727746963501
1772525992345304600,7.5243046875,0.25306424498558044,0.49257197976112366,-0.2432633936405182
1772525992355288600,7.53428857421875,0.25046607851982117,0.4302724003791809,-0.24935802817344666
1772525992365271600,7.544271484375,0.25051161646842957,0.35502514243125916,-0.23428545892238617
1772525992375254300,7.554254150390625,0.23777133226394653,0.28231602907180786,-0.1995842009782791
1772525992385238500,7.564238525390625,0.20587219297885895,0.21152158081531525,-0.14426465332508087
1772525992395221500,7.574221435546875,0.1685575693845749,0.12786662578582764,-0.08029445260763168
1772525992405205500,7.58420556640625,0.12162820249795914,0.05773085728287697,-0.017725199460983276
1772525992415188500,7.5941884765625,0.06502245366573334,0.01712723821401596,0.04598667100071907
1772525992425171500,7.60417138671875,-0.0015643751248717308,-0.010698514059185982,0.08633150160312653
1772525992435155500,7.614155517578125,-0.06579262763261795,-0.01579953357577324,0.10407853871583939
1772525992445138400,7.624138427734375,-0.13184621930122375,-0.014655075967311859,0.09927736967802048
1772525992455121400,7.634121337890625,-0.20047321915626526,0.005816909950226545,0.09443654119968414
1772525992465105400,7.64410546875,-0.2721013128757477,0.029318058863282204,0.08622509241104126
1772525992475088400,7.65408837890625,-0.34709540009498596,0.03553653880953789,0.08210305124521255
1772525992485071400,7.6640712890625,-0.41118261218070984,0.02149266004562378,0.08530887216329575
1772525992495055400,7.674055419921875,-0.46600407361984253,0.007319582626223564,0.11408831924200058
1772525992505038600,7.68403857421875,-0.5119715929031372,0.003008391708135605,0.15167051553726196
1772525992515022600,7.694022705078125,-0.5330340266227722,0.04708264395594597,0.19063441455364227
1772525992525005300,7.70400537109375,-0.5198859572410583,0.1370825618505478,0.21780627965927124
1772525992534988300,7.71398828125,-0.4878220856189728,0.14647473394870758,0.2283414900302887
1772525992544972500,7.72397265625,-0.48255178332328796,0.04111170023679733,0.208659365773201
1772525992554955500,7.73395556640625,-0.5312883853912354,-0.12153340876102448,0.16604134440422058
1772525992564938500,7.7439384765625,-0.6185822486877441,-0.2834705710411072,0.10424160212278366
1772525992574922500,7.753922607421875,-0.7057269811630249,-0.38989290595054626,0.026977702975273132
1772525992584905500,7.763905517578125,-0.7895649075508118,-0.45900246500968933,-0.05151001363992691
1772525992594889500,7.773889404296875,-0.8779312372207642,-0.47886937856674194,-0.12003954499959946
1772525992604872400,7.78387255859375,-0.9496873617172241,-0.4151515066623688,-0.15058791637420654
1772525992614855400,7.79385546875,-0.9698094129562378,-0.2807478904724121,-0.14575214684009552
1772525992624839400,7.80383935546875,-0.9307944178581238,-0.10361739248037338,-0.12457571923732758
1772525992634822400,7.813822509765625,-0.8197882771492004,0.07460720837116241,-0.09258663654327393
1772525992644805400,7.823805419921875,-0.6755744814872742,0.2181159406900406,-0.06764675676822662
1772525992654789400,7.833789306640625,-0.49930623173713684,0.34362539649009705,-0.02484123781323433
1772525992664772600,7.843772705078125,-0.3498181402683258,0.39263856410980225,0.022662533447146416
1772525992674755600,7.853755615234375,-0.2536942958831787,0.34829798340797424,0.0771327018737793
1772525992684739300,7.8637392578125,-0.20846296846866608,0.30578064918518066,0.13443617522716522
1772525992694722300,7.873722412109375,-0.18516883254051208,0.28171366453170776,0.17548826336860657
1772525992704706300,7.883706298828125,-0.1578248292207718,0.2275790274143219,0.18547990918159485
1772525992714689500,7.893689453125,-0.12392544001340866,0.1723240315914154,0.1758216917514801
1772525992724672500,7.903672607421875,-0.07217083871364594,0.16339261829853058,0.1679615080356598
1772525992734656500,7.913656494140625,-0.01943252608180046,0.1741826832294464,0.16148602962493896
1772525992744639500,7.923639404296875,0.027170613408088684,0.18019188940525055,0.15081599354743958
1772525992754622500,7.93362255859375,0.07350881397724152,0.19012095034122467,0.14015589654445648
1772525992764606500,7.9436064453125,0.12015478312969208,0.16346175968647003,0.13886946439743042
1772525992774589400,7.95358935546875,0.1490471512079239,0.05226121470332146,0.1479385942220688
1772525992784573400,7.963573486328125,0.1465984582901001,-0.0658455565571785,0.16814379394054413
1772525992794556400,7.973556396484375,0.11381600052118301,-0.15298126637935638,0.1904086172580719
1772525992804539400,7.983539306640625,0.05712262913584709,-0.2320266216993332,0.22792547941207886
1772525992814523400,7.9935234375,-0.01919610984623432,-0.29660189151763916,0.25446921586990356
1772525992824506600,8.003506591796874,-0.08295353502035141,-0.3263230621814728,0.2714924216270447
1772525992834489300,8.0134892578125,-0.13501673936843872,-0.31923532485961914,0.2706271708011627
1772525992844473300,8.023473388671874,-0.1576663851737976,-0.2833615243434906,0.2442072033882141
1772525992854456300,8.033456298828124,-0.16164514422416687,-0.23196570575237274,0.20421797037124634
1772525992864439600,8.043439453125,-0.14748546481132507,-0.16780897974967957,0.1604270339012146
1772525992874423600,8.053423583984374,-0.11755099892616272,-0.08598523586988449,0.11183978617191315
1772525992884406500,8.063406494140626,-0.07761279493570328,-0.011906268075108528,0.05578067898750305
1772525992894390300,8.073390380859376,-0.03632500767707825,0.05958682298660278,-0.008809762075543404
1772525992904373500,8.08337353515625,0.013517362996935844,0.14857850968837738,-0.07601816207170486
1772525992914356500,8.0933564453125,0.06838087737560272,0.2727622389793396,-0.13822375237941742
1772525992924340500,8.103340576171876,0.11835162341594696,0.34929290413856506,-0.17236392199993134
1772525992934323500,8.113323486328126,0.15306618809700012,0.32521551847457886,-0.18668054044246674
1772525992944306400,8.123306396484375,0.16868014633655548,0.25614267587661743,-0.17952179908752441
1772525992954290400,8.13329052734375,0.18491238355636597,0.2117653340101242,-0.1520041525363922
1772525992964273400,8.1432734375,0.19330336153507233,0.18224550783634186,-0.11253909021615982
1772525992974256600,8.153256591796875,0.20013836026191711,0.148574098944664,-0.06866670399904251
1772525992984240600,8.16324072265625,0.21146000921726227,0.12840832769870758,-0.025532737374305725
1772525992994223400,8.173223388671875,0.2222069352865219,0.09615879505872726,0.01745760440826416
1772525993004207400,8.183207275390625,0.22603735327720642,0.032191626727581024,0.044021546840667725
1772525993014190300,8.1931904296875,0.2291971892118454,-0.03142516687512398,0.06450311839580536
1772525993024173600,8.203173583984375,0.2241218090057373,-0.08399678021669388,0.07673174887895584
1772525993034157600,8.213157470703125,0.2298571914434433,-0.11709002405405045,0.0875934511423111
1772525993044140300,8.223140380859375,0.22840577363967896,-0.11862914264202118,0.09901320189237595
1772525993054123500,8.23312353515625,0.22003625333309174,-0.10751896351575851,0.08932462334632874
1772525993064107500,8.243107421875,0.19407141208648682,-0.0816897302865982,0.05756712704896927
1772525993074090500,8.253090576171875,0.1706952601671219,-0.05712899565696716,0.01925116404891014
1772525993084073500,8.263073486328125,0.1491367220878601,-0.02724596858024597,-0.0160638689994812
1772525993094057500,8.273057373046875,0.11846188455820084,-0.008326872251927853,-0.043939441442489624
1772525993104040400,8.28304052734375,0.09325353801250458,0.0033247503452003,-0.060483161360025406
1772525993114024400,8.2930244140625,0.0697101280093193,-0.0001903558149933815,-0.06416337937116623
1772525993124007400,8.30300732421875,0.058210164308547974,0.006678144447505474,-0.0631798654794693
1772525993133990400,8.312990478515625,0.052267853170633316,0.0310540571808815,-0.0647953450679779
1772525993143974700,8.322974609375,0.05962342768907547,0.0865342766046524,-0.07415997982025146
1772525993153957400,8.332957275390624,0.0793241634964943,0.16842220723628998,-0.07969296723604202
1772525993163940400,8.3429404296875,0.09290289133787155,0.23739056289196014,-0.07768746465444565
1772525993173924400,8.35292431640625,0.09475698322057724,0.2679370045661926,-0.05464979261159897
1772525993183907600,8.362907470703124,0.10865720361471176,0.2832191288471222,-0.005971265025436878
1772525993193890600,8.372890625,0.13652291893959045,0.27981001138687134,0.0585067942738533
1772525993203874300,8.382874267578124,0.1889783889055252,0.21624304354190826,0.12329307198524475
1772525993213857500,8.392857421875,0.24769017100334167,0.11893512308597565,0.18052254617214203
1772525993223840500,8.402840576171876,0.3141820728778839,0.04404401406645775,0.2234707772731781
1772525993233824500,8.412824462890624,0.37698209285736084,0.010111614130437374,0.2530566453933716
1772525993243807500,8.422807373046876,0.44763070344924927,-0.00831503514200449,0.2587621808052063
1772525993253791500,8.43279150390625,0.5121273994445801,-0.0797378197312355,0.24064947664737701
1772525993263774500,8.4427744140625,0.5485929846763611,-0.125565767288208,0.19725993275642395
1772525993273757400,8.45275732421875,0.5592067837715149,-0.08813902735710144,0.15738841891288757
1772525993283741400,8.462741455078126,0.5438918471336365,-0.010097009129822254,0.12941350042819977
1772525993293724400,8.472724365234376,0.5210104584693909,0.05134371295571327,0.1132502481341362
1772525993303707400,8.482707275390625,0.4815840721130371,0.10227477550506592,0.10940633714199066
1772525993313691400,8.49269140625,0.42187678813934326,0.13374587893486023,0.1172136664390564
1772525993323674400,8.50267431640625,0.3646892011165619,0.15532992780208588,0.12237101048231125
1772525993333658400,8.512658447265625,0.32310768961906433,0.17748317122459412,0.12188391387462616
1772525993343641600,8.5226416015625,0.3073878586292267,0.1586836874485016,0.10230937600135803
1772525993353625000,8.532625,0.30326181650161743,0.10797257721424103,0.059439145028591156
1772525993363609000,8.542609130859375,0.31552886962890625,0.06505665183067322,0.011044514365494251
1772525993373592000,8.552592041015625,0.3278595507144928,0.019682245329022408,-0.02593747340142727
1772525993383575000,8.562574951171875,0.3324670195579529,-0.029187073931097984,-0.051011376082897186
1772525993393559000,8.57255908203125,0.33174076676368713,-0.05695612356066704,-0.06562387198209763
1772525993403542000,8.5825419921875,0.32881492376327515,-0.06898681074380875,-0.07776269316673279
1772525993413525000,8.59252490234375,0.33079418540000916,-0.06555958837270737,-0.07573016732931137
1772525993423509200,8.60250927734375,0.3532826602458954,-0.051775895059108734,-0.05763090029358864
1772525993433492200,8.6124921875,0.37161585688591003,-0.030043169856071472,-0.03476153686642647
1772525993443475000,8.622474853515625,0.3919456899166107,0.03945157304406166,0.007176756858825684
1772525993453459000,8.632458984375,0.42479923367500305,0.1598469465970993,0.07851725071668625
1772525993463442200,8.642442138671875,0.4678300619125366,0.2715635895729065,0.16296230256557465
1772525993473426200,8.65242626953125,0.5188913345336914,0.37372589111328125,0.24544839560985565
1772525993483409200,8.6624091796875,0.5687113404273987,0.43397626280784607,0.31758251786231995
1772525993493392000,8.672391845703125,0.6137584447860718,0.4634428024291992,0.37535661458969116
1772525993503376100,8.682376220703125,0.6399936676025391,0.44139474630355835,0.40525880455970764
1772525993513359000,8.692359130859375,0.6602967977523804,0.3582172989845276,0.4176526367664337
1772525993523342000,8.702342041015624,0.6752039790153503,0.2259036749601364,0.41327494382858276
1772525993533326000,8.712326171875,0.6832525730133057,0.09560425579547882,0.39057043194770813
1772525993543309000,8.72230908203125,0.6856527924537659,-0.011717244982719421,0.3448178172111511
1772525993553292000,8.7322919921875,0.6955466866493225,-0.12522302567958832,0.2935085594654083
1772525993563276000,8.742276123046874,0.7140387892723083,-0.2404302954673767,0.24006226658821106
1772525993573259000,8.752259033203124,0.7147881984710693,-0.3503434658050537,0.1698637455701828
1772525993583242200,8.7622421875,0.6941384673118591,-0.40950125455856323,0.0830363854765892
1772525993593226200,8.772226318359374,0.6575868725776672,-0.4249798059463501,-0.019534727558493614
1772525993603209000,8.782208984375,0.6123331189155579,-0.461745023727417,-0.10638582706451416
1772525993613193000,8.79219287109375,0.5605815052986145,-0.517704427242279,-0.18216660618782043
1772525993623176200,8.80217626953125,0.5012664198875427,-0.5243141055107117,-0.23824729025363922
1772525993633159200,8.8121591796875,0.4548614025115967,-0.5012205243110657,-0.25957173109054565
1772525993643143200,8.82214306640625,0.4212529957294464,-0.43023601174354553,-0.25027334690093994
1772525993653126000,8.8321259765625,0.4060857594013214,-0.31252321600914,-0.2062496840953827
1772525993663109000,8.842109130859376,0.40760454535484314,-0.13497453927993774,-0.1435689926147461
1772525993673093000,8.852093017578126,0.43215125799179077,0.07516926527023315,-0.07148366421461105
1772525993683076000,8.862076171875,0.4720686674118042,0.27378880977630615,-0.011220045387744904
1772525993693059000,8.87205908203125,0.5099300146102905,0.41329425573349,0.025718798860907555
1772525993703043000,8.88204296875,0.5312559008598328,0.47560882568359375,0.02778468281030655
1772525993713026000,8.892026123046875,0.5457959771156311,0.5011967420578003,0.014236649498343468
1772525993723009000,8.902009033203125,0.5565885901451111,0.4887029826641083,-0.010552922263741493
1772525993732993000,8.911992919921875,0.554636538028717,0.47376105189323425,-0.03497117757797241
1772525993742976300,8.921976318359375,0.534916877746582,0.45273593068122864,-0.07058323174715042
1772525993752960000,8.9319599609375,0.49890345335006714,0.4863128066062927,-0.11940589547157288
1772525993762943000,8.94194287109375,0.48062774538993835,0.5449075102806091,-0.1776796281337738
1772525993772926200,8.95192626953125,0.44121479988098145,0.5628097653388977,-0.24907205998897552
1772525993782910200,8.96191015625,0.39712098240852356,0.545748233795166,-0.3309742510318756
1772525993792893200,8.97189306640625,0.3810485601425171,0.5472662448883057,-0.3770277798175812
1772525993802876000,8.9818759765625,0.27482011914253235,0.39906060695648193,-0.24702088534832
1772525993812860000,8.99185986328125,0.12562346458435059,0.06321842223405838,-0.19201543927192688
1772525993822843100,9.001843017578125,0.06472717225551605,-0.1999407857656479,-0.16433756053447723
1772525993832826000,9.011826171875,0.10054722428321838,-0.38826674222946167,-0.16683053970336914
1772525993842810000,9.02181005859375,0.13097314536571503,-0.45164746046066284,-0.1947062462568283
1772525993852793000,9.03179296875,0.12065152823925018,-0.40751275420188904,-0.28617730736732483
1772525993862776000,9.041776123046875,0.15136025846004486,-0.22772864997386932,-0.3846183121204376
1772525993872760000,9.051760009765625,0.14338329434394836,0.017939437180757523,-0.3642062544822693
1772525993882743000,9.061742919921874,0.07527045160531998,0.25740259885787964,-0.27939456701278687
