time,seconds_elapsed,z,y,x
1772525847526487800,0.08748779296875,-0.6067500881075859,-0.13886121207103133,-0.28974516263008115
1772525847536471800,0.097471923828125,-0.5989046353042126,-0.049311892315465955,-0.3815957633316517
1772525847546454800,0.107454833984375,-0.3952928647726774,-0.014416940148174762,-0.30581425389945505
1772525847556437800,0.117437744140625,-0.09980594362020492,0.031313771495560645,-0.1040028107881546
1772525847566421800,0.127421875,0.1461257962465286,0.14144609573138878,0.06663607994616032
1772525847576404700,0.13740478515625,0.3369517349630594,0.19452170622823758,0.18426935667991637
1772525847586388000,0.147387939453125,0.45785833427906036,0.1782667187316343,0.2800543742209673
1772525847596371000,0.157370849609375,0.44367549514770505,0.1484536729385145,0.28915654908716676
1772525847606354700,0.167354736328125,0.33131577490270137,0.13007292545959354,0.23380057256817816
1772525847616337700,0.177337646484375,0.19932488699257372,0.12449376448723487,0.1153922198086977
1772525847626321000,0.18732080078125,0.05677402662336826,0.09175441031809896,0.012078560328483581
1772525847636305000,0.197304931640625,-0.024341245052218435,0.058110316728428,-0.0704009854376316
1772525847646288000,0.207287841796875,-0.035813656181097026,0.050205247258883895,-0.089458737128973
1772525847656270800,0.217270751953125,-0.05375146393179893,0.023840611186856403,-0.045643560799956316
1772525847666253800,0.22725390625,-0.05225041171908378,-0.01694583072141977,-0.042832010510563845
1772525847676237800,0.23723779296875,-0.06171499015688896,-0.05021590108363889,-0.09009411242306233
1772525847686220800,0.247220703125,-0.07946867351233959,-0.07938180807963945,-0.10252280136346817
1772525847696203800,0.257203857421875,-0.12078209615349769,-0.09891672142921015,-0.0928314284324646
1772525847706187800,0.267187744140625,-0.14240472989678382,-0.08593964135842397,-0.07420856102705001
1772525847716170800,0.277170654296875,-0.1392325296014547,-0.0044348931579268535,-0.03655658350288868
1772525847726153700,0.28715380859375,-0.10067746575772761,0.03608747957024024,0.05095160408020019
1772525847736137000,0.297136962890625,-0.07797171295285224,0.03401193823808571,0.14184651149213312
1772525847746121000,0.307120849609375,-0.06230009656846523,0.10544018664751201,0.13682780654728413
1772525847756103700,0.317103759765625,-0.052882864403724666,0.141846977283014,0.08075228358209133
1772525847766087000,0.3270869140625,-0.013947861331701278,0.11604905801592394,0.05437514878809452
1772525847776071000,0.33707080078125,-0.0060725979119539255,0.0024968994162278247,0.07570552158653736
1772525847786054000,0.347053955078125,-0.032900983604788776,-0.06175621721642092,0.061946460825204844
1772525847796036600,0.35703662109375,-0.07109247483313083,-0.012005157165555282,-0.004561024305224418
1772525847806019800,0.367019775390625,-0.10385258866250514,0.02654484691056423,-0.024518939706683156
1772525847816003800,0.37700390625,-0.12179741067588329,0.019604352723434568,-0.03523322594463825
1772525847825986800,0.38698681640625,-0.1696159774273634,0.05144357971507124,-0.030954525712132454
1772525847835970000,0.396969970703125,-0.2309802544504404,0.17258094644648952,-0.0485503881573677
1772525847845954000,0.4069541015625,-0.21785013924241065,0.24842755700414998,-0.07128302896916866
1772525847855936800,0.416936767578125,-0.13734218581020832,0.2388281549392268,-0.049015083059668535
1772525847865919700,0.426919677734375,-0.045755204480886456,0.18068499538712202,0.03469721937179565
1772525847875903000,0.436903076171875,0.042536242434382435,0.08695902926772832,0.08690963716804981
1772525847885887000,0.446886962890625,0.09616086511611938,0.015045538641605525,0.09435644604265689
1772525847895869700,0.45686962890625,0.13191080841124056,0.06886385726453736,0.07853694562017917
1772525847905852700,0.466852783203125,0.15852350552678107,0.1399214069147594,0.05538754070103168
1772525847915837000,0.4768369140625,0.1925724901229143,0.13558438235744832,0.04449731337428093
1772525847925820000,0.48681982421875,0.23483342274725436,0.0666886869162321,0.022995675662159917
1772525847935803000,0.496802978515625,0.19898294168710706,0.01421224788893014,-0.03690671211481094
1772525847945785900,0.506785888671875,0.13880758218765257,0.012852796103991567,-0.11633213100731372
1772525847955769900,0.516769775390625,0.09317746539115905,0.09808938549328595,-0.203168118417263
1772525847965752800,0.5267529296875,0.004075871136784553,0.21382541377097367,-0.16424889743626117
1772525847975735800,0.53673583984375,-0.12122983992099762,0.22826325057670474,-0.09298574221134186
1772525847985719800,0.5467197265625,-0.27959903166890143,0.1250790261624381,-0.04938800802528858
1772525847995702800,0.556702880859375,-0.42783202932775016,0.019400354583933948,-0.13004676810503005
1772525848005685800,0.566685791015625,-0.5629676450043917,0.014701967634633183,-0.2640887433260679
1772525848015669000,0.5766689453125,-0.7140840891450643,0.009233911487087607,-0.30742753431499004
1772525848025653000,0.586653076171875,-0.8163590532273054,-0.04362699681315571,-0.2619622526913881
1772525848035635700,0.5966357421875,-0.4987094001054764,-0.16721768411397933,-0.1400438459843397
1772525848045618700,0.60661865234375,0.38934769263267516,-0.6016359234316274,-0.12008242345154285
1772525848055602700,0.616602783203125,1.0024024338424204,-0.1744565127937123,0.08791092316508292
1772525848065586000,0.6265859375,0.97979955689013,0.009162490218691527,0.5923772793620824
1772525848075569000,0.63656884765625,0.5598761087298393,-0.34454525883197784,0.44505204419791694
1772525848085551600,0.646551513671875,-0.07065291437208653,-0.34651235765386373,-0.2023024414986372
1772525848095535900,0.656535888671875,-0.7102841123402118,-0.1209063801202923,-0.572916792088747
1772525848105518800,0.666518798828125,-1.1042816766053438,0.23803473953921347,-0.49568157671689983
1772525848115501800,0.676501708984375,-0.9066349519580602,0.11267105121649801,-0.4875847795009613
1772525848125485000,0.686485107421875,-0.28865619834959505,-0.1857952876055613,-0.5109440277785062
1772525848135468800,0.69646875,0.30730127758681774,-0.29019469649586827,-0.4043775039821863
1772525848145451800,0.70645166015625,0.7731985414147377,-0.35932127808351066,-0.3345709773063659
1772525848155434800,0.716434814453125,1.0937275493651628,-0.5370167362658307,-0.2732838571727276
1772525848165418800,0.726418701171875,1.185552431103587,-0.663278323276341,-0.14368833996653557
1772525848175402000,0.736402099609375,1.0080290415525435,-0.5811156979722902,-0.17522388043701648
1772525848185384700,0.746384765625,0.6397907724440097,-0.32645036082342266,-0.3238753957688808
1772525848195367000,0.756366943359375,0.23721301136016845,-0.04044814758133143,-0.37467327059209343
1772525848205351000,0.766350830078125,-0.08919102610349655,0.1664054178830236,-0.3333411432504654
1772525848215334000,0.776333984375,-0.21960721204280853,0.23342103519868104,-0.26716274394392964
1772525848225316900,0.78631689453125,-0.19484803383946417,0.2402741524964571,-0.21704934425354003
1772525848235300900,0.79630078125,-0.061792731568217275,0.18780914817862213,-0.20007307501137256
1772525848245283800,0.806283935546875,0.09855039060115814,0.1426853369364515,-0.18555472031533718
1772525848255266800,0.816266845703125,0.2290671143054962,0.07848773618359119,-0.15969664095938205
1772525848265249800,0.826249755859375,0.27050036393404003,-0.061485894108749925,-0.07138239769041538
1772525848275233800,0.83623388671875,0.2266004319310188,-0.20340247516240922,0.03561141160726547
1772525848285216800,0.846216796875,0.052964112946391105,-0.14257577561475335,0.18805939661264418
1772525848295199700,0.85619970703125,-0.19381927531361579,0.015204875655472279,0.3021265052974224
1772525848305184000,0.86618408203125,-0.3589285889714956,0.1581761533938348,0.36718729875087736
1772525848315166700,0.876166748046875,-0.38883389789164063,0.2621323485612869,0.3878828807771206
1772525848325149700,0.886149658203125,-0.2579886728852987,0.2710294658420607,0.39518355917930603
1772525848335133000,0.8961328125,-0.07870353435873985,0.23186456300429997,0.420254872071743
1772525848345117000,0.906116943359375,0.04620119468271732,0.12751366943083703,0.3970259721755981
1772525848355100000,0.916099853515625,0.11948621112406253,0.01964716895185411,0.27114392253458497
1772525848365082600,0.92608251953125,0.13462591258883475,-0.016309548961743713,0.13411211784780025
1772525848375067000,0.93606689453125,0.09421440722346305,-0.06602401246242225,0.08524842595756053
1772525848385049900,0.9460498046875,-0.02771335183382034,-0.045252369525283574,0.09992284799814223
1772525848395032800,0.95603271484375,-0.20357143852114676,0.04173033287897706,0.1472469092309475
1772525848405015800,0.966015869140625,-0.3829997849106788,0.14287556227892637,0.18151567405760288
1772525848414999800,0.975999755859375,-0.5806313119888306,0.24417919711098074,0.19567279422581194
1772525848424982800,0.985982666015625,-0.6951379811346531,0.2956503680858761,0.22186405105888843
1772525848434965800,0.9959658203125,-0.7603823144614696,0.2803468543615192,0.26226561955213545
1772525848444949800,1.00594970703125,-0.6959463749080896,0.2426653584819287,0.28384149154424665
1772525848454933000,1.01593310546875,-0.5093512056291103,0.19860694798156617,0.273393162766099
1772525848464915700,1.025915771484375,-0.3025426848828792,0.14980243893265724,0.21353344508707522
1772525848474898700,1.035898681640625,-0.14829963315427303,0.1261133011136204,0.18739771783351897
1772525848484883000,1.045883056640625,-0.050237318331003186,0.10084135108254849,0.15951310108602046
1772525848494866000,1.055865966796875,0.010180033230781555,0.08737579337507485,0.13345920689702034
1772525848504848600,1.0658486328125,-0.013403671452403067,0.14058182531856,0.1022159273713827
1772525848514832600,1.07583251953125,-0.10581190603673457,0.15108341865390537,0.08092413301765919
1772525848524816000,1.08581591796875,-0.16967092248499394,0.11818345796242355,0.016492577378451823
1772525848534798800,1.095798828125,-0.18314239847660063,0.07404825589880347,-0.07456716520637273
1772525848544781800,1.10578173828125,-0.1639163044810295,0.0431239791944623,-0.09220043705254792
1772525848554765800,1.115765869140625,-0.12761164991259574,0.029650165115296837,-0.05836567972898483
1772525848564748800,1.125748779296875,-0.06071370415985584,0.03411255135163665,-0.007020692417025565
1772525848574731800,1.135731689453125,0.039977790123224256,0.06823226309642196,0.03921031288206577
1772525848584715800,1.1457158203125,0.07459376095235347,0.07684563153237103,0.11403554450273513
1772525848594699000,1.155698974609375,0.06096154144108295,0.0859293939590454,0.15656155780404804
1772525848604681700,1.165681640625,0.021889760246872902,0.13669526620879768,0.15035744246691465
1772525848614664700,1.175664794921875,-0.005905424651503562,0.16338745830133555,0.0915764599353075
1772525848624648700,1.185648681640625,-0.04585691128969192,0.18673121674880383,0.045508243982493875
1772525848634632000,1.1956318359375,-0.014966098463535308,0.18377967346683144,-0.014310557164251803
1772525848644615000,1.205614990234375,0.08771919998526573,0.1725264580465853,-0.06621580870747566
1772525848654597600,1.21559765625,0.20378888066411016,0.15203838129118083,-0.08732026379555463
1772525848664582000,1.225581787109375,0.2827975354492664,0.10823927931413053,-0.02859013466835022
1772525848674564900,1.23556494140625,0.3093880207329988,0.06143836517259478,0.0024745734199881552
1772525848684547800,1.2455478515625,0.33326866253614423,0.0646918140105903,-0.010725392153859137
1772525848694531800,1.25553173828125,0.3506839077174663,0.11067176715806126,-0.03941314197778702
1772525848704514800,1.265514892578125,0.38368835169672966,0.20427403383255005,-0.049860593973100185
1772525848714497800,1.275497802734375,0.3704746498584747,0.25072175062224267,0.03472702998816967
1772525848724480800,1.285480712890625,0.3567074057906866,0.20196327267214656,0.10114186839908361
1772525848734464800,1.29546484375,0.3258943343758583,0.15459376486241816,0.0498182161360979
1772525848744447700,1.30544775390625,0.29592355900406836,0.13423779005408287,0.021987959924340248
1772525848754430700,1.3154306640625,0.22934710029065608,0.07962620216161012,0.043836803638935086
1772525848764414700,1.325414794921875,0.18829320536851882,0.03017126637995243,0.013985855254530905
1772525848774398000,1.33539794921875,0.14539105223119259,0.0431239791944623,-0.024203297886252403
1772525848784381000,1.345380859375,0.08314414715468883,0.046669981238245964,-0.0497115408912301
1772525848794363600,1.35536376953125,0.03990706297457218,0.04487403773218393,-0.061951429261267184
1772525848804347600,1.36534765625,0.009518938973546028,0.0846069131836295,-0.042673897339403626
1772525848814331000,1.375330810546875,0.00251227508187294,0.13014058386832475,0.005365618686378002
1772525848824313900,1.38531396484375,-0.01757423513531685,0.1393964879915118,0.0752805741727352
1772525848834297900,1.3952978515625,-0.030423779836297033,0.15175152717381715,0.15151450354754925
1772525848844280800,1.40528076171875,-0.004988894328474998,0.18895225379914043,0.18215104935169218
1772525848854263800,1.415263916015625,0.04148819468617439,0.228782159884274,0.20507658238708973
1772525848864246800,1.425246826171875,0.13208499593436718,0.2532569681882858,0.236676712526381
1772525848874230800,1.435230712890625,0.23921382978856562,0.2556701668098569,0.2439797290161252
1772525848884214000,1.445214111328125,0.33033144004046916,0.24575083034187553,0.21955080568045376
1772525848894196700,1.45519677734375,0.43150984105765816,0.2235913132429123,0.16041589514464138
1772525848904180700,1.4651806640625,0.44712183620929713,0.19164836101531982,0.13889584499299526
1772525848914163700,1.475163818359375,0.3865086698144674,0.1350946991443634,0.11068944894522428
1772525848924147000,1.48514697265625,0.26687515917420385,0.06487579227536916,0.02524608493745327
1772525848934129700,1.495129638671875,0.14431553195416927,0.032331074762344356,-0.08820259958803653
1772525848944113700,1.50511376953125,0.09201543587446212,0.05280599977523088,-0.19932634829729795
1772525848954097000,1.515096923828125,0.08252981464862823,0.08511427818387746,-0.2273895364820957
1772525848964079900,1.525079833984375,0.10504735140502452,0.06620791766196489,-0.12845832986980676
1772525848974063900,1.53506396484375,0.13542729209959506,0.03432400214523077,-0.018110533969104288
1772525848984046800,1.545046875,0.1844996583044529,0.028626082764565942,0.036954935170710086
1772525848994029800,1.55502978515625,0.2205582291573286,0.04269201751798391,0.08514876497536897
1772525849004012800,1.5650126953125,0.1969686792552471,0.030774200709164142,0.11708967137634753
1772525849013996800,1.574996826171875,0.1783329523682594,-0.010738251635432242,0.11440876172930002
1772525849023979800,1.584979736328125,0.15666998661458492,-0.021060031424462795,0.07595072851926088
1772525849033962800,1.594962646484375,0.12807634481489658,-0.01644698467105627,0.03728665134310722
1772525849043946800,1.60494677734375,0.09690086982846259,-0.033059973558783526,-0.010313304221630095
1772525849053929700,1.6149296875,0.032846623069047926,-0.03925152167528868,-0.029051614700257775
1772525849063913000,1.624912841796875,-0.033711130943894385,-0.04135317012965679,-0.0673576722189784
1772525849073896000,1.63489599609375,-0.043857261905074114,-0.0043152328506112095,-0.0917021321415901
1772525849083879700,1.644879638671875,-0.05938157877326011,0.015871230609714983,-0.09356880279630422
1772525849093862700,1.654862548828125,-0.057499418288469314,-0.010312135177850722,-0.08950199174880981
1772525849103846000,1.664845947265625,-0.04776362169384956,-0.061570905511081214,-0.1104094629600644
1772525849113830000,1.674829833984375,-0.01791442687511444,-0.08953238688707352,-0.15289426746815443
1772525849123812900,1.684812744140625,0.026619126856327054,-0.07296586748957634,-0.1871630322948098
1772525849133795800,1.6947958984375,0.08229951302409172,-0.04867898297309875,-0.17681757936924694
1772525849143778800,1.70477880859375,0.16232932755053042,-0.02253594919592142,-0.13091565989404916
1772525849153762800,1.7147626953125,0.20445406657457352,-0.01044336034208536,-0.07079378414750098
1772525849163745800,1.724745849609375,0.21385434760451316,-0.022691724279522894,-0.008608253869414328
1772525849173729000,1.73472900390625,0.20707038655281065,-0.01217091478705406,0.048397535683214664
1772525849183711700,1.744711669921875,0.19375147077441215,0.010343114838004111,0.09283493556380272
1772525849193696500,1.754696533203125,0.14734569343030451,0.02336772384494543,0.10514935047477483
1772525849203679500,1.764679443359375,0.11928221298456192,0.03450929558426141,0.08823796316236257
1772525849213662500,1.774662353515625,0.06541092206537723,0.05928542492240667,0.06229688169807195
1772525849223646500,1.784646484375,0.024687282010912893,0.08421265316903591,0.06531213786602019
1772525849233629400,1.79462939453125,-0.04533317967653274,0.07394961782991885,0.06717734721601008
1772525849243612400,1.8046123046875,-0.12743863143324852,0.07647095300108193,0.0443175728932023
1772525849253595400,1.814595458984375,-0.12988017936646937,0.0937266237065196,0.002994213379919529
1772525849263579400,1.824579345703125,-0.08918985705971717,0.1164203938126564,-0.033306349535286425
1772525849273562400,1.834562255859375,-0.01400046830177307,0.09685849199146032,-0.016217559829354286
1772525849283545600,1.844545654296875,0.041648938205838204,0.0752048785880208,0.03893120367974043
1772525849293529600,1.854529541015625,0.07433364871144295,0.06461246516406535,0.10438859523534774
1772525849303512300,1.86451220703125,0.09986264224350452,0.08826835830062628,0.15092267513424157
1772525849313495300,1.874495361328125,0.1047521678507328,0.10482406404316424,0.16933599144220352
1772525849323478500,1.884478515625,0.10213993952572345,0.10561989059597253,0.1255225686788559
1772525849333462500,1.894462646484375,0.06704641431272029,0.08109978184551,0.06948766998499631
1772525849343445500,1.904445556640625,0.04043897789418697,0.07284983989447355,0.024162673614919184
1772525849353428500,1.914428466796875,0.03062076371312141,0.08036562235206365,0.0056093643143773075
1772525849363412500,1.92441259765625,0.04736790037453174,0.0756996763676405,-0.03546908052712679
1772525849373395500,1.9343955078125,0.11277122365534305,0.04475830239802599,-0.061358139543235296
1772525849383378400,1.94437841796875,0.18928455449342727,0.019460195012390612,-0.07741846298426389
1772525849393361700,1.954361572265625,0.2196568964034319,-0.004945639708638191,-0.07652005283981561
1772525849403345400,1.964345458984375,0.19969956552386284,-0.03374649451822042,-0.03614946400672197
1772525849413328400,1.974328369140625,0.13593290353417395,-0.026557167536020276,0.003214578132331371
1772525849423311400,1.984311279296875,0.0627934330433607,-0.0016819617375731467,0.00621317542642355
1772525849433294600,1.994294677734375,0.02180091291964054,0.03767711196541786,-0.004092530010640621
1772525849443278600,2.004278564453125,0.01345803198814392,0.05753653542846441,0.02428396190702915
1772525849453261300,2.01426123046875,0.022944237735867498,0.04068038543462753,0.04370382490903139
1772525849463244500,2.02424462890625,0.05789280152022838,0.022960896609723568,0.05260638554990291
1772525849473228500,2.034228515625,0.10975976687967777,0.010120411998033523,0.03371493033617735
1772525849483211500,2.04421142578125,0.11726385889947413,-0.001120236201584339,0.023608546863496303
1772525849493194200,2.0541943359375,0.11619184575378894,-0.010954816995561122,0.027802199161052702
1772525849503177500,2.064177490234375,0.10734101530015468,0.003171615773439407,0.021411621341109275
1772525849513161500,2.074161376953125,0.09967501071691512,0.032435704180598254,0.01727086827456951
1772525849523144400,2.08414453125,0.09243395354747772,0.03923983123749494,0.011426233899593352
1772525849533127400,2.09412744140625,0.07639175028502941,0.04466448663473129,-0.014526245741546153
1772525849543111700,2.104111572265625,0.061012394845485686,0.018847031550109385,-0.052693479311466215
1772525849553094400,2.114094482421875,0.018691256466507912,-0.009522446104884147,-0.08537000651061534
1772525849563077400,2.124077392578125,-0.010605565166473388,-0.01447802268564701,-0.11319967820048332
1772525849573060600,2.134060546875,0.009116203391551971,0.027383973748981952,-0.11140636504292488
1772525849583044600,2.144044677734375,0.04257891253232956,0.05536006817221641,-0.06883154416382313
1772525849593027300,2.15402734375,0.07127192305326462,0.055019291910529136,0.0015898995399475098
1772525849603010300,2.16401025390625,0.08379705810546874,0.04909019412249326,0.060980538402497765
1772525849612994600,2.17399462890625,0.08704758433401584,0.041132513116300104,0.08723843073099852
1772525849622977500,2.1839775390625,0.10472937149703503,0.05289835423380136,0.089742230245471
1772525849632960500,2.19396044921875,0.11032558406889438,0.03269786224812269,0.0633186259612441
1772525849642943500,2.203943603515625,0.104621234947443,0.015913900707662104,0.019894494776427744
1772525849652927500,2.213927490234375,0.08396656945347786,-0.032116262967884536,-0.0010138532176613808
1772525849662910500,2.223910400390625,0.05971066459715366,-0.06087620124518871,-0.0123608844012022
1772525849672893400,2.2338935546875,0.03377835096120834,-0.0569336010992527,0.005458265405893325
1772525849682877400,2.24387744140625,0.008516483932733535,-0.030128888542950153,0.018735095608234404
1772525849692860400,2.2538603515625,-0.003988192853331566,0.004660100765526295,0.02937397852241993
1772525849702843400,2.263843505859375,-0.01613631128668785,0.016947919930517672,0.04131488394588232
1772525849712826400,2.273826416015625,-0.0044815293282270425,0.02325754146873951,0.04989829563498497
1772525849722810600,2.283810546875,0.014707739788293837,0.022485972574353218,0.05654109465032816
1772525849732793300,2.29379345703125,0.020787351962924003,0.029592005187273025,0.05782967315614223
1772525849742776300,2.3037763671875,-0.006851181069016456,0.0147682378038764,0.0483349918410182
1772525849752759600,2.313759521484375,-0.022847791624069212,0.0002808627679944038,0.05170417601317167
1772525849762743600,2.32374365234375,-0.040886721661686894,0.023931787468492983,0.06007336042970419
1772525849772726500,2.3337265625,-0.04827507834732532,0.05210924968272447,0.03131488345712423
1772525849782709200,2.343709228515625,-0.022989245921373365,0.07907529028058051,-0.009097498691082
1772525849792693500,2.353693603515625,0.0035492169141769407,0.0849888982385397,-0.049068859073519704
1772525849802676500,2.363676513671875,0.023446926560997963,0.07066460480988025,-0.07213204701393842
1772525849812659500,2.373659423828125,0.051285950601100916,0.03506517590135336,-0.0745662884235382
1772525849822642700,2.383642578125,0.07900047147870064,0.008745324252545834,-0.09765665663182735
1772525849832626400,2.39362646484375,0.10685177047848701,-0.018586919309198854,-0.12963994086980818
1772525849842609400,2.403609375,0.1447720435500145,-0.029190730910003182,-0.11317249793261289
1772525849852592400,2.41359228515625,0.1431330441713333,-0.016213175915181635,-0.07223609191030264
1772525849862576400,2.423576416015625,0.15249007058143615,-0.006559212385118007,-0.010651742395758628
1772525849872559600,2.4335595703125,0.16101181521117686,0.009333937795460224,0.03682312548458576
1772525849882542300,2.443542236328125,0.13285305769741534,0.030085341662168502,0.054253568235039705
1772525849892525300,2.453525390625,0.11388941403031348,0.021683424019813536,0.043778351449966425
1772525849902509600,2.463509521484375,0.10185586188733577,0.008498071493208408,0.02528875503540039
1772525849912492500,2.473492431640625,0.09403437448143959,-0.003732756787538528,-0.01353168174624443
1772525849922475300,2.483475341796875,0.10726970362961291,-0.029838965685665606,-0.052445057508349414
1772525849932459300,2.493459228515625,0.1085164888203144,-0.06174480077326298,-0.08183832525312901
1772525849942442500,2.5034423828125,0.11988953122794628,-0.07410510065257549,-0.0940486952677369
1772525849952425500,2.513425537109375,0.08888064498007298,-0.05856850882470607,-0.06607581571489572
1772525849962408400,2.523408447265625,0.061360185369849204,-0.003653261810541153,-0.006459259141981601
1772525849972392400,2.533392333984375,0.05216799413263797,0.03007540479004383,0.02124883199483156
1772525849982375400,2.54337548828125,0.05569090756177902,0.05202361722588539,0.03879296425282955
1772525849992358400,2.5533583984375,0.04795300678610801,0.06113835931271314,0.036569735245406625
1772525850002342400,2.56334228515625,0.04387655112743377,0.06649170303940773,0.05629121154248714
1772525850012325600,2.57332568359375,0.01868599576950073,0.05583148507624864,0.09769961899071931
1772525850022308400,2.583308349609375,-0.021301731225848195,0.04721797050982714,0.10606821888536214
1772525850032291300,2.593291259765625,-0.06053484046161174,0.054717386354506015,0.07877250794172287
1772525850042275300,2.603275390625,-0.07282207510471343,0.06381868443787098,0.021349662020802497
1772525850052258600,2.613258544921875,-0.06907353622615336,0.06314326939433813,-0.002477203768491745
1772525850062241500,2.623241455078125,-0.05257072971463203,0.04057663279920816,0.010201952801644801
1772525850072225300,2.633225341796875,-0.031983868759870526,0.023805823001265526,0.013389350666105746
1772525850082208500,2.64320849609375,0.0117944826900959,0.020228256775438783,0.01571019482910633
1772525850092191500,2.65319140625,0.01717033050954342,0.009040215545892715,0.026378596098721025
1772525850102174500,2.663174560546875,0.03679799104332924,0.01640168422460556,0.019054536820948122
1772525850112158500,2.673158447265625,0.03833879074454307,0.006217851601541042,0.019074410565197465
1772525850122141400,2.683141357421875,0.027953005808591842,0.0013818097472190856,0.042028000651299954
1772525850132124400,2.69312451171875,0.008255787169933318,-0.012522504703700543,0.07326718852370977
1772525850142107400,2.703107421875,-0.0064577978372573844,-0.00804740511626005,0.061305532573163506
1772525850152091400,2.71309130859375,0.003149403941631317,0.01356821436434984,0.038597441680729386
1772525850162074600,2.72307470703125,0.005458849927783012,0.033604455699026585,0.02267448088377714
1772525850172057300,2.733057373046875,0.05240764810740947,0.06830898159444332,0.038953123250603676
1772525850182041300,2.743041259765625,0.07613280708789825,0.0769365246862173,0.05305003766417503
1772525850192024300,2.7530244140625,0.07377718387246131,0.06973463048338889,0.019258827221393583
1772525850202007300,2.76300732421875,0.040709027007222176,0.04482230754494667,-0.03167962511628866
1772525850211990000,2.772989990234375,-0.004504910203814506,0.010922376030683517,-0.06483721383064985
1772525850221974000,2.78297412109375,-0.04558218600153923,0.013675766392052173,-0.09205635240674018
1772525850231957200,2.792957275390625,-0.049422494816780085,0.04278992493450642,-0.09609773675203323
1772525850241940200,2.802940185546875,-0.008515314888954162,0.0659068888887763,-0.04789455459713936
1772525850251924200,2.81292431640625,0.05010755447149277,0.060250178301334376,-0.002276420499384403
1772525850261907200,2.8229072265625,0.10565057799518107,0.03003361147493124,0.03819967453479767
1772525850271890200,2.83289013671875,0.15780688169002532,0.01852145285755396,0.059222588819265364
1772525850281873200,2.842873046875,0.16999708569943903,0.026220482927560806,0.05081219560950994
1772525850291857200,2.852857177734375,0.14086042306423185,0.022549685460329056,0.04666062888801097
1772525850301840400,2.86284033203125,0.11148118384480475,0.03285889802873134,0.051530280750989914
1772525850311823000,2.872822998046875,0.06561082855165004,0.04114975651204586,0.04235679421424866
1772525850321807000,2.88280712890625,0.014101006066799163,0.0454854476287961,0.03859247324466705
1772525850331790300,2.892790283203125,-0.017044073781371117,0.02959258970916271,0.01637801108807325
1772525850341773300,2.902773193359375,-0.018990531674027443,0.03783171800523996,0.004812076456844806
1772525850351756000,2.912756103515625,-0.002382511222362518,0.03321253377199173,0.024096330380439755
1772525850361740000,2.922739990234375,0.032932547786831856,0.040106384938955304,0.050960079647600645
1772525850371723300,2.93272314453125,0.0675689768821001,0.052389235667884344,0.07961042007058858
1772525850381706200,2.942706298828125,0.10891396370530128,0.061282151697576046,0.10232610974758863
1772525850391690200,2.952690185546875,0.11711831294894218,0.04704056811630725,0.11478577834814786
1772525850401673200,2.962673095703125,0.08298281911313533,0.026273089897632596,0.10199702392369508
1772525850411656200,2.97265625,0.041103579282760615,0.027543548224866387,0.052424306981265545
1772525850421639200,2.98263916015625,-0.011314005696773528,0.04187193330675363,-0.00006049801558256149
1772525850431623200,2.992623046875,-0.025317396607995032,0.04233312107771635,-0.028022563913464544
1772525850441606400,3.0026064453125,-0.008648585879802703,0.03293459361344576,-0.01072568441480398
1772525850451589000,3.012589111328125,0.015519640693068503,0.04708353047519922,-0.007828501668572425
1772525850461573000,3.022572998046875,0.055098202365636825,0.04264057959169149,-0.015438976672291755
1772525850471556000,3.03255615234375,0.06431552804410458,0.020060498993098735,-0.03175795104950666
1772525850481539300,3.042539306640625,0.08383739011585711,-0.00976063877493143,-0.05658318022638559
1772525850491522300,3.052522216796875,0.08840718224942684,0.0013794716596603393,-0.06561228985637425
1772525850501506000,3.062506103515625,0.119020931699872,0.0071729603692889205,-0.04992372233718633
1772525850511489300,3.0724892578125,0.1310159053981304,0.009406710770726204,-0.02049509101808071
1772525850521472300,3.08247216796875,0.1380441965997219,0.006802958013117313,-0.0018459201276302337
1772525850531455200,3.092455322265625,0.1122638586550951,-0.014125848247110842,0.0105178868830204
1772525850541439200,3.102439208984375,0.0735381144195795,-0.005157236632704735,0.009309972397983073
1772525850551422200,3.112422119140625,0.06024959377944469,0.010393383720517157,0.020358605156838894
1772525850561405200,3.1224052734375,0.04264087185263633,0.01606529187709093,0.004277238927781582
1772525850571389200,3.13238916015625,0.02032207253873348,0.010713701716065406,-0.020127134488523005
1772525850581372200,3.1423720703125,0.00710544809103012,0.012966741339862345,-0.008785656262934207
1772525850591355100,3.152355224609375,0.01671615700125694,0.006384148079156876,0.0049868485018610955
1772525850601338000,3.162338134765625,0.01440963362455368,-0.0009358195453882217,-0.00796206492036581
1772525850611322000,3.172322021484375,-0.006944120049476623,0.011954349426925182,-0.00836596954613924
1772525850621305300,3.182305419921875,-0.043536359387636184,0.009878712196648121,0.021838614581525324
1772525850631288300,3.192288330078125,-0.06277589738667011,0.0141363696411252,0.03860270237773657
1772525850641272300,3.202272216796875,-0.05338204609751701,0.008924187950789928,0.023389351154863833
1772525850651255000,3.212255126953125,-0.0380371774494648,0.009753332251310348,0.01722469104528427
1772525850661238300,3.22223828125,-0.014998831689357757,0.02567307817786932,0.023202011889219283
1772525850671221200,3.23222119140625,0.021520926934480666,0.027597616499662397,0.048013504801690574
1772525850681205200,3.242205322265625,0.024933365726470945,0.010198737931251525,0.06044307052493095
1772525850691188200,3.252188232421875,0.033203181421756746,0.01714548832923174,0.05757072995901107
1772525850701171200,3.262171142578125,0.012875848186016082,0.03080897976160049,0.06073065529465675
1772525850711155200,3.2721552734375,-0.007867664635181426,0.03580488835275173,0.05644903245270252
1772525850721138200,3.28213818359375,0.01480827755331993,0.06867284647077322,0.03884937061518431
1772525850731121400,3.292121337890625,0.05198737686872482,0.08021423118263482,0.018260463833808898
1772525850741104000,3.302104248046875,0.10661913076639175,0.07086129642575979,-0.0018605331748723982
1772525850751088000,3.312088134765625,0.17695055809915064,0.060498307843506335,-0.022414953164756297
1772525850761071000,3.322071044921875,0.2126455563366413,0.04236965369582176,-0.011292670647799968
1772525850771054300,3.332054443359375,0.23099486749768255,0.024758301420509814,0.0005526654466986656
1772525850781038300,3.342038330078125,0.2253068849891424,0.024780220991373062,0.00035158991664648053
1772525850791021000,3.35202099609375,0.2206400622218847,0.041533202871680254,-0.015741759011149405
1772525850801004300,3.36200439453125,0.18464578877687454,0.04657938034534454,-0.02444616673141718
1772525850810987300,3.3719873046875,0.1557768371671438,0.03068739920854568,-0.03318243089467287
1772525850820971300,3.38197119140625,0.12056640757620334,0.008394903379678726,-0.046183366765081876
1772525850830954200,3.391954345703125,0.09471183535158634,-0.008162263667583465,-0.04123889610022306
1772525850840937200,3.401937255859375,0.09033844257295132,-0.016160276684165,-0.07016629989892244
1772525850850920200,3.411920166015625,0.10047639022767543,-0.009841010534763335,-0.07590455128997564
1772525850860904200,3.421904296875,0.11311199991703033,-0.007725625815987586,-0.0544695490732789
1772525850870887200,3.43188720703125,0.13117547987401484,-0.014182546870410442,-0.02566694069802761
1772525850880870100,3.4418701171875,0.1412298408985138,-0.028872751002013683,-0.002660159119963646
1772525850890854100,3.451854248046875,0.12673194446861744,-0.037867666101455685,-0.0000415010541677475
1772525850900837000,3.461837158203125,0.11456044515967369,-0.04126636862903833,-0.001689268261194229
1772525850910820400,3.4718203125,0.11758066976368427,-0.02343962003737688,-0.021666472885012625
1772525850920803300,3.48180322265625,0.14143033190667628,-0.010486614961922169,-0.044182256075739855
1772525850930787000,3.491787109375,0.15756488962769508,-0.00799947432130575,-0.02797083372622728
1772525850940770000,3.50177001953125,0.17154373061954975,-0.011716156756877899,-0.0007034720942378044
1772525850950753300,3.511753173828125,0.1606657782524824,-0.023573183289170265,0.030509996815025805
1772525850960737300,3.5217373046875,0.1324666887283325,0.02189326737821102,0.0379541753411293
1772525850970720300,3.53172021484375,0.0968786579966545,0.07294920861572027,0.04613192883878946
1772525850980703200,3.541703125,0.07136193942427635,0.09263122968524694,0.04870587098002434
1772525850990686200,3.551686279296875,0.041595162191987035,0.08012304576784372,0.035080957992374893
1772525851000670200,3.561670166015625,0.0008358663022518157,0.0530862780213356,0.019826397976279258
1772525851010653200,3.571653076171875,-0.060411506342887875,0.04344488171190023,0.016379180131852626
1772525851020636200,3.58163623046875,-0.10200374592542648,0.03876958337724209,-0.008616729436814784
1772525851030620200,3.5916201171875,-0.13277122463285923,0.04145546146035194,0.0040413843452930445
1772525851040603100,3.60160302734375,-0.13820786272883415,0.06236147136688232,0.038888533581793304
1772525851050586000,3.611586181640625,-0.11163257501423358,0.08692541925907135,0.05228051459640264
1772525851060569300,3.6215693359375,-0.07699088522195816,0.0648719928830862,0.05723346082866192
1772525851070553300,3.63155322265625,-0.0266390006005764,0.05557224961817264,0.06577712502926587
1772525851080536000,3.6415361328125,0.011085457637906073,0.04676555056720972,0.06745879450589418
1772525851090519300,3.651519287109375,0.053062897145748134,0.019575053563714025,0.06378185955882072
1772525851100502300,3.661502197265625,0.09359130688905716,0.0021335048973560333,0.06286795958429575
1772525851110486300,3.671486328125,0.114804190787673,0.0063064066678285595,0.06813041015714406
1772525851120469000,3.681468994140625,0.12475626048147678,0.005528408032655715,0.05243570515811443
1772525851130452200,3.6914521484375,0.13703998799324035,0.0013446926072239874,0.03959375924170017
1772525851140436200,3.701436279296875,0.1387105515539646,-0.018114333361387253,0.011135434259474277
1772525851150419200,3.711419189453125,0.10990239022076129,-0.03221154003590345,-0.011141571739315986
1772525851160402200,3.721402099609375,0.07196048983931541,-0.03247340584248304,-0.013746493540704249
1772525851170385200,3.73138525390625,0.03884440217912197,-0.03126929074972868,-0.024521570055186747
1772525851180369200,3.741369140625,0.022457331001758573,-0.03183832280933857,-0.0378603595778346
1772525851190352100,3.75135205078125,0.028221885877847668,-0.039812078167498106,-0.04004091848731041
1772525851200335000,3.761335205078125,0.04035013056695461,-0.030151392635703086,-0.06017974341362715
1772525851210319000,3.771319091796875,0.03985854765772819,-0.02611088507324457,-0.07713350856304169
1772525851220302000,3.781302001953125,0.04846095630824566,-0.02185965736955404,-0.07684913866370915
1772525851230285000,3.79128515625,0.04389934748113155,-0.007678279542922974,-0.06514671817123889
1772525851240268300,3.801268310546875,0.041971009767055506,0.010741758766770363,-0.04676438152343034
1772525851250252000,3.811251953125,0.0512473721563816,0.035353345192968844,-0.01879150197058916
1772525851260235000,3.821235107421875,0.06080781218409538,0.03430792779326439,-0.003464461240172386
1772525851270218200,3.83121826171875,0.05044365455806255,0.003619359540939331,0.024185469968616962
1772525851280201200,3.841201171875,0.021219898161292074,-0.013328852650523184,0.028473522551357745
1772525851290185200,3.851185302734375,0.011698036578297615,-0.023456863433122633,0.011646014130115508
1772525851300168000,3.86116796875,-0.035711949372291565,0.0067947747066617005,0.014285130462050438
1772525851310151200,3.871151123046875,-0.08124152840375899,0.026112930899858472,0.02391892798691988
1772525851320135200,3.88113525390625,-0.0921603973031044,0.03063391545563936,0.024644611912965773
1772525851330118100,3.8911181640625,-0.09444237076044082,0.049801557262241836,0.060283496049046516
1772525851340101000,3.90110107421875,-0.09495499645769595,0.07017535998821259,0.04944762925803661
1772525851350084000,3.911083984375,-0.09297054464221,0.08599924432486296,0.04587999990433454
1772525851360068000,3.921068115234375,-0.03504208728671074,0.06813041015714406,0.06101824006438255
1772525851370051000,3.931051025390625,0.0003828618377447128,0.05773059669584035,0.056843000206351274
1772525851380034300,3.941034423828125,0.02621814484000206,0.043106443537771696,0.059845981414616105
1772525851390018300,3.951018310546875,0.03253624194562435,0.015576047055423259,0.07307517308294773
1772525851400001000,3.9610009765625,0.02437982349693775,0.016348784993588925,0.08472849373668431
1772525851409984000,3.97098388671875,-0.005992518413066863,0.03305179025232792,0.06744359693676233
1772525851419967200,3.98096728515625,-0.03324117534458637,0.05133154330849647,0.0164478614538908
1772525851429951200,3.990951171875,-0.07966624191105365,0.041937107497453684,0.008140636357665062
1772525851439934000,4.000933837890625,-0.12050152564644813,0.041406946143507956,0.03711889356076717
1772525851449917200,4.010917236328125,-0.1523047771424055,0.03870002527236938,0.07228811435848474
1772525851459901200,4.020901123046875,-0.16293372318446636,0.05117284561544656,0.08517010002434253
1772525851469884200,4.03088427734375,-0.14834113420844078,0.07947218064367771,0.0854001093879342
1772525851479867100,4.0408671875,-0.09958207173645496,0.11007891583144665,0.07090367426276206
1772525851489850000,4.05085009765625,-0.03188800716996193,0.10783785890638828,0.07883242143541574
1772525851499834000,4.060834228515625,0.037786417558789254,0.10761720189303159,0.10527443815916776
1772525851509817000,4.070817138671875,0.1158101529598236,0.09383183764666318,0.11331482901275157
1772525851519800000,4.080800048828125,0.18039806820452212,0.10502572409510612,0.11621668793410062
1772525851529783000,4.090782958984375,0.22542320484519004,0.10375146637558937,0.1342582483202219
1772525851539767000,4.10076708984375,0.26183950309455395,0.08438187225610018,0.120238783057034
1772525851549750000,4.11075,0.30213001242876053,0.0817228821799159,0.08313800967484712
1772525851559733200,4.120733154296875,0.3364765186667442,0.0965977952286601,0.015709902568161488
1772525851569717200,4.13071728515625,0.3553425471782684,0.07071575047522782,-0.0495481670230627
1772525851579700200,4.1407001953125,0.38696868854165073,0.030296061803400515,-0.08786971437186002
1772525851589683000,4.150682861328125,0.4000619788706302,-0.0007093173131346702,-0.08283756542354821
1772525851599666200,4.160666259765625,0.37203356973826884,-0.01480477042198181,-0.06917144364267587
1772525851609650200,4.170650146484375,0.3526251049131155,-0.020576339560747146,-0.04337035517096519
1772525851619633200,4.180633056640625,0.3240782248646021,0.0013175123393535614,-0.0034679683715105056
1772525851629616000,4.1906162109375,0.25933424227535723,0.0025268881291151046,0.028079554797708985
1772525851639600000,4.20060009765625,0.20142098248898982,0.021527941197156904,0.004233984307944774
1772525851649583000,4.2105830078125,0.16567746893465518,0.014975743074715137,-0.0525219221368432
1772525851659566000,4.220566162109375,0.09872340908050536,-0.008738602250814437,-0.08355681960880756
1772525851669549300,4.23054931640625,0.06283610314130783,-0.02331248652637005,-0.09339052361994982
1772525851679533000,4.240532958984375,0.017740239351987836,-0.036305823612213135,-0.0685600337460637
1772525851689516000,4.25051611328125,-0.00829670370221138,-0.040455344507098194,-0.03973316771239042
1772525851699499000,4.2604990234375,0.00911444982588291,-0.06754413470178842,-0.04773234977275133
1772525851709482200,4.270482177734375,0.008619359785318375,-0.0776926037505269,-0.054064183142781254
1772525851719466200,4.28046630859375,-0.007788169658184051,-0.09678864162564277,-0.07262421444505453
1772525851729449000,4.290448974609375,0.00881517461836338,-0.10085720623880624,-0.1297527535945177
1772525851739432200,4.30043212890625,0.04265373133420944,-0.08213760046064854,-0.13580869263261555
1772525851749416200,4.310416259765625,0.04514145649671554,-0.09516980825215578,-0.11894552837610244
1772525851759399200,4.320399169921875,0.06830839707255364,-0.10647943003475666,-0.0843847948655486
1772525851769382000,4.3303818359375,0.06204699859023094,-0.08527619074732065,-0.06513473547250032
1772525851779365000,4.340365234375,0.08076514306366443,-0.0637979339107871,-0.08758183734118938
1772525851789349000,4.35034912109375,0.10072948820590973,-0.035651743617653844,-0.12169921099841594
1772525851799332000,4.36033203125,0.13099194000065326,-0.012337211264669894,-0.15669804366528986
1772525851809315300,4.3703154296875,0.13475100027322767,-0.006935059960186481,-0.1574766268223524
1772525851819299300,4.38029931640625,0.15064415045380591,-0.019777298137545585,-0.10469839183688164
1772525851829282000,4.390281982421875,0.13968553406596182,-0.037006665357947346,-0.03277881852984428
1772525851839265000,4.40026513671875,0.12545476413965226,-0.051610944771766656,-0.009845102187991141
1772525851849248300,4.410248291015625,0.1370855807006359,-0.032578619782626626,-0.022189035454392433
1772525851859232300,4.420232177734375,0.14181553183197973,-0.003920680575072765,-0.05718582229465246
1772525851869215000,4.430215087890625,0.14707447527348994,0.01080722521841526,-0.08019669552594423
1772525851879198000,4.440197998046875,0.11483984662294387,0.013977964209020137,-0.05194762938022613
1772525851889181200,4.45018115234375,0.08456804247796534,0.045215106254816055,0.035950726564228534
1772525851899165200,4.460165283203125,0.07201309680938721,0.07477233238965272,0.11465484544485807
1772525851909148200,4.470148193359375,0.02876782932281494,0.09390139575153589,0.1456909119606018
1772525851919131100,4.480131103515625,-0.0042728550136089324,0.1216787527322769,0.18118278884142636
1772525851929115100,4.490115234375,-0.014164134430885314,0.13823270490914583,0.20798516331017017
1772525851939098000,4.50009814453125,-0.05065408243834972,0.1441530348688364,0.2374713700354099
1772525851949081000,4.5100810546875,-0.08067804930210112,0.145442490157485,0.24864713630527258
1772525851959064000,4.52006396484375,-0.08678045783042908,0.14152677801847457,0.24381109445095062
1772525851969048000,4.530048095703125,-0.07760697129368782,0.135151397767663,0.20428367844372985
1772525851979031000,4.540031005859375,-0.041518589824438096,0.14083411957919598,0.12773264594376085
1772525851989014300,4.55001416015625,-0.018154665371775625,0.1336602824270725,0.0667521075412631
1772525851998998300,4.559998291015625,0.013380290576815605,0.09403495900332927,0.04568973802924156
1772525852008981200,4.569981201171875,0.019220833298563954,0.06720540426671505,0.09659925653338432
1772525852018964000,4.5799638671875,0.0119949736982584,0.06259323429614305,0.1244654608413577
1772525852028947200,4.589947265625,-0.014453472766280173,0.05198825365155935,0.12340250778496265
1772525852038931200,4.59993115234375,0.00005143792629241943,0.04803133271932602,0.08143032897412776
1772525852048914200,4.6099140625,0.050632455128431314,0.0655105830475688,0.03210807966142892
1772525852058897000,4.61989697265625,0.09550269346833229,0.06088526133447885,-0.002562543964385986
1772525852068880100,4.629880126953125,0.10317805040180683,0.028449557153880596,-0.01325023445636034
1772525852078864100,4.639864013671875,0.10234335314333438,-0.009129647395014762,-0.03545388295799493
1772525852088847000,4.64984716796875,0.10909282740354537,-0.034034371548891065,-0.061544602026045316
1772525852098830300,4.659830322265625,0.1070826566249132,-0.054503451342880725,-0.102806586740911
1772525852108814000,4.66981396484375,0.09808160404562949,-0.05719108299165964,-0.13128712355494498
1772525852118797000,4.679797119140625,0.11379355244040489,-0.04856938511878252,-0.14473667997568845
1772525852128779300,4.689779296875,0.10083820927739143,-0.04009206415265798,-0.15843144332915543
1772525852138762000,4.699761962890625,0.12147709268033503,-0.027442718198895454,-0.12992606433480977
1772525852148746000,4.70974609375,0.14635668239295482,-0.006956687270104885,-0.06997954515516758
1772525852158729000,4.71972900390625,0.14037819250524045,0.0234735223069787,-0.0034729368075728413
1772525852168712200,4.729712158203125,0.16677169391214847,0.12334610142260789,0.0292117736980319
1772525852178696200,4.7396962890625,0.17839374264478683,0.18110855456143615,0.11249562158435582
1772525852188679200,4.74967919921875,0.22629414246082305,0.21811609670221804,0.31168636080324646
1772525852198662000,4.759661865234375,0.277367327094078,0.22847207102179526,0.5379004237651824
1772525852208644900,4.769644775390625,0.3138976071119308,0.2080927153378725,0.758524119374156
1772525852218628900,4.77962890625,0.3578045533776283,0.23856033431589602,1.0473264481961726
1772525852228611800,4.78961181640625,0.48522097297906874,0.34322219353467226,1.2718375066325067
1772525852238594800,4.7995947265625,0.6729670658588409,0.38364129768460986,1.2019734045505523
1772525852248578800,4.809578857421875,0.7558394103348255,0.39751726282387967,0.8565002172186971
1772525852258561800,4.819561767578125,0.7029658982813358,0.3340609819576144,0.32570436476171016
1772525852268545000,4.829544921875,0.6172223822832107,0.22827479488402605,-0.2035506879940629
1772525852278528000,4.839528076171875,0.5231149425655603,0.2287383207425475,-0.5618845259428024
1772525852288511700,4.84951171875,0.3235211755037308,0.3165066205665469,-0.685785046377778
1772525852298494700,4.85949462890625,-0.1521440336227417,0.43736996526271105,-0.6809466664358973
1772525852308478000,4.86947802734375,-0.1398041920095682,0.40341771903932094,-0.7335989369541406
1772525852318461000,4.8794609375,-0.06785889973938465,0.4996683082655072,-0.7683706828668713
1772525852328445000,4.88944482421875,-0.17964871114194392,0.5876765543252229,-0.8218889225646853
1772525852338428000,4.899427978515625,-0.34599604216217994,0.6664397099167109,-0.8575506030544638
1772525852348411000,4.909410888671875,-0.4924386492729187,0.7330176299348473,-0.8989131255343555
1772525852358395000,4.919394775390625,-0.5172083488702773,0.667526628370583,-1.0151529020830987
1772525852368377900,4.9293779296875,-0.5035661924868822,0.4814335633948445,-1.0694219601482153
1772525852378360800,4.93936083984375,-0.4674298802226782,0.262081787417829,-1.0409221341118216
1772525852388343800,4.94934375,-0.36615386404991146,0.1252566112190485,-0.9789031925722956
1772525852398327800,4.959327880859375,-0.306448460149765,-0.03083177611529827,-0.9689140057384967
1772525852408310800,4.969310791015625,-0.4087988275557756,-0.2853755692437291,-0.9064218937292694
1772525852418294000,4.9792939453125,-0.6979390100300311,-0.6260068695023655,-0.5858534305512905
1772525852428278000,4.989278076171875,-1.047711648121476,-0.9365054818257689,-0.03965630308389664
1772525852438260700,4.9992607421875,-1.100864561638236,-1.1368082739397882,0.3941694137006998
1772525852448244000,5.009243896484375,-0.7236825230956078,-1.1705942236855627,0.5155553209662437
1772525852458227000,5.01922705078125,-0.23456454267799853,-0.9805281634256243,0.48092736743837594
1772525852468211000,5.0292109375,-0.014151274949312209,-0.6614677667230368,0.3980889252319932
1772525852478193700,5.039193603515625,0.1343541099101305,-0.2955067948967218,0.42941812947541474
1772525852488177000,5.049177001953125,0.3661316522181034,0.07130582532286643,0.5998872166007757
1772525852498161000,5.059160888671875,0.5708849940001964,0.3344780383259058,0.7403112940743565
1772525852508143900,5.069143798828125,0.642966479870677,0.38244565815925596,0.7495061156600713
1772525852518126800,5.079126953125,0.5530775346308946,0.2561503515422344,0.7402002349153161
1772525852528109800,5.08910986328125,0.4026104943096637,0.1018809963285923,0.6667372315585612
1772525852538093800,5.09909375,0.24046353758871553,0.018258418007194993,0.5465875880897045
1772525852548076800,5.109076904296875,0.007187281155586242,0.0010816577568650244,0.37624621899724003
1772525852558060000,5.11906005859375,-0.1837099692314863,0.04586567911803722,0.12606237464398146
1772525852568042800,5.129042724609375,-0.2709972075402737,0.05255728571116924,-0.12067395960390567
1772525852578026800,5.13902685546875,-0.20223931313455104,0.03971563205569982,-0.33665304427742954
1772525852588009700,5.149009765625,-0.10490589710772037,0.06252542975693941,-0.5432923459365964
1772525852597993000,5.158992919921875,-0.060714873203635215,0.10138590628802775,-0.6988155006036162
1772525852607977000,5.16897705078125,-0.03453179967701435,0.15820523335784673,-0.7720952563479542
1772525852617960000,5.1789599609375,-0.03715805652737617,0.2299433126181364,-0.7866460520088672
1772525852627943000,5.18894287109375,-0.04355331052243709,0.28122984774112697,-0.7290247609063982
1772525852637926000,5.19892578125,-0.0663835664898157,0.30459231088906524,-0.5894812656596302
1772525852647910000,5.208909912109375,-0.09724106156826019,0.23233079227656125,-0.4562093980282545
1772525852657892900,5.218892822265625,-0.1255178925037384,0.10614274542629717,-0.3416843164429068
1772525852667875800,5.228875732421875,-0.131522101354599,0.03912994112223386,-0.2691957110762596
1772525852677858800,5.23885888671875,-0.08957973316013812,-0.008530804719030857,-0.26482027247101064
1772525852687842800,5.2488427734375,-0.02719020474255085,-0.03556552663892507,-0.22604309030920267
1772525852697825800,5.25882568359375,0.0290092368632555,-0.07735504235923289,-0.13765315145552157
1772525852707809000,5.26880908203125,0.025527239966392515,-0.17122253584116695,0.03680237495750189
1772525852717792800,5.278792724609375,-0.013110241463780403,-0.31388708571791646,0.19625994646400213
1772525852727775700,5.288775634765625,0.024168811094760892,-0.3747176942557096,0.3179471747636795
1772525852737759000,5.298759033203125,0.11444938600063323,-0.34225071815401314,0.37822950176894665
1772525852747742000,5.308741943359375,0.25719372311532496,-0.28402912307083605,0.39287294414937496
1772525852757726000,5.318725830078125,0.3832265794038772,-0.23652590587884187,0.42671266990900036
1772525852767708700,5.328708740234375,0.4635550846159458,-0.2830862892627716,0.47410804281234736
1772525852777692000,5.33869189453125,0.5288637153506278,-0.3243956202507019,0.5195359150350094
1772525852787675000,5.3486748046875,0.5107704247772693,-0.2904804911673069,0.561678189715743
1772525852797659000,5.358658935546875,0.4057867862582206,-0.21708149295747278,0.5563695619136094
1772525852807641900,5.368641845703125,0.30989246312379837,-0.14360212298780678,0.45386721881628034
1772525852817624800,5.378624755859375,0.261744226026535,-0.04663315635919571,0.2733615985840559
1772525852827608800,5.38860888671875,0.23304420124292372,0.009062135116755961,0.08025894710719585
1772525852837591800,5.398591796875,0.15750000769793987,-0.000502104303240776,-0.05299859973788261
1772525852847575000,5.408574951171875,0.07874269732534885,-0.011310790826380252,-0.1435191208794713
1772525852857557800,5.418557861328125,-0.017184359034895895,0.04292641079574823,-0.17624416339546442
1772525852867541800,5.428541748046875,-0.1440694482386112,0.11372662468403577,-0.19658552515655756
1772525852877524700,5.438524658203125,-0.22215222035050392,0.1903074678003788,-0.22377689894288777
1772525852887508000,5.448508056640625,-0.20073183118104934,0.2078808261528611,-0.2441775896757841
1772525852897492000,5.458491943359375,-0.19408581729531288,0.1617223015680909,-0.23986615621745586
1772525852907474700,5.468474609375,-0.20333938333094118,0.09815437702089548,-0.22187749506235122
1772525852917458000,5.4784580078125,-0.21220658039748666,0.06423077237010001,-0.22152385931909083
1772525852927441000,5.48844091796875,-0.2287368594378233,0.050399523155391215,-0.2436322307527065
1772525852937425000,5.4984248046875,-0.3189268334507942,0.07354162155091762,-0.21271102278828619
1772525852947408000,5.508407958984375,-0.3943471083551645,0.12018033086806534,-0.1723299125611782
1772525852957390800,5.518390869140625,-0.38841947187185283,0.12655951051115988,-0.16950608731210232
1772525852967373800,5.528373779296875,-0.2820686366528272,0.07309095517396927,-0.08923720333278179
1772525852977357800,5.53835791015625,-0.19016952063441275,-0.041704175524413585,-0.06461129612028599
1772525852987340800,5.5483408203125,-0.1485883869677782,-0.08135667921602725,0.008861936369538307
1772525852997323800,5.55832373046875,-0.14843407318890095,-0.1213175182044506,0.07009761857688426
1772525853007307800,5.568307861328125,-0.06907762787938118,-0.10357289493829011,0.0880605607688427
1772525853017290800,5.578290771484375,0.09649696520268916,-0.06656856766790151,0.10424421832859515
1772525853027274000,5.58827392578125,0.2761713953077793,-0.07741729394048452,0.07975684280395508
1772525853037257000,5.598257080078125,0.4211965368360281,-0.10027122304439544,0.07351707163155079
1772525853047241000,5.608240966796875,0.5174257910132408,-0.10181611439883709,0.06111059452295303
1772525853057223700,5.6182236328125,0.5606546918869019,-0.12325637731254101,0.07003858186602592
1772525853067207000,5.62820703125,0.5547019209623336,-0.12926906173080205,0.052792263510823244
1772525853077190000,5.63818994140625,0.5161556249469519,-0.12009557519406079,-0.008778934261202812
1772525853087174000,5.648173828125,0.4817489129543304,-0.11175649365484713,-0.11014321323931217
1772525853097156900,5.658156982421875,0.398460388892889,-0.08769085067361593,-0.1717851381599903
1772525853107139800,5.668139892578125,0.2929512651950121,-0.036521804450452326,-0.17610241683721542
1772525853117123800,5.678123779296875,0.18508885636925695,0.054282502068579194,-0.15805413444936275
1772525853127106800,5.68810693359375,0.03771393684446812,0.13731325197666883,-0.1378039581030607
1772525853137090000,5.698090087890625,-0.049833998227119446,0.17177286320030688,-0.09894026670157909
1772525853147072800,5.70807275390625,-0.12558628156483173,0.16448796688914297,-0.08144435749948024
1772525853157056800,5.718056884765625,-0.24263737449645995,0.14539631292819977,-0.04890694651007652
1772525853167039700,5.728039794921875,-0.3262158214151859,0.1006955859363079,-0.027581249886751175
1772525853177023000,5.73802294921875,-0.35678514720201493,0.09037117579877375,-0.054471594899892804
1772525853187007000,5.748007080078125,-0.3609808453261852,0.10323679485172033,-0.11538462102413177
1772525853196990500,5.757990478515625,-0.32986031539738175,0.09516805468648672,-0.10527589946389197
1772525853206973400,5.767973388671875,-0.2843412577599287,0.0869122675165534,-0.033473230534791946
1772525853216956700,5.777956787109375,-0.20440555125772952,0.048715807852149004,0.04948620770275593
1772525853226940700,5.787940673828125,-0.0974058967411518,0.04376052353233099,0.11591595142185687
1772525853236923400,5.79792333984375,-0.05095160408020019,0.045700551684200764,0.1788701279848814
1772525853246906600,5.80790673828125,0.02092120747566223,0.04714315170794725,0.1470288825660944
1772525853256889600,5.8178896484375,0.052746086281538006,0.035788521739840505,0.17090601723790166
1772525853266873600,5.82787353515625,0.043432899013161656,-0.029308219809830185,0.16030337468087671
1772525853276856600,5.837856689453125,0.024353520011901855,-0.0465966237410903,0.13484919995069503
1772525853286839600,5.847839599609375,0.002845452558994293,-0.03387976550906897,0.06047697279453277
1772525853296823600,5.857823486328125,0.04851648588776588,-0.01187339314520359,-0.059327802759408944
1772525853306806500,5.867806640625,0.1305710842400789,-0.015762801799178123,-0.13733517154753208
1772525853316789500,5.87778955078125,0.36409400891065596,-0.011664134308695792,-0.17502338942885398
1772525853326772700,5.887772705078125,0.5062579157888889,-0.03334434345811605,-0.07752572275102138
1772525853336756500,5.897756591796875,0.615457710698247,-0.01822889965176582,-0.03999591030180454
1772525853346739500,5.907739501953125,0.618924510025978,0.06091361064612865,-0.07403788063526154
1772525853356722700,5.91772265625,0.5488496878027915,0.12224164731204509,-0.15932605408132075
1772525853366705700,5.92770556640625,0.6205319452226161,0.12715338475108146,-0.1280447806328535
1772525853376689700,5.937689697265625,0.6060767188906669,0.09681699093729257,-0.02646598212122917
1772525853386672400,5.94767236328125,0.5713771614313126,0.10087941807061433,0.002789338457584381
1772525853396655600,5.957655517578125,0.5314227521836757,0.14491788176149129,0.05527180536687374
1772525853406639600,5.9676396484375,0.4278618399441242,0.10313274995535611,0.10769874269664287
1772525853416622600,5.97762255859375,0.2931026563644409,0.020110183353722094,0.09430909976959229
1772525853426605600,5.98760546875,0.1871697542965412,0.004824643677473068,0.053389644882082934
1772525853436588500,5.997588623046875,0.10263502956628799,0.0893918093726039,0.021337387061119078
1772525853446572500,6.007572509765625,0.057502340897917746,0.13563859676271675,-0.02424772154986858
1772525853456555500,6.017555419921875,0.04773614916503429,0.16649755314588546,-0.032305940321087835
1772525853466538800,6.027538818359375,0.015118658676743507,0.15445172604322432,0.05145721551477909
1772525853476522800,6.037522705078125,-0.040378772139549254,0.10977934836298227,0.10315876117944717
1772525853486505500,6.04750537109375,-0.07904255705475807,0.0841693985491991,0.1383878954708576
1772525853496488400,6.057488525390625,-0.13159341302514074,0.05258651180565357,0.17607494430840015
1772525853506471700,6.0674716796875,-0.1757277383059263,-0.006198270118236542,0.17616145354807375
1772525853516455700,6.07745556640625,-0.1938233669668436,-0.06132131466418504,0.13606442095935345
1772525853526438400,6.0874384765625,-0.1832265696287155,-0.0628217823550105,0.05076163446605205
1772525853536421600,6.097421630859375,-0.17086977688074112,-0.05313362429440021,0.009151274704933167
1772525853546404600,6.107404541015625,-0.2189326737821102,-0.08626578630656004,0.019041969600319862
1772525853556388600,6.117388671875,-0.19208616791069508,-0.07443710908591747,-0.06509586476683617
1772525853566371600,6.12737158203125,-0.0698655633866787,-0.014032617005705832,-0.12331424497961997
1772525853576354600,6.1373544921875,-0.018311901760101317,0.026922785978019236,-0.10812485915422439
1772525853586338600,6.147338623046875,0.03471650859415531,0.028085107755661008,-0.09582651859521865
1772525853596321500,6.157321533203125,0.1251473056256771,0.0204410227432847,-0.06807108118534087
1772525853606304800,6.1673046875,0.1884907737672329,-0.03545446747988462,-0.057632689279317854
1772525853616287500,6.17728759765625,0.21943653165102003,-0.08337298747450113,-0.03743745799064636
1772525853626271500,6.187271484375,0.18102409114837645,-0.1229687925428152,0.03337035468220711
1772525853636254500,6.19725439453125,0.10812602819800377,-0.1907403062596917,0.07032032141685485
1772525853646237700,6.20723779296875,0.10652443822026252,-0.18517039717286823,0.03930325186252594
1772525853656221700,6.2172216796875,0.13813655105829237,-0.14336743744909763,-0.0030137948632240293
1772525853666204700,6.22720458984375,0.10220248336791991,-0.1224719489365816,-0.010939327165484427
1772525853676187400,6.2371875,0.09129822751581668,-0.09914952553808688,-0.038110827207565305
1772525853686170600,6.247170654296875,0.11768413013815879,-0.0791217597708106,-0.059435062526166434
1772525853696154600,6.257154541015625,0.13629004640877246,-0.0673462740421295,-0.06058540160506963
1772525853706137600,6.2671376953125,0.1416430978745222,-0.0713818131685257,-0.0815264828249812
1772525853716120600,6.27712060546875,0.16447627645134924,-0.03969137439727783,-0.10336480514556169
1772525853726103600,6.287103515625,0.16244447836279868,0.024861177273094653,-0.10988047064989805
1772525853736087600,6.297087646484375,0.1335784493625164,0.0331657720208168,-0.0918634601831436
1772525853746070500,6.307070556640625,0.10942366679310798,0.019193945291638374,-0.054205929701030255
1772525853756053800,6.3170537109375,0.07708090159296989,-0.01795797375589609,-0.008567337337136268
1772525853766037500,6.32703759765625,0.0211795661509037,-0.0357581266015768,0.03275339182764291
1772525853776020500,6.3370205078125,0.011912556111812592,0.006197977857291698,0.04349719642102718
1772525853786003700,6.347003662109375,0.010136778610944747,0.047530397459864614,0.021346739411354065
1772525853795986700,6.356986572265625,-0.017668927681446074,0.09444821597933768,0.0185305129468441
1772525853805970700,6.366970703125,-0.06290215411484242,0.12570844663977623,0.001338262866437435
1772525853815953400,6.376953369140625,-0.09036240797042847,0.1254585635319352,-0.0026548984229564664
1772525853825936600,6.3869365234375,-0.09939151760041713,0.09376490989029407,-0.004846855509281158
1772525853835919600,6.396919677734375,-0.09021393941044807,0.08186170612871646,0.00895721343755722
1772525853845903600,6.406903564453125,-0.08738719155192375,0.09662526775747537,0.0017018354818224906
1772525853855886300,6.41688623046875,-0.15490473050773143,0.11858283254355191,-0.021631109310686587
1772525853865869600,6.42686962890625,-0.17729074983894824,0.11196867510080337,-0.02335457210242748
1772525853875853600,6.436853515625,-0.13402619313001632,0.13834230276346207,0.01291208854317665
1772525853885836500,6.44683642578125,-0.12980652960836886,0.1369020408272743,0.06306202085167169
1772525853895819800,6.45681982421875,-0.15434125140607355,0.08750847984403372,0.05283697943538427
1772525853905802500,6.466802490234375,-0.0878074627906084,0.07391834590882063,0.046162323977053166
1772525853915786500,6.476786376953125,-0.024699556970596313,0.0845852858737111,0.048694765064120286
1772525853925769500,6.48676953125,-0.005392798954248428,0.10747311724722385,0.08221855674237012
1772525853935752700,6.496752685546875,0.01972176855802536,0.12603694794178008,0.12427987514138221
1772525853945735700,6.506735595703125,0.040839375388622284,0.11034984172731638,0.13542320044636724
1772525853955719400,6.516719482421875,0.04618775067925453,0.06878741276115179,0.11852233452796936
1772525853965702700,6.52670263671875,0.046833062845468516,0.01826338644325733,0.09905366394817829
1772525853975685600,6.536685546875,0.10167524462342262,0.03783025670051574,0.048668169318139554
1772525853985669600,6.546669677734375,0.1308300274372101,0.06814969937950373,0.0001347322955727577
1772525853995652600,6.556652587890625,0.0960468833476305,0.05944587618112564,-0.02860270188897848
1772525854005635600,6.566635498046875,0.07565408366024494,0.045405952651798726,-0.04967500827312469
1772525854015618600,6.57661865234375,0.0384685546040535,0.02039572229683399,-0.07791793693900108
1772525854025602600,6.5866025390625,0.059738137125968926,0.023444003951549528,-0.10482406404316424
1772525854035585500,6.59658544921875,0.0660310997903347,0.018673136287927626,-0.11418898149877786
1772525854045568500,6.606568603515625,0.02292202590405941,0.010673954227566718,-0.10021978511810302
1772525854055552500,6.616552490234375,-0.006623802053928375,0.028311317726969716,-0.09278028276711701
1772525854065535500,6.626535400390625,-0.011628478473424912,0.09808511117696761,-0.07074146943837403
1772525854075518700,6.636518798828125,-0.02230243270099163,0.16252514238357543,-0.05328355415910482
1772525854085501700,6.646501708984375,-0.08188742509186267,0.1709244296774268,0.01618804147392511
1772525854095485700,6.656485595703125,-0.2064893717944622,0.14913549945652485,0.0978872505173087
1772525854105468400,6.666468505859375,-0.29641221930384637,0.15586393092870712,0.11384060645252465
1772525854115451600,6.67645166015625,-0.279528889042139,0.19495266325771807,0.02538987732231617
1772525854125434600,6.6864345703125,-0.2811860085994005,0.20277999588251114,-0.040515842522680756
1772525854135418600,6.696418701171875,-0.2786380776822567,0.15583528935611246,-0.020094693523645398
1772525854145401600,6.706401611328125,-0.27065760032236574,0.11768792953044176,0.0033399580776691433
1772525854155384600,6.716384521484375,-0.22571721935570238,0.04886836806535721,-0.031149463762342927
1772525854165368600,6.72636865234375,-0.11072013634443283,-0.03334112858772278,-0.1454419056355953
1772525854175351600,6.7363515625,0.002791676545143127,-0.050963294517993925,-0.2326511102721095
1772525854185334800,6.746334716796875,0.09080547556281089,-0.08102057912945747,-0.22834143037945032
1772525854195317500,6.7563173828125,0.1489583893239498,-0.09882014745324849,-0.14030103561580182
1772525854205301500,6.766301513671875,0.19338439102768898,-0.10142039307951926,-0.017682371684908865
1772525854215284200,6.7762841796875,0.23479075264930724,-0.08522416829913854,0.08286766830086707
1772525854225267500,6.786267333984375,0.29888182428777216,-0.036163784793019293,0.12956746015548706
1772525854235250400,6.79625048828125,0.3108446492820978,0.022008418190479277,0.13448212020397185
1772525854245234400,6.806234375,0.29509646053016186,0.05723609117716551,0.05221417136192322
1772525854255217700,6.8162177734375,0.22393150498270986,0.0643751492768526,0.0034036709636449812
1772525854265200400,6.826200439453125,0.13984569306373595,0.004011573728919029,-0.04838204585313797
1772525854275184400,6.836184326171875,0.0760386990636587,-0.030760464444756507,-0.0952577787965536
1772525854285167400,6.84616748046875,0.011097732597589493,-0.037789632429182526,-0.154256495732069
1772525854295150600,6.856150634765625,-0.04094225124120712,0.002248363448679447,-0.1905553050816059
1772525854305133300,6.86613330078125,-0.06871113265454769,-0.009283376652002334,-0.1992693574130535
1772525854315117300,6.876117431640625,-0.09052548957765102,-0.042647886115312575,-0.1968950294971466
1772525854325100500,6.8861005859375,-0.10272621498107909,-0.08629910405427217,-0.17229542576968668
1772525854335083500,6.89608349609375,-0.08718903863131999,-0.06356997037380933,-0.13167524608969688
1772525854345066500,6.90606640625,-0.07030337028205394,-0.052556116667389866,-0.0701134006679058
1772525854355050500,6.916050537109375,-0.01624094070494175,-0.0815817201435566,-0.05229366633892059
1772525854365033500,6.926033447265625,0.08640694834291934,-0.09798574245572089,-0.02949555907547474
1772525854375016400,6.936016357421875,0.1867950757652521,-0.0688718761742115,-0.03259761674404144
1772525854385000400,6.94600048828125,0.24248013810813426,-0.007193418635427952,-0.024365210449695585
1772525854394983400,6.9559833984375,0.2524246090173721,0.06081248835921287,0.010493921485543251
1772525854404966400,6.96596630859375,0.2141968774318695,0.10385580353289842,0.05210486576855183
1772525854414949400,6.975949462890625,0.17721534651517867,0.12363017906099558,0.10977905610203742
1772525854424933400,6.985933349609375,0.13269114513397215,0.14357552724182604,0.16122633474469183
1772525854434916600,6.99591650390625,0.12982464978694916,0.1327583651512861,0.13089958554208278
1772525854444899600,7.005899658203125,0.18054361415505407,0.1375648886501789,0.07388590494394302
1772525854454882300,7.01588232421875,0.15539982054829596,0.06528408081531524,0.03247369810342789
1772525854464866300,7.0258662109375,0.1335650053590536,-0.05487082335054874,-0.04220131139159202
1772525854474849500,7.035849609375,0.18142448864281177,-0.08597031049132346,-0.042218262526392936
1772525854484832500,7.04583251953125,0.22055004585087298,-0.039135786341130734,-0.041698038044571874
1772525854494816500,7.05581640625,0.23311902004480362,-0.01973492030054331,-0.13785130437612533
1772525854504799500,7.065799560546875,0.2741448579162359,0.004767652793228626,-0.1931827309757471
1772525854514782500,7.075782470703125,0.26505729609727857,0.03167465668022632,-0.13184358839392663
1772525854524765400,7.085765380859375,0.23363924452662466,0.064225219412148,-0.0724707774490118
1772525854534749400,7.09574951171875,0.17431377985477448,0.11739625310748815,-0.04093699054419994
1772525854544732400,7.105732421875,0.08054419378936291,0.1035930609434843,-0.021833646145462987
1772525854554715400,7.11571533203125,-0.05535656104087829,0.09055062401890754,-0.015122750329971313
1772525854564699400,7.125699462890625,-0.13653846821188925,0.05669307034164667,0.004721183302998542
1772525854574682400,7.135682373046875,-0.16522446447014807,0.007968786922097206,-0.009666823011636733
1772525854584665600,7.14566552734375,-0.15970073261260986,-0.03065671180933714,-0.050883215019106864
1772525854594648300,7.1556484375,-0.10712357315719127,-0.05199643695801496,-0.048021395847201345
1772525854604632300,7.16563232421875,-0.034524200892448426,-0.07237403907626867,-0.01580956355035305
1772525854614615600,7.175615478515625,0.037707507103681565,-0.1185746492370963,-0.008790040177106856
1772525854624598500,7.1855986328125,0.100316815751791,-0.13927169256806374,-0.026280104160308838
1772525854634581500,7.19558154296875,0.12072247492074965,-0.11869272265881299,-0.029711832174658774
1772525854644565200,7.205565185546875,0.08249766594469547,-0.088602704821527,-0.02290682833492756
1772525854654548500,7.215548583984375,0.062380760589241975,-0.06687924105226993,-0.0467032989859581
1772525854664531500,7.225531494140625,0.051316345739364624,-0.024167934311926362,-0.06661854428946971
1772525854674515500,7.235515380859375,0.04177577945590019,0.03648848670274019,-0.05758417396247387
1772525854684498400,7.24549853515625,0.07428045721948147,0.054826984208822246,-0.05033727157413959
1772525854694481400,7.2554814453125,0.12155658765733242,0.06960194401443004,-0.047553778335452074
1772525854704464400,7.26546435546875,0.12249240720272063,0.07507832959890365,-0.0022498247534036633
1772525854714448400,7.275448486328125,0.07915244717001914,0.07867050887197255,0.02645955238044262
1772525854724431600,7.285431640625,0.062166241055727,0.08942454259842633,0.04773907177448272
1772525854734414300,7.295414306640625,0.02935994999706745,0.0951274304151535,0.07141220830678939
1772525854744397300,7.305397216796875,-0.009906476986408234,0.09472966326922178,0.056332712596654885
1772525854754381300,7.31538134765625,-0.01845686318874359,0.11948095042705535,0.023521160840988157
1772525854764364500,7.325364501953125,-0.06620762540102004,0.1315787999778986,0.012226444366574286
1772525854774347500,7.335347412109375,-0.07860475015938281,0.11481295861601828,-0.03898293386697769
1772525854784331500,7.34533154296875,-0.028856676650047302,0.10731178920567035,-0.09176818311512469
1772525854794314500,7.355314453125,0.038299627777934074,0.10219751493185758,-0.07107143204510212
1772525854804297500,7.36529736328125,0.12361001305580138,0.07567892584055662,-0.0021709142982959746
1772525854814280400,7.375280517578125,0.17211480850577354,0.06180617557168006,0.05392506693303585
1772525854824264400,7.385264404296875,0.14851064555644988,0.02691080327928066,0.0994885482341051
1772525854834247400,7.395247314453125,0.11269698937535286,0.005226794737577438,0.09735738142430782
1772525854844230400,7.40523046875,0.09259761967658996,0.02946048776209354,0.0657739101588726
1772525854854213400,7.41521337890625,0.0641010085105896,0.0450149075075984,0.03334697380661964
1772525854864197400,7.425197265625,0.048598318952322,0.016775193712115288,0.011029928058385848
1772525854874180600,7.4351806640625,0.07903904992341995,-0.03434709075987339,-0.06061375091671943
1772525854884163300,7.445163330078125,0.11271744764149189,-0.06749094320982695,-0.07687748797535895
1772525854894146600,7.455146484375,0.1506406433224678,-0.07005114908665418,-0.06689151601195335
1772525854904130600,7.465130615234375,0.21194939076602456,-0.03669248484224081,-0.04646189144551754
1772525854914113500,7.475113525390625,0.2643763280957937,-0.021446108132600783,0.005516133072972297
1772525854924096300,7.48509619140625,0.27564883273839946,-0.05094926599264145,0.05922843403816223
1772525854934080300,7.495080322265625,0.2958674449026584,-0.05014408708959817,0.05676525879502296
1772525854944063500,7.5050634765625,0.2814654100626707,-0.02932254059612751,0.03865618613064289
1772525854954046500,7.51504638671875,0.24196108267009256,-0.03682721713781357,0.024344752183556556
1772525854964029400,7.525029541015625,0.23233751427829263,-0.06128273621946573,0.02136953576505184
1772525854974013400,7.535013427734375,0.22353519914150236,-0.07886427787840367,0.04190320522785187
1772525854983996400,7.544996337890625,0.22139760259091854,-0.09592442601174116,0.01367021343410015
1772525854993979400,7.5549794921875,0.24132220024466514,-0.07361790165752172,-0.017520459121465683
1772525855003963400,7.56496337890625,0.18832301598489284,-0.033657062669098375,-0.03178980749249458
1772525855013946600,7.574946533203125,0.11418342854082583,0.005287877275049686,-0.03263970232009888
1772525855023929300,7.584929443359375,0.019455226576328276,0.02875467758029699,-0.027743162450194356
1772525855033912300,7.594912353515625,-0.09090776689350605,-0.020609072786569593,-0.06633271308541297
1772525855043896300,7.604896240234375,-0.15581424656808376,-0.05103489844948053,-0.15218144302368164
1772525855053879600,7.614879638671875,-0.18737550600171088,-0.07088789217174053,-0.19664485412836075
1772525855063862500,7.624862548828125,-0.1772019025117159,-0.0876136937841773,-0.20030454567968844
1772525855073845500,7.634845458984375,-0.17342179945111275,-0.07892915980815887,-0.18907997183203695
1772525855083829500,7.64482958984375,-0.18408815489411354,-0.0706494072407484,-0.12691840695142745
1772525855093812500,7.6548125,-0.17003683318793772,-0.04093523697853088,-0.06416062974333762
1772525855103795500,7.66479541015625,-0.14237784188985825,-0.02104629516005516,-0.00793897630572319
1772525855113779500,7.674779541015625,-0.10675064819157123,-0.01681727928817272,0.04390227009057998
1772525855123762400,7.684762451171875,-0.043161096334457395,-0.0066869304180145256,0.056447863408923146
1772525855133745400,7.694745361328125,0.006992050844430923,-0.0040218028619885444,0.044588498789072034
1772525855143728400,7.704728271484375,0.08157762849032879,0.008810206182301043,0.04263151950240135
1772525855153712400,7.71471240234375,0.08650573254227638,0.023085984294116495,0.05080722717344761
1772525855163695400,7.7246953125,0.04185410538911819,0.06368102953284978,0.08763385978937148
1772525855173678300,7.73467822265625,0.016080197185277936,0.08213613915592431,0.04835515784621239
1772525855183661600,7.74466162109375,0.012923778980970382,0.09458324053585529,-0.03491115438342094
1772525855193645600,7.7546455078125,-0.024244214418530464,0.08196341293752193,-0.12275836466252803
1772525855203628300,7.764628173828125,-0.03862169933915138,0.07023615026473999,-0.18148644796311855
1772525855213611300,7.774611328125,-0.02158873147368431,0.08810732252001761,-0.1699123300254345
1772525855223595300,7.78459521484375,0.010870353582501411,0.11369827537238597,-0.07820552170872688
1772525855233578200,7.794578125,0.017680618119239808,0.11759586733281611,0.030263036316633223
1772525855243561200,7.804561279296875,0.006676409024000168,0.11776537868082523,0.10671323879063128
1772525855253544400,7.81454443359375,0.0024304420173168182,0.1526160350486636,0.14071721520125866
1772525855263528400,7.824528564453125,-0.036007132926583287,0.1760045094206929,0.14599018716812132
1772525855273511400,7.834511474609375,-0.06842647049427032,0.16334493433386085,0.10934066468477248
1772525855283494100,7.844494140625,-0.05696633432507515,0.1634369965314865,0.034334231278300285
1772525855293477400,7.854477294921875,0.008892916029691696,0.14881225885152816,-0.012909750455617904
1772525855303461400,7.86446142578125,0.38995676444172855,0.1603349388629198,-0.05551029029786587
1772525855313444400,7.8744443359375,0.5994616846650839,0.09582388824671506,0.08349719837605953
1772525855323427300,7.88442724609375,0.650258390444517,-0.00732639736533165,0.14068272840976714
1772525855333411300,7.894411376953125,0.6254530350118875,-0.018463292929530143,0.06484042870104313
1772525855343394300,7.904394287109375,0.3984516210645437,-0.02554448336213827,-0.025789690294861792
1772525855353377300,7.914377197265625,0.16673136190176008,-0.05848170732408762,-0.0375882646381855
1772525855363360500,7.924360595703125,0.02437280923426151,-0.09237637814134358,-0.0748497815400362
1772525855373344500,7.934344482421875,-0.03217325385212898,-0.025142040041089057,-0.21261165406703947
1772525855383327200,7.9443271484375,0.09865326645374298,0.01731704550385475,-0.2190615608587861
1772525855393310200,7.954310302734375,0.19573884519934653,0.0021869886502623556,-0.10121639494001865
1772525855403293400,7.96429345703125,0.3485065636783838,0.026399346625804898,-0.006809972275793552
1772525855413277400,7.97427734375,0.49847792943716046,0.12008622284382581,0.08365618833005428
1772525855423260200,7.98426025390625,0.54364919655025,0.18282237274199722,0.2657958395048976
1772525855433243400,7.994243408203125,0.4579430899530649,0.14170885658711194,0.41359219931215047
1772525855443227400,8.004227294921876,0.30777883197069167,0.0126572369992733,0.3312015008732676
1772525855453210400,8.01421044921875,0.023036007672548292,-0.21032062052041292,0.20421470486074686
1772525855463193300,8.024193359375,-0.1854793169915676,-0.3456225326746702,0.09588029460906981
1772525855473176300,8.03417626953125,-0.2595049226671457,-0.29275661940574643,0.007711305029690265
1772525855483160300,8.044160400390625,-0.2805494642615318,-0.15223960295170544,-0.06776420719325542
1772525855493143300,8.054143310546875,-0.25210896719694137,-0.014751286669075488,-0.19389409411549566
1772525855503126300,8.064126220703125,-0.2178086381882429,0.07130787114948034,-0.23518296683728693
1772525855513109200,8.074109130859375,-0.18734160373210906,0.08309650862067937,-0.2093497296616435
1772525855523093200,8.08409326171875,-0.1498994695663452,0.08191898927390574,-0.10846768124252557
1772525855533076200,8.094076171875,-0.10912556062936782,0.040729485273361205,-0.08496522510200738
1772525855543059500,8.1040595703125,-0.0028366847306489943,0.034551088899374006,-0.08485358142107724
1772525855553043500,8.11404345703125,0.006916647520661354,0.006760872437059879,0.011328618744015693
1772525855563026400,8.1240263671875,-0.1889262425750494,-0.1001008349135518,0.12197948924452065
1772525855573009200,8.134009033203125,-0.16431904006302356,-0.1394078861683607,0.12116174312084912
1772525855582992400,8.143992431640624,0.008476151922345162,-0.07596592608839273,0.03636281449645758
1772525855592976400,8.153976318359375,0.07953881613910198,0.02233282783925533,-0.03314531375467777
1772525855602959400,8.16395947265625,0.0025268881291151046,0.08609832078516483,-0.03306728008240461
1772525855612942300,8.1739423828125,-0.06803016465306282,0.11376198825836181,-0.016044249089062212
1772525855622925300,8.18392529296875,-0.08186521326005458,0.07888239805698394,-0.06693769324123859
1772525855632909300,8.193909423828124,-0.0010538929671049118,0.07089432191252708,-0.10045300935208797
1772525855642892300,8.203892333984374,0.056932432055473325,0.08121405587494372,-0.10159984129965305
1772525855652875500,8.21387548828125,0.042621582630276676,0.0873828076377511,-0.027039105834066865
1772525855662859500,8.223859619140624,-0.049344168883562085,0.053398412710428236,0.044482408066093916
1772525855672842200,8.23384228515625,-0.07278291213810444,0.009278992737829684,0.058765492701530454
1772525855682825200,8.2438251953125,0.01153787758052349,0.0006564180821180344,0.029067981313169
1772525855692808400,8.253808349609375,0.05067278713881969,-0.006350245809555053,0.0038142975911498065
1772525855702792400,8.26379248046875,0.042786417803168296,0.019260873048007488,0.006956395009160041
1772525855712775200,8.273775146484375,0.052422845676541326,0.05092559285610914,0.008133622094988822
1772525855722758400,8.28375830078125,0.06771101570129394,0.056932432055473325,0.024914076504111288
1772525855732741400,8.293741455078125,0.06106792442500591,0.06063830083608627,0.03999006508290767
1772525855742725400,8.303725341796875,0.07156710660755634,0.03979571155458689,0.013999299257993697
1772525855752708400,8.313708251953125,0.11782967608869076,0.029077041402459144,-0.021108254480361938
1772525855762691300,8.32369140625,0.13591653692126274,0.0414922863394022,-0.02850859386473894
1772525855772675300,8.33367529296875,0.0908832169741392,0.03393997126370668,-0.023802608130872246
1772525855782658300,8.343658203125,0.09905892464518547,0.02375993803292513,0.019892448949813842
1772525855792641300,8.353641357421875,0.14630173733532428,0.023180092318356035,0.051339142093062395
1772525855802624300,8.363624267578125,0.1028045409142971,0.01042465564161539,0.07497954539954661
1772525855812608300,8.373608154296875,0.06829729115664959,0.015868600261211393,0.03762304369062185
1772525855822591200,8.38359130859375,0.10590367597341536,0.04617839832901954,0.004947685535252094
1772525855832574500,8.393574462890625,0.0621183102607727,0.06085019002109766,0.012577157500386238
1772525855842557400,8.403557373046874,0.015113397979736327,0.056879240563511846,0.013215455403923987
1772525855852541200,8.413541259765625,0.04355272600054741,0.07259206574112176,0.015050269615650176
1772525855862524200,8.423524169921874,0.0334708924472332,0.07203910803347825,0.016000994469225406
1772525855872507400,8.43350732421875,0.016263737058639524,0.058842941851913924,0.018573475305736064
1772525855882491400,8.443491455078124,0.014230185404419898,0.04622954399436712,-0.002141395942866802
1772525855892474400,8.453474365234374,-0.021788053438067435,0.018338205245137212,-0.0638505408808589
1772525855902457300,8.463457275390626,0.008701777371764183,-0.015197569131851196,-0.14007599468827248
1772525855912440300,8.4734404296875,0.059463411837816234,-0.045399815171957014,-0.15073095195442437
1772525855922424300,8.48342431640625,0.09614040684998035,-0.03143646401017904,-0.11887246313989162
1772525855932407300,8.4934072265625,0.09461889637112617,-0.002247194404900074,-0.032364392510056496
1772525855942390500,8.503390625,0.08928162699639797,0.012957973511517047,0.02674099967032671
1772525855952373200,8.513373291015625,0.1098456915974617,0.032738486519455906,0.08323299448192119
1772525855962357200,8.523357177734376,0.11073533391356467,0.036281858214735986,0.11797522203922271
1772525855972340200,8.53334033203125,0.08351824116408825,0.03812514799386263,0.14380992051959038
1772525855982323500,8.543323486328125,0.0244996504843235,0.028706162263453006,0.15001199003010987
1772525855992307500,8.553307373046875,-0.017459668844938277,-0.01472118379175663,0.1279550565227866
1772525856002290200,8.563290283203125,0.01241232232749462,-0.03211275583654642,0.0766314042598009
1772525856012273400,8.5732734375,0.0449473952293396,-0.019988018278777598,0.03637275136858225
1772525856022256400,8.58325634765625,0.03912497268617153,-0.02139437794536352,0.03773965580761433
1772525856032240400,8.593240478515625,0.0377408248513937,-0.03410188382714987,0.09923895738720893
1772525856042223000,8.60322314453125,0.061794485133886336,-0.04959317520856857,0.1104404426202178
1772525856052206300,8.613206298828125,0.09621522565186023,-0.018962474623322487,0.07278904961794615
1772525856062189300,8.623189208984375,0.14915537320077418,-0.011293255169689655,0.05968143850266933
1772525856072173300,8.63317333984375,0.19715514173805712,-0.014656301862001418,0.07916822926104068
1772525856082156500,8.643156494140625,0.2397895838499069,0.006289747793972492,0.12215309224575757
1772525856092139300,8.65313916015625,0.2551917356431484,-0.016468904241919515,0.17132511943280695
1772525856102123300,8.663123291015625,0.2650906138449907,-0.04685030624121427,0.2068620044991374
1772525856112106200,8.673106201171874,0.24622984603047368,-0.10170037906467914,0.2806266211509704
1772525856122089500,8.68308935546875,0.22864567402303218,-0.16510522200465202,0.2698611892476678
1772525856132072200,8.693072265625,0.2307096208155155,-0.13539806600511073,0.21219167508929968
1772525856142056200,8.70305615234375,0.20768939523398874,-0.03188391551673412,0.14826865349411963
1772525856152039200,8.7130390625,0.18701427147388458,0.06217325531840324,0.1125838843896985
1772525856162022400,8.7230224609375,0.16854922497868538,0.16472878990769385,0.11404197424352168
1772525856172005400,8.73300537109375,0.07472001768052577,0.2632122527524829,0.18829437441229818
1772525856181989400,8.7429892578125,-0.04559796809256077,0.30277210972458124,0.24311200627088544
1772525856191972400,8.752972412109376,-0.0706318715840578,0.28422873729616405,0.2976961216345429
1772525856201955600,8.76295556640625,-0.042646132549643515,0.2427200843438506,0.34853725107759237
1772525856211939600,8.772939697265626,-0.010948094993829727,0.15172434690594672,0.37551176724284885
1772525856221922300,8.78292236328125,0.02317980005741119,0.08828589395731687,0.3674561788201332
1772525856231905500,8.792905517578125,0.05916121402084827,0.018209318168461323,0.3152653883337974
1772525856241888500,8.802888427734375,0.06312836408615112,-0.0762938428685069,0.2426277298852801
1772525856251872500,8.81287255859375,0.0878770208954811,-0.12244856806099415,0.17891630521416663
1772525856261855500,8.82285546875,0.13251111239194868,-0.1672249906376004,0.1564402695119381
1772525856271838500,8.83283837890625,0.20018296512663364,-0.23172259725034236,0.1656269077911973
1772525856281821400,8.842821533203125,0.26067922714352604,-0.34490941596925256,0.22047084313482046
1772525856291805400,8.852805419921875,0.36241760013103486,-0.4751473227322101,0.27050971628427506
1772525856301788700,8.86278857421875,0.4664665881484747,-0.5006742704376578,0.2526268535912037
1772525856311771400,8.872771484375,0.5356225419610738,-0.49955578780174253,0.19916765060424804
1772525856321755400,8.88275537109375,0.5925351002722978,-0.46065176438987254,0.1151782847970724
1772525856331738400,8.89273828125,0.596098930233717,-0.3818970843657851,0.05402268208861351
1772525856341721600,8.9027216796875,0.4432113847672939,-0.3777046011120081,0.13889993664622305
1772525856351704600,8.91270458984375,0.15840777019262314,-0.5077551686093211,0.2717138313770294
1772525856361688300,8.922688232421875,-0.033904607689380646,-0.594073561885953,0.29886896480619907
1772525856371671600,8.932671630859375,-0.2104097601085901,-0.5510851917698979,0.2779547715932131
1772525856381654500,8.942654541015624,-0.3465712117016315,-0.4437015063717961,0.18234978679418562
1772525856391637500,8.952637451171874,-0.4634025244027376,-0.30000761344730853,0.07513444370031357
1772525856401621500,8.96262158203125,-0.5809358478933573,-0.1508905264303088,0.036842122446000575
1772525856411604500,8.9726044921875,-0.6778630212068557,-0.01868131959438324,-0.0054936289802193635
1772525856421587500,8.98258740234375,-0.64400517526865,0.10536913070529699,-0.05003273566961288
1772525856431571500,8.992571533203124,-0.5908031619131565,0.26866058128625153,-0.13867372667491434
1772525856441554400,9.002554443359376,-0.5308633647352456,0.4352230163618922,-0.279366684217751
1772525856451537700,9.01253759765625,-0.48818332991600033,0.5384393529474735,-0.4335334558397531
1772525856461520400,9.022520263671876,-0.49641456716656684,0.5525038263961672,-0.47333618165701624
1772525856471504400,9.03250439453125,-0.44795361085832114,0.554432748632133,-0.37174072427153587
1772525856481487600,9.042487548828126,-0.4245341568261385,0.5122507264629006,-0.29914661270380016
1772525856491470600,9.052470703125,-0.37375440218150613,0.3721519354209304,-0.2851826770201325
1772525856501453300,9.062453369140625,-0.2515495797485113,0.2788216175556183,-0.29857670386135576
1772525856511437300,9.072437255859375,-0.11089198578000067,0.22071517328470944,-0.39338206271529197
1772525856521420500,9.082420654296875,0.017790508234500884,0.1398918702930212,-0.5520289023607969
1772525856531403500,9.092403564453125,0.19019699316322802,0.06603256109505891,-0.6161038996472954
1772525856541387500,9.102387451171875,0.36728725199401374,0.039269349592924115,-0.6079568335488438
1772525856551370500,9.11237060546875,0.5200076241999865,-0.02541998019963503,-0.6302259485021233
1772525856561353500,9.122353515625,0.6371504870682955,-0.1207835574582219,-0.5372971971750259
1772525856571336400,9.13233642578125,0.720951636826992,-0.1939589760452509,-0.46140258275717494
1772525856581320400,9.142320556640625,0.7702619034409522,-0.21246844620406627,-0.41444764709770676
1772525856591303700,9.1523037109375,0.7827215720415115,-0.23872107783555982,-0.36670974436700343
1772525856601286400,9.162286376953125,0.719457598876953,-0.29190321744680403,-0.31689240501374005
1772525856611269400,9.172269287109375,0.6671189243525266,-0.2559802556723356,-0.19611147790402172
1772525856621253400,9.18225341796875,0.7195616437733173,-0.17820698790103195,-0.05094575886130333
1772525856631236600,9.192236572265625,0.7941361155033111,-0.138403969822824,0.09851151989549398
1772525856641219300,9.20221923828125,0.7470137143224478,-0.14467778939530251,0.16502660381048917
1772525856651202600,9.21220263671875,0.6657984894037247,-0.10264876583069563,0.1396259128332138
1772525856661186600,9.2221865234375,0.5682821180254221,-0.03353986603021621,-0.008251987777650356
1772525856671169500,9.23216943359375,0.44739188532233237,-0.022306524354219436,-0.2223208549156785
1772525856681152500,9.242152587890626,0.3372995254874229,0.018093582834303377,-0.3495411674231291
1772525856691136500,9.252136474609374,0.2136123555421829,0.03466857779920101,-0.39194033947438
1772525856701119500,9.262119384765626,0.12338964830338954,0.05419233956709504,-0.31391455824673176
1772525856711102500,9.2721025390625,0.052797524207830425,0.05065642052590847,-0.20177958666831253
1772525856721085400,9.28208544921875,-0.1158101529598236,-0.0685080112978816,-0.07879998047053813
1772525856731069400,9.2920693359375,-0.31513854708373545,-0.10642448497712612,-0.005752864438295364
1772525856741052400,9.302052490234376,-0.38236791674792764,-0.09711772744953631,-0.032787878619134424
1772525856751035400,9.312035400390625,-0.3685048110902309,-0.03645166182368993,-0.022957974000275133
1772525856761018600,9.3220185546875,-0.31456513110995293,0.016333587424457074,-0.011884499061107634
1772525856771002600,9.332002685546875,-0.2797662049293518,0.06837196382805705,0.01742985822856426
1772525856780985600,9.341985595703125,-0.2790536727458238,0.11609802999049425,0.06788929487764835
1772525856790968300,9.35196826171875,-0.3065191872984171,0.13994813052490354,0.12297580680549144
1772525856800952300,9.361952392578125,-0.36331308766603465,0.1100219249472022,0.17868132741451262
1772525856810935600,9.371935546875,-0.34925533621907234,0.11216682802140712,0.15283961467146873
1772525856820918500,9.38191845703125,-0.29810324113070963,0.12321867565065621,0.028570260924100876
1772525856830901500,9.391901611328125,-0.21773674199581144,0.1763878096498549,-0.06991407870352268
1772525856840885500,9.401885498046875,-0.16835341014564037,0.22975948048382996,-0.08030512433648108
1772525856850868500,9.411868408203125,-0.19105799390673636,0.261614608297497,-0.02350537874996662
1772525856860851500,9.4218515625,-0.18177344821095465,0.2440615620806813,0.057685003988444804
1772525856870834700,9.431834716796875,-0.15396774191856383,0.20361644670665263,0.14162994613200425
1772525856880818700,9.441818603515625,-0.0845049141138792,0.15687150053605436,0.20091098714023828
1772525856890801400,9.451801513671874,-0.009854454538226127,0.12013356911689042,0.21079729812145231
1772525856900784400,9.461784423828124,-0.004681435814499855,0.06669219404757022,0.18715251090079546
1772525856910768400,9.471768310546874,-0.030721301478147504,0.06069426880702376,0.14440525606423615
1772525856920751600,9.481751708984374,-0.04366670776903629,0.09735475107580423,0.08284779455661773
1772525856930734300,9.491734375,-0.022293080350756642,0.1250223640717566,0.017768296402692795
1772525856940717600,9.501717529296876,0.03667231883704662,0.14070581702440976,0.005776245313882827
1772525856950701600,9.51170166015625,0.10552549031078814,0.14253259406015276,0.04492167626619339
1772525856960684500,9.5216845703125,0.15488544128537177,0.13120382918566464,0.03191051126271486
1772525856970667500,9.53166748046875,0.18252163622975348,0.10027385339289903,0.034548458550870416
1772525856980650500,9.541650390625,0.19665654456615447,0.03551657293066382,0.0519184032857418
1772525856990634500,9.551634521484376,0.18952771559953688,-0.005247545264661312,0.055628655980527394
1772525857000617500,9.561617431640625,0.15506664307117463,0.010008768317103385,0.08517886785268783
1772525857010600400,9.571600341796875,0.12485153754949568,0.03793196350932121,0.08112842341810464
1772525857020583400,9.58158349609375,0.09006547085046768,0.04244242667108774,0.051953474599123
1772525857030567400,9.5915673828125,0.0681657737314701,0.05241787724047899,-0.02057692408263683
1772525857040550400,9.60155029296875,0.06640460927784443,0.07254793433845043,-0.08892156151235103
1772525857050533600,9.61153369140625,0.047210079464316365,0.048523646280914545,-0.059011284156143665
1772525857060517600,9.621517578125,0.0863262843221426,0.01464037364050746,0.019769114831089972
1772525857070500400,9.631500244140625,0.1313777244478464,0.0031442893750965595,0.08208996192663907
1772525857080483300,9.6414833984375,0.15221709885895252,-0.008545563896745443,0.11879998242557048
1772525857090466600,9.651466552734375,0.0715431412100792,-0.04399564746245742,0.12439824082404374
1772525857100450600,9.661450439453125,-0.02508124976456165,-0.07684256279245019,0.08713321679085492
1772525857110433500,9.67143359375,-0.03354220411777496,-0.061086336864531035,-0.02603986566364765
1772525857120416500,9.68141650390625,-0.02547171038687229,-0.03144990801364183,-0.11733838544040917
1772525857130399500,9.6913994140625,-0.047964697223901745,-0.04446194979995489,-0.1365758776128292
1772525857140383500,9.701383544921875,-0.04249123424887657,-0.05122764454260468,-0.17095044090151787
1772525857150366500,9.711366455078124,-0.012660744130611419,-0.04030950629562139,-0.1748351733803749
1772525857160349700,9.721349609375,0.007458499312400817,-0.04745820900648832,-0.15033786098361016
1772525857170333400,9.73133349609375,0.026025837138295174,-0.0253927999317646,-0.10157441459745169
1772525857180316400,9.74131640625,0.07416004571020603,0.008017448369413614,0.005371756166219711
1772525857190299400,9.75129931640625,0.08751344828009605,0.020851503240317103,0.1145686284661293
1772525857200282600,9.76128271484375,0.10598258642852305,0.053180970567464826,0.1649275273501873
1772525857210266600,9.7712666015625,0.1466407600313425,0.07284194884896278,0.09639262804538011
1772525857220249300,9.781249267578126,0.17250117747485635,0.046313276755064726,0.026632278598845004
1772525857230232600,9.791232666015626,0.17341244710087775,0.006674655458331108,-0.03186258046776056
1772525857240215600,9.801215576171876,0.11227905622422694,-0.033170448195934295,-0.06549275512993336
1772525857250199600,9.811199462890626,0.03352992915809154,-0.05771861399710178,-0.06904664821922779
1772525857260182300,9.821182373046875,-0.016233926442265508,-0.05345832620412111,-0.06500555613487959
1772525857270165500,9.83116552734375,-0.036945290559530254,-0.013433335938304663,-0.02164221522659063
1772525857280149500,9.8411494140625,-0.032819735062122345,0.02489215693324804,0.032022154943645
1772525857290132500,9.851132568359375,-0.031390579041838645,0.07211144261732697,0.06329729091227054
1772525857300115700,9.86111572265625,-0.059091071394085884,0.1085677806161344,0.10934358729422092
1772525857310098400,9.871098388671875,-0.08580489079654216,0.10800094051361084,0.14010171365141869
1772525857320082400,9.88108251953125,-0.12419862659871578,0.11160948639959097,0.12797902192026375
1772525857330065400,9.8910654296875,-0.1783475654155016,0.14358911737576127,0.12565700871348381
1772525857340048600,9.901048583984375,-0.16854221071600914,0.1716359389476478,0.15871815131604672
1772525857350031400,9.91103125,-0.15340075568556785,0.2019792008936405,0.16094693328142165
1772525857360015400,9.921015380859375,-0.15173136116862296,0.2033065039746463,0.1488429462507367
1772525857369998300,9.930998291015625,-0.1267892276138067,0.2016949771247804,0.11051204655170441
1772525857379981600,9.940981689453125,-0.14561901576817035,0.1634011945657432,0.07935352270007133
1772525857389965600,9.950965576171875,-0.1691483599156141,0.11506123428866266,0.07409253343194723
1772525857399948500,9.960948486328125,-0.16994155611991882,0.07998670603707432,0.05824672952443361
1772525857409931500,9.970931640625,-0.15583762744367122,0.05768281203135848,0.08722761707603931
1772525857419914500,9.98091455078125,-0.1163069965660572,0.07248802084475756,0.11337415798455476
1772525857429898500,9.9908984375,-0.07372340785861015,0.09937924264073371,0.08772358389943838
1772525857439881500,10.000881591796874,-0.03309679843783379,0.08638853590339422,0.05264525625556707
1772525857449864400,10.010864501953124,-0.0018149404674768447,0.0853629922479391,0.024865561187267304
1772525857459847400,10.020847412109376,0.06254910289347171,0.06432941043898463,-0.004601064054667949
1772525857469831400,10.03083154296875,0.14673077640235424,0.03643441842794418,-0.03240647808611393
1772525857479814700,10.040814697265626,0.19641513702571392,0.025156214696913957,-0.03161883483976125
1772525857489797600,10.050797607421876,0.23217618623673913,-0.0006467734709382057,-0.026839491608738896
1772525857499780400,10.0607802734375,0.26938918782174587,-0.007372574594616889,-0.053099429763853546
1772525857509764400,10.070764404296876,0.29896599543988706,0.0045129473797976966,-0.06346300286799669
1772525857519747600,10.08074755859375,0.3207873666256666,0.01821107173413038,-0.06404577119201421
1772525857529730600,10.09073046875,0.3543845158010721,0.02814633642360568,-0.06777005241215228
1772525857539714600,10.100714599609375,0.34780221480131146,-0.021782500480115412,-0.10481441943198441
1772525857549697300,10.110697265625,0.2984925327092409,-0.08361702536344527,-0.12451982137709855
1772525857559680500,10.120680419921875,0.2634118669778108,-0.11244710626751184,-0.10770634148120879
1772525857569663500,10.13066357421875,0.21919570863246918,-0.10568550317808985,-0.0858989988207817
1772525857579647500,10.1406474609375,0.17342472206056117,-0.07564341613575816,-0.0939399741962552
1772525857589630700,10.150630615234375,0.14533902978301047,-0.05534574738591909,-0.11976502806544304
1772525857599613400,10.160613525390625,0.0881166748702526,-0.04750175588726997,-0.1046077909439802
1772525857609596400,10.170596435546875,0.0488555085837841,-0.022525573932379483,-0.07678279542922974
1772525857619580400,10.180580322265625,0.05499065033793449,0.0058862815596163265,-0.07649491839855908
1772525857629563600,10.190563720703125,0.052446811074018475,-0.0017047580912709236,-0.028374738352000713
1772525857639546400,10.20054638671875,-0.007706921115517616,-0.0004661562070250511,0.019459902751445768
1772525857649530400,10.2105302734375,-0.09342997884750366,-0.0019240999303758142,0.06907792014032602
1772525857659513600,10.220513671875,-0.16488485725224017,0.023854630579054355,0.10950725342333316
1772525857669496600,10.23049658203125,-0.200467627286911,0.05619520382210612,0.13137129470705985
1772525857679479600,10.2404794921875,-0.22153262714743613,0.10472074979916214,0.07615969509482383
1772525857689463300,10.25046337890625,-0.1887561467051506,0.15281871801391242,0.007124152791500091
1772525857699446500,10.260446533203124,-0.19791618923842905,0.11213774805739521,0.037144028002023696
1772525857709429500,10.270429443359374,-0.20346797814667222,0.08238704517707228,0.09309621684849262
1772525857719412500,10.28041259765625,-0.1650526150345802,0.08172945805117487,0.12978197968900204
1772525857729396500,10.290396484375,-0.08871639432907104,0.10131386396512389,0.16109072566628455
1772525857739379500,10.30037939453125,-0.01635141534209251,0.11109160000532865,0.1375195882037282
1772525857749362400,10.310362548828126,0.06369827292859553,0.1085894079260528,0.06276362242698669
1772525857759345400,10.320345458984375,0.14723521879315377,0.08780395565927028,0.0017304770544171331
1772525857769329700,10.33032958984375,0.17791034304201603,0.043024902734160424,0.00891629690527916
1772525857779312400,10.3403125,0.17344284223914144,0.027231851927191016,0.06717237877994775
1772525857789295400,10.35029541015625,0.18258008841872214,0.047426060302555556,0.1316714466974139
1772525857799279400,10.360279296875,0.16499065571427343,0.05599471281394362,0.12540741786658763
1772525857809262600,10.3702626953125,0.19523674089610576,0.11437120619788765,0.06791647514551878
1772525857819245600,10.38024560546875,0.22534955508708954,0.11723010276034473,-0.012853928615152835
1772525857829228300,10.390228271484375,0.261430922293663,0.08223200074583291,-0.11365209814310073
1772525857839212500,10.400212646484375,0.29271979452669616,0.02939019900485873,-0.17064356690943241
1772525857849195500,10.410195556640625,0.34207097767293454,-0.024380992540717124,-0.16082272237986325
1772525857859178500,10.420178466796875,0.32965982438921926,-0.051869741838425396,-0.13434826469123362
1772525857869161700,10.43016162109375,0.18242460559606552,-0.03126052292138338,-0.04883884970992803
1772525857879145500,10.4401455078125,0.03979366572797298,-0.014613193372637032,-0.02875438531935215
1772525857889128400,10.45012841796875,0.018568506869673727,0.1272422320783138,-0.0872869460478425
1772525857899111400,10.460111328125,0.039922845065593716,0.07295300800800324,0.04578939901143312
1772525857909095400,10.470095458984375,0.08011515472233295,-0.11262523931339383,0.09659516488015651
1772525857919078700,10.48007861328125,0.1567535732448101,-0.1880636343963444,0.007639993359148502
1772525857929061400,10.490061279296874,0.29237317304611204,-0.17247677368596195,-0.09756956287026405
1772525857939044400,10.50004443359375,0.4488625423967838,-0.1306032329440117,-0.14127689491063355
1772525857949028600,10.510028564453124,0.5307189878284931,-0.08687807298600674,-0.11156681630164385
