time,seconds_elapsed,z,y,x
1772525847526487800,0.08748779296875,-0.009050153195858002,0.17306092381477356,-0.11135424673557281
1772525847536471800,0.097471923828125,-0.055605363100767136,0.225480318069458,-0.04107779636979103
1772525847546454800,0.107454833984375,-0.07255104929208755,0.21063292026519775,0.004387956578284502
1772525847556437800,0.117437744140625,-0.05632214620709419,0.14706262946128845,0.029336780309677124
1772525847566421800,0.127421875,-0.015315856784582138,0.06290806084871292,0.037459954619407654
1772525847576404700,0.13740478515625,0.042368508875370026,-0.0070962198078632355,0.020110756158828735
1772525847586388000,0.147387939453125,0.09125855565071106,-0.055056288838386536,-0.017133817076683044
1772525847596371000,0.157370849609375,0.12599867582321167,-0.0688648521900177,-0.0564676858484745
1772525847606354700,0.167354736328125,0.14797428250312805,-0.04286335036158562,-0.08546072244644165
1772525847616337700,0.177337646484375,0.15296073257923126,0.004729587584733963,-0.10089834779500961
1772525847626321000,0.18732080078125,0.14650602638721466,0.05458955466747284,-0.10540095716714859
1772525847636305000,0.197304931640625,0.13513819873332977,0.08894514292478561,-0.10555078834295273
1772525847646288000,0.207287841796875,0.12351270020008087,0.10306868702173233,-0.10999054461717606
1772525847656270800,0.217270751953125,0.11160091310739517,0.10968068987131119,-0.10928626358509064
1772525847666253800,0.22725390625,0.09430927783250809,0.10037373751401901,-0.1115824356675148
1772525847676237800,0.23723779296875,0.0647958293557167,0.07451194524765015,-0.1028972938656807
1772525847686220800,0.247220703125,0.03526856377720833,0.03228273242712021,-0.07222992926836014
1772525847696203800,0.257203857421875,0.01144864596426487,-0.016114849597215652,-0.03423314169049263
1772525847706187800,0.267187744140625,0.005582233425229788,-0.03547576814889908,-0.001319932285696268
1772525847716170800,0.277170654296875,0.018029646947979927,-0.032430119812488556,0.014842229895293713
1772525847726153700,0.28715380859375,0.05349363014101982,-0.02109197899699211,0.018607940524816513
1772525847736137000,0.297136962890625,0.09292144328355789,-0.013950641267001629,0.028171272948384285
1772525847746121000,0.307120849609375,0.13567742705345154,0.0006224417593330145,0.032801710069179535
1772525847756103700,0.317103759765625,0.1745167374610901,0.030453801155090332,0.034703999757766724
1772525847766087000,0.3270869140625,0.20484694838523865,0.044140852987766266,0.02596430480480194
1772525847776071000,0.33707080078125,0.21493381261825562,0.05138843506574631,0.0251325536519289
1772525847786054000,0.347053955078125,0.22343569993972778,0.04338670149445534,0.03689546883106232
1772525847796036600,0.35703662109375,0.22725194692611694,0.05515757575631142,0.043033748865127563
1772525847806019800,0.367019775390625,0.2361477017402649,0.10344947874546051,0.027443068102002144
1772525847816003800,0.37700390625,0.24364128708839417,0.18139973282814026,0.00022494979202747345
1772525847825986800,0.38698681640625,0.26112839579582214,0.25463083386421204,-0.005946126766502857
1772525847835970000,0.396969970703125,0.2817201614379883,0.30492135882377625,0.009541776031255722
1772525847845954000,0.4069541015625,0.2998642921447754,0.35228806734085083,0.027985498309135437
1772525847855936800,0.416936767578125,0.31466275453567505,0.36351248621940613,0.03266153112053871
1772525847865919700,0.426919677734375,0.3175096809864044,0.36038458347320557,0.023735148832201958
1772525847875903000,0.436903076171875,0.3079580068588257,0.3442263901233673,0.00916126649826765
1772525847885887000,0.446886962890625,0.2984715402126312,0.2964112162590027,0.007812907919287682
1772525847895869700,0.45686962890625,0.3036312460899353,0.24002081155776978,0.008248727768659592
1772525847905852700,0.466852783203125,0.3155001699924469,0.209145188331604,0.0016118637286126614
1772525847915837000,0.4768369140625,0.32235845923423767,0.18675366044044495,-0.021716533228754997
1772525847925820000,0.48681982421875,0.3194257616996765,0.17912130057811737,-0.04412863031029701
1772525847935803000,0.496802978515625,0.3104586601257324,0.2073841392993927,-0.07459261268377304
1772525847945785900,0.506785888671875,0.3067470192909241,0.28174036741256714,-0.12170872837305069
1772525847955769900,0.516769775390625,0.3321085572242737,0.40711793303489685,-0.17983773350715637
1772525847965752800,0.5267529296875,0.37304532527923584,0.5613357424736023,-0.24340792000293732
1772525847975735800,0.53673583984375,0.4096139967441559,0.7053629755973816,-0.2872731387615204
1772525847985719800,0.5467197265625,0.4293632209300995,0.8233251571655273,-0.3008135259151459
1772525847995702800,0.556702880859375,0.43501368165016174,0.9244839549064636,-0.2955843508243561
1772525848005685800,0.566685791015625,0.4292072057723999,1.0352693796157837,-0.2718329429626465
1772525848015669000,0.5766689453125,0.41754257678985596,1.128732442855835,-0.22688132524490356
1772525848025653000,0.586653076171875,0.3553242087364197,0.8129885792732239,0.02222997508943081
1772525848035635700,0.5966357421875,0.17984354496002197,0.20081207156181335,0.3241911232471466
1772525848045618700,0.60661865234375,0.10778531432151794,-0.2629113793373108,0.3795537054538727
1772525848055602700,0.616602783203125,0.21242354810237885,-0.3824836015701294,0.24529112875461578
1772525848065586000,0.6265859375,0.2517203688621521,-0.38091233372688293,0.07218965142965317
1772525848075569000,0.63656884765625,0.1653449386358261,-0.25566330552101135,-0.028943810611963272
1772525848085551600,0.646551513671875,0.09562284499406815,0.12612932920455933,-0.08657807856798172
1772525848095535900,0.656535888671875,0.0850701630115509,0.5189843773841858,-0.06021178141236305
1772525848105518800,0.666518798828125,0.05419347807765007,0.6831794381141663,0.05665438249707222
1772525848115501800,0.676501708984375,-0.01227784063667059,0.6391337513923645,0.18680787086486816
1772525848125485000,0.686485107421875,-0.08978009223937988,0.37398651242256165,0.2961934804916382
1772525848135468800,0.69646875,-0.1587769240140915,0.009477565065026283,0.3664385974407196
1772525848145451800,0.70645166015625,-0.23905445635318756,-0.34414947032928467,0.36068323254585266
1772525848155434800,0.716434814453125,-0.31929564476013184,-0.6099163293838501,0.2977903187274933
1772525848165418800,0.726418701171875,-0.37795284390449524,-0.7990844249725342,0.21130043268203735
1772525848175402000,0.736402099609375,-0.4221608340740204,-0.8409554958343506,0.12870384752750397
1772525848185384700,0.746384765625,-0.43156367540359497,-0.7326942682266235,0.07426030933856964
1772525848195367000,0.756366943359375,-0.4087827205657959,-0.5337871313095093,0.04934712126851082
1772525848205351000,0.766350830078125,-0.3619734048843384,-0.31594905257225037,0.04711539298295975
1772525848215334000,0.776333984375,-0.3190569579601288,-0.16020509600639343,0.05750132352113724
1772525848225316900,0.78631689453125,-0.2858603894710541,-0.10200490802526474,0.08272837847471237
1772525848235300900,0.79630078125,-0.2655562162399292,-0.13505199551582336,0.11962400376796722
1772525848245283800,0.806283935546875,-0.2569081485271454,-0.25354138016700745,0.1609932780265808
1772525848255266800,0.816266845703125,-0.2541321814060211,-0.40236926078796387,0.18356861174106598
1772525848265249800,0.826249755859375,-0.25397583842277527,-0.4940944015979767,0.17580842971801758
1772525848275233800,0.83623388671875,-0.24493098258972168,-0.5698122978210449,0.18057513236999512
1772525848285216800,0.846216796875,-0.2310180962085724,-0.6479078531265259,0.22951310873031616
1772525848295199700,0.85619970703125,-0.2163432091474533,-0.6788417100906372,0.30777186155319214
1772525848305184000,0.86618408203125,-0.19335000216960907,-0.6543587446212769,0.3850885033607483
1772525848315166700,0.876166748046875,-0.17708532512187958,-0.6227663159370422,0.4283282160758972
1772525848325149700,0.886149658203125,-0.16243022680282593,-0.5973659157752991,0.42686882615089417
1772525848335133000,0.8961328125,-0.15302938222885132,-0.5811518430709839,0.3941001892089844
1772525848345117000,0.906116943359375,-0.1564645916223526,-0.5718603730201721,0.3548510670661926
1772525848355100000,0.916099853515625,-0.17010799050331116,-0.5641330480575562,0.31211134791374207
1772525848365082600,0.92608251953125,-0.1922615021467209,-0.5564146637916565,0.2784005105495453
1772525848375067000,0.93606689453125,-0.19527332484722137,-0.5363523960113525,0.2462342381477356
1772525848385049900,0.9460498046875,-0.18334582448005676,-0.509194016456604,0.23338982462882996
1772525848395032800,0.95603271484375,-0.1480904221534729,-0.4710879623889923,0.23930704593658447
1772525848405015800,0.966015869140625,-0.09292889386415482,-0.42072758078575134,0.2901896834373474
1772525848414999800,0.975999755859375,-0.04542361944913864,-0.379867285490036,0.37347590923309326
1772525848424982800,0.985982666015625,0.0015502823516726494,-0.3785407543182373,0.48275551199913025
1772525848434965800,0.9959658203125,0.04007986560463905,-0.3849266469478607,0.5992512106895447
1772525848444949800,1.00594970703125,0.06659988313913345,-0.3985590934753418,0.6800680160522461
1772525848454933000,1.01593310546875,0.07705023139715195,-0.41180166602134705,0.7291048169136047
1772525848464915700,1.025915771484375,0.08121887594461441,-0.4361128509044647,0.7414032816886902
1772525848474898700,1.035898681640625,0.08212385326623917,-0.4561938941478729,0.7366280555725098
1772525848484883000,1.045883056640625,0.07746918499469757,-0.4330398440361023,0.7023390531539917
1772525848494866000,1.055865966796875,0.07287001609802246,-0.3994400203227997,0.6571719646453857
1772525848504848600,1.0658486328125,0.07355178147554398,-0.3424227833747864,0.6186280250549316
1772525848514832600,1.07583251953125,0.07185694575309753,-0.2384994626045227,0.5859191417694092
1772525848524816000,1.08581591796875,0.05645136162638664,-0.14807023108005524,0.5595564842224121
1772525848534798800,1.095798828125,0.036615390330553055,-0.08769847452640533,0.5416060090065002
1772525848544781800,1.10578173828125,0.017977522686123848,-0.06996315717697144,0.533772349357605
1772525848554765800,1.115765869140625,0.009021366015076637,-0.05864895507693291,0.5378382205963135
1772525848564748800,1.125748779296875,0.013697078451514244,-0.0634586289525032,0.5388067960739136
1772525848574731800,1.135731689453125,0.01935786008834839,-0.10324820876121521,0.5406029224395752
1772525848584715800,1.1457158203125,0.03651394322514534,-0.15256595611572266,0.5567238330841064
1772525848594699000,1.155698974609375,0.06368543207645416,-0.20148581266403198,0.5770477652549744
1772525848604681700,1.165681640625,0.08772951364517212,-0.2233189344406128,0.6083279252052307
1772525848614664700,1.175664794921875,0.09873499721288681,-0.2446400374174118,0.6373918652534485
1772525848624648700,1.185648681640625,0.11013118922710419,-0.24300751090049744,0.6688315272331238
1772525848634632000,1.1956318359375,0.10819318890571594,-0.2443026602268219,0.6869512796401978
1772525848644615000,1.205614990234375,0.10025803744792938,-0.24655088782310486,0.6874503493309021
1772525848654597600,1.21559765625,0.0771995559334755,-0.28015077114105225,0.6814258098602295
1772525848664582000,1.225581787109375,0.05732252448797226,-0.32249316573143005,0.6665381789207458
1772525848674564900,1.23556494140625,0.040561575442552567,-0.3457350730895996,0.650788426399231
1772525848684547800,1.2455478515625,0.02818533405661583,-0.3371517062187195,0.6255916953086853
1772525848694531800,1.25553173828125,0.03349088132381439,-0.303796648979187,0.5815858840942383
1772525848704514800,1.265514892578125,0.05377458408474922,-0.2742800712585449,0.5316532254219055
1772525848714497800,1.275497802734375,0.07855106890201569,-0.2519568204879761,0.48843061923980713
1772525848724480800,1.285480712890625,0.09679558873176575,-0.2364121973514557,0.4456320106983185
1772525848734464800,1.29546484375,0.09979339689016342,-0.2287687212228775,0.41152694821357727
1772525848744447700,1.30544775390625,0.09050668776035309,-0.22858549654483795,0.38920858502388
1772525848754430700,1.3154306640625,0.07421547174453735,-0.23065422475337982,0.37460336089134216
1772525848764414700,1.325414794921875,0.0578138642013073,-0.24366669356822968,0.36674705147743225
1772525848774398000,1.33539794921875,0.03518594056367874,-0.2520434558391571,0.3650939166545868
1772525848784381000,1.345380859375,0.01472301222383976,-0.21791478991508484,0.36489978432655334
1772525848794363600,1.35536376953125,0.0024772328324615955,-0.18653950095176697,0.3518066108226776
1772525848804347600,1.36534765625,0.0013829399831593037,-0.1475449651479721,0.346585750579834
1772525848814331000,1.375330810546875,0.008816814050078392,-0.12273279577493668,0.3412822186946869
1772525848824313900,1.38531396484375,0.019012724980711937,-0.11781153827905655,0.34618085622787476
1772525848834297900,1.3952978515625,0.044319093227386475,-0.11460645496845245,0.3602531850337982
1772525848844280800,1.40528076171875,0.06899753957986832,-0.11158456653356552,0.368937224149704
1772525848854263800,1.415263916015625,0.09716317802667618,-0.11969228088855743,0.3794563114643097
1772525848864246800,1.425246826171875,0.12852376699447632,-0.149910107254982,0.37936362624168396
1772525848874230800,1.435230712890625,0.1557280719280243,-0.19307933747768402,0.37155845761299133
1772525848884214000,1.445214111328125,0.1765284240245819,-0.22274641692638397,0.3482230603694916
1772525848894196700,1.45519677734375,0.17941626906394958,-0.25602060556411743,0.31092387437820435
1772525848904180700,1.4651806640625,0.176923006772995,-0.29023289680480957,0.2788551449775696
1772525848914163700,1.475163818359375,0.16456684470176697,-0.2943848967552185,0.2529590129852295
1772525848924147000,1.48514697265625,0.1402290165424347,-0.2590268850326538,0.23373979330062866
1772525848934129700,1.495129638671875,0.10815880447626114,-0.19870132207870483,0.21808400750160217
1772525848944113700,1.50511376953125,0.07971251755952835,-0.13018937408924103,0.2011132687330246
1772525848954097000,1.515096923828125,0.06058603525161743,-0.07960918545722961,0.18871687352657318
1772525848964079900,1.525079833984375,0.048615388572216034,-0.06390372663736343,0.17322207987308502
1772525848974063900,1.53506396484375,0.04792669788002968,-0.06907733529806137,0.1612005978822708
1772525848984046800,1.545046875,0.049588244408369064,-0.08342085033655167,0.14272145926952362
1772525848994029800,1.55502978515625,0.05594642460346222,-0.1139005497097969,0.12744128704071045
1772525849004012800,1.5650126953125,0.06319714337587357,-0.1339605301618576,0.12130136787891388
1772525849013996800,1.574996826171875,0.0714809000492096,-0.14758384227752686,0.11735174059867859
1772525849023979800,1.584979736328125,0.07054666429758072,-0.17836278676986694,0.12259870022535324
1772525849033962800,1.594962646484375,0.06758052110671997,-0.21195870637893677,0.12197314947843552
1772525849043946800,1.60494677734375,0.0642307922244072,-0.2281464785337448,0.12652075290679932
1772525849053929700,1.6149296875,0.05558101460337639,-0.20355099439620972,0.13104739785194397
1772525849063913000,1.624912841796875,0.06125807389616966,-0.14833594858646393,0.12770646810531616
1772525849073896000,1.63489599609375,0.061915528029203415,-0.11524829268455505,0.1286638230085373
1772525849083879700,1.644879638671875,0.06273923814296722,-0.08605817705392838,0.1340245008468628
1772525849093862700,1.654862548828125,0.052145082503557205,-0.06666813790798187,0.140362948179245
1772525849103846000,1.664845947265625,0.03393704816699028,-0.03891453891992569,0.1391860991716385
1772525849113830000,1.674829833984375,0.011406438425183296,-0.012503059580922127,0.1307617723941803
1772525849123812900,1.684812744140625,-0.008379250764846802,0.012747169472277164,0.11996904015541077
1772525849133795800,1.6947958984375,-0.01776643469929695,0.01318556722253561,0.10766378045082092
1772525849143778800,1.70477880859375,-0.02575565129518509,-0.012407942675054073,0.09051355719566345
1772525849153762800,1.7147626953125,-0.026502881199121475,-0.046976275742053986,0.07506167143583298
1772525849163745800,1.724745849609375,-0.02123754471540451,-0.0703902542591095,0.05842890217900276
1772525849173729000,1.73472900390625,-0.019647562876343727,-0.09978067874908447,0.05065179616212845
1772525849183711700,1.744711669921875,-0.01335105113685131,-0.13936670124530792,0.0481119379401207
1772525849193696500,1.754696533203125,-0.004835508298128843,-0.14808496832847595,0.051860082894563675
1772525849203679500,1.764679443359375,-0.004523119423538446,-0.14847378432750702,0.05472138151526451
1772525849213662500,1.774662353515625,-0.00188131770119071,-0.13828988373279572,0.06091611832380295
1772525849223646500,1.784646484375,-0.0015662657096982002,-0.12610192596912384,0.06912530958652496
1772525849233629400,1.79462939453125,0.005070437211543322,-0.10512430220842361,0.08229424059391022
1772525849243612400,1.8046123046875,0.005346075166016817,-0.06551643460988998,0.09866762161254883
1772525849253595400,1.814595458984375,0.0014960495755076408,-0.025182802230119705,0.10795921087265015
1772525849263579400,1.824579345703125,-0.0012094555422663689,-0.005325473845005035,0.10948653519153595
1772525849273562400,1.834562255859375,-0.004845171235501766,-0.006441648583859205,0.10390561819076538
1772525849283545600,1.844545654296875,-0.006338139064610004,-0.012219110503792763,0.09035465121269226
1772525849293529600,1.854529541015625,-0.00514325313270092,-0.03169301897287369,0.08224143832921982
1772525849303512300,1.86451220703125,0.006866537965834141,-0.054437216371297836,0.072178415954113
1772525849313495300,1.874495361328125,0.018890805542469025,-0.05655068904161453,0.06391726434230804
1772525849323478500,1.884478515625,0.03457709029316902,-0.052238766103982925,0.054173558950424194
1772525849333462500,1.894462646484375,0.04641737788915634,-0.0303341131657362,0.04973786324262619
1772525849343445500,1.904445556640625,0.05129043012857437,-0.008039726875722408,0.05842083320021629
1772525849353428500,1.914428466796875,0.05540253221988678,-0.0022004584316164255,0.07074455916881561
1772525849363412500,1.92441259765625,0.05521984025835991,0.0014067930169403553,0.07949569821357727
1772525849373395500,1.9343955078125,0.0513555184006691,-0.010892324149608612,0.08103145658969879
1772525849383378400,1.94437841796875,0.03952682018280029,-0.04228273779153824,0.0813707485795021
1772525849393361700,1.954361572265625,0.02884351834654808,-0.08883155137300491,0.07796695828437805
1772525849403345400,1.964345458984375,0.023108666762709618,-0.12632353603839874,0.08340087532997131
1772525849413328400,1.974328369140625,0.013839054852724075,-0.14290647208690643,0.09154540300369263
1772525849423311400,1.984311279296875,0.01067814975976944,-0.1310652643442154,0.09740408509969711
1772525849433294600,1.994294677734375,0.017665857449173927,-0.10370403528213501,0.0979861170053482
1772525849443278600,2.004278564453125,0.025413794443011284,-0.07623060047626495,0.09144565463066101
1772525849453261300,2.01426123046875,0.03222634270787239,-0.05853307992219925,0.08370300382375717
1772525849463244500,2.02424462890625,0.0350455641746521,-0.05116011202335358,0.06955575942993164
1772525849473228500,2.034228515625,0.03252308815717697,-0.06473535299301147,0.05751359835267067
1772525849483211500,2.04421142578125,0.027975741773843765,-0.06600221991539001,0.04433654621243477
1772525849493194200,2.0541943359375,0.031222134828567505,-0.0597832053899765,0.030406348407268524
1772525849503177500,2.064177490234375,0.03584751486778259,-0.06835006177425385,0.02371063083410263
1772525849513161500,2.074161376953125,0.03822775185108185,-0.06806046515703201,0.01712016761302948
1772525849523144400,2.08414453125,0.04048531502485275,-0.08097360283136368,0.011036708019673824
1772525849533127400,2.09412744140625,0.03807725012302399,-0.0940098762512207,0.007174361031502485
1772525849543111700,2.104111572265625,0.029097871854901314,-0.10561060905456543,0.009401562623679638
1772525849553094400,2.114094482421875,0.01283092238008976,-0.09338138997554779,0.017092591151595116
1772525849563077400,2.124077392578125,0.0013862540945410728,-0.07660560309886932,0.03325531631708145
1772525849573060600,2.134060546875,-0.0034151391591876745,-0.06505487859249115,0.040581993758678436
1772525849583044600,2.144044677734375,-0.0019085886888206005,-0.05315614491701126,0.046056389808654785
1772525849593027300,2.15402734375,0.007400235161185265,-0.04879770427942276,0.04664056748151779
1772525849603010300,2.16401025390625,0.02319890633225441,-0.04144817963242531,0.045101530849933624
1772525849612994600,2.17399462890625,0.035853613168001175,-0.042445968836545944,0.04151836782693863
1772525849622977500,2.1839775390625,0.04268675297498703,-0.04067656397819519,0.03158531337976456
1772525849632960500,2.19396044921875,0.040639277547597885,-0.04787280037999153,0.02472132258117199
1772525849642943500,2.203943603515625,0.03169132396578789,-0.062286894768476486,0.01942802406847477
1772525849652927500,2.213927490234375,0.017624301835894585,-0.06260203570127487,0.013902772217988968
1772525849662910500,2.223910400390625,0.000014150049537420273,-0.055283404886722565,0.005585986189544201
1772525849672893400,2.2338935546875,-0.01069474034011364,-0.04178239777684212,-0.005616942886263132
1772525849682877400,2.24387744140625,-0.01646794192492962,-0.017620600759983063,-0.013023726642131805
1772525849692860400,2.2538603515625,-0.017892440780997276,0.0032493481412529945,-0.015183523297309875
1772525849702843400,2.263843505859375,-0.012342147529125214,0.014239947311580181,-0.010075313970446587
1772525849712826400,2.273826416015625,-0.0028840512968599796,0.009564260020852089,-0.005408089142292738
1772525849722810600,2.283810546875,0.004088370595127344,-0.01269044540822506,0.0017978926189243793
1772525849732793300,2.29379345703125,0.007175570819526911,-0.04163628816604614,0.01095327828079462
1772525849742776300,2.3037763671875,0.006349457893520594,-0.05374328792095184,0.02175932005047798
1772525849752759600,2.313759521484375,0.004304876551032066,-0.057110659778118134,0.03168262168765068
1772525849762743600,2.32374365234375,0.011008319444954395,-0.048522498458623886,0.04498004913330078
1772525849772726500,2.3337265625,0.0186923798173666,-0.016374293714761734,0.05453323945403099
1772525849782709200,2.343709228515625,0.029981253668665886,0.0186111219227314,0.05502672493457794
1772525849792693500,2.353693603515625,0.036726824939250946,0.03689200431108475,0.05286059156060219
1772525849802676500,2.363676513671875,0.034375786781311035,0.05364834517240524,0.03878525272011757
1772525849812659500,2.373659423828125,0.023437704890966415,0.05562097951769829,0.035093892365694046
1772525849822642700,2.383642578125,0.006932497955858707,0.05261746421456337,0.02308117225766182
1772525849832626400,2.39362646484375,-0.00606438796967268,0.052922412753105164,0.01735280640423298
1772525849842609400,2.403609375,-0.019345039501786232,0.033135656267404556,0.01116069033741951
1772525849852592400,2.41359228515625,-0.020748035982251167,0.0188833586871624,0.010506995022296906
1772525849862576400,2.423576416015625,-0.014617705717682838,0.011661398224532604,0.005484006367623806
1772525849872559600,2.4335595703125,-0.006742172874510288,0.00445312075316906,-0.004148946609348059
1772525849882542300,2.443542236328125,0.0016819383017718792,0.007784735411405563,-0.01049392856657505
1772525849892525300,2.453525390625,0.00756398681551218,0.016080522909760475,-0.009373394772410393
1772525849902509600,2.463509521484375,0.009293976239860058,0.01517930906265974,-0.009439706802368164
1772525849912492500,2.473492431640625,0.009793490171432495,0.0060064299032092094,-0.0060534351505339146
1772525849922475300,2.483475341796875,0.002202149946242571,-0.008427370339632034,-0.003161508124321699
1772525849932459300,2.493459228515625,-0.01434185542166233,-0.015613926574587822,-0.0027049947530031204
1772525849942442500,2.5034423828125,-0.029405759647488594,-0.029282601550221443,-0.002491408959031105
1772525849952425500,2.513425537109375,-0.037042587995529175,-0.030476467683911324,-0.003494308330118656
1772525849962408400,2.523408447265625,-0.035723522305488586,-0.01829277165234089,-0.009398270398378372
1772525849972392400,2.533392333984375,-0.028530877083539963,-0.004774495959281921,-0.02018095552921295
1772525849982375400,2.54337548828125,-0.019470538944005966,0.007436630316078663,-0.031214430928230286
1772525849992358400,2.5533583984375,-0.013253249228000641,0.012090936303138733,-0.04068990796804428
1772525850002342400,2.56334228515625,-0.01270863227546215,0.004495600238442421,-0.04506254941225052
1772525850012325600,2.57332568359375,-0.005448728799819946,-0.016486013308167458,-0.03998608514666557
1772525850022308400,2.583308349609375,0.004525342024862766,-0.0232379250228405,-0.01811434142291546
1772525850032291300,2.593291259765625,0.010214494541287422,-0.024746157228946686,0.0030089085921645164
1772525850042275300,2.603275390625,0.011917052790522575,-0.02158498391509056,0.028490033000707626
1772525850052258600,2.613258544921875,0.00635148212313652,-0.026621298864483833,0.04903608560562134
1772525850062241500,2.623241455078125,0.0021607326343655586,-0.012888176366686821,0.05439835786819458
1772525850072225300,2.633225341796875,0.004754812456667423,0.009714409708976746,0.049027226865291595
1772525850082208500,2.64320849609375,0.000022641848772764206,0.02731337770819664,0.033262912184000015
1772525850092191500,2.65319140625,0.0007318072021007538,0.03719267621636391,0.02074340358376503
1772525850102174500,2.663174560546875,-0.0009715505875647068,0.03620277717709541,0.012772295624017715
1772525850112158500,2.673158447265625,-0.0006130575202405453,0.02048862725496292,0.010321089997887611
1772525850122141400,2.683141357421875,-0.00048149703070521355,0.001939711975865066,0.014602920040488243
1772525850132124400,2.69312451171875,-0.0032937414944171906,-0.0020880228839814663,0.025394095107913017
1772525850142107400,2.703107421875,-0.0013634823262691498,0.005126746837049723,0.036034755408763885
1772525850152091400,2.71309130859375,-0.0015797847881913185,0.01723744161427021,0.04499758034944534
1772525850162074600,2.72307470703125,0.005502093117684126,0.027558522298932076,0.04761999472975731
1772525850172057300,2.733057373046875,0.015730293467640877,0.028361521661281586,0.04843674972653389
1772525850182041300,2.743041259765625,0.0232143085449934,0.006715081166476011,0.042633190751075745
1772525850192024300,2.7530244140625,0.0238605085760355,-0.01353071816265583,0.035697001963853836
1772525850202007300,2.76300732421875,0.01423770934343338,-0.01636032573878765,0.03492894768714905
1772525850211990000,2.772989990234375,-0.0016305744647979736,-0.002415267052128911,0.04202723875641823
1772525850221974000,2.78297412109375,-0.013964472338557243,0.024884795770049095,0.05504503473639488
1772525850231957200,2.792957275390625,-0.012888802215456963,0.046938762068748474,0.0663246437907219
1772525850241940200,2.802940185546875,-0.009843210689723492,0.05825880169868469,0.06924372911453247
1772525850251924200,2.81292431640625,-0.0033715697936713696,0.05334760621190071,0.05955585837364197
1772525850261907200,2.8229072265625,0.008963659405708313,0.02475271373987198,0.05537549406290054
1772525850271890200,2.83289013671875,0.015560265630483627,-0.009317232295870781,0.04987378045916557
1772525850281873200,2.842873046875,0.018560849130153656,-0.04200327396392822,0.05008763074874878
1772525850291857200,2.852857177734375,0.023157253861427307,-0.056873537600040436,0.049944400787353516
1772525850301840400,2.86284033203125,0.02756744995713234,-0.07375665009021759,0.05735011771321297
1772525850311823000,2.872822998046875,0.0344395749270916,-0.09090615063905716,0.06842632591724396
1772525850321807000,2.88280712890625,0.031032059341669083,-0.07822977006435394,0.08139058947563171
1772525850331790300,2.892790283203125,0.026115640997886658,-0.05199524015188217,0.08880176395177841
1772525850341773300,2.902773193359375,0.016885658726096153,-0.026190541684627533,0.08668135851621628
1772525850351756000,2.912756103515625,0.015154391527175903,-0.004629703238606453,0.08209387212991714
1772525850361740000,2.922739990234375,0.014030003920197487,0.01579088345170021,0.0746343582868576
1772525850371723300,2.93272314453125,0.020364055410027504,0.00891084410250187,0.0641394555568695
1772525850381706200,2.942706298828125,0.02852318249642849,-0.020419081673026085,0.05445487052202225
1772525850391690200,2.952690185546875,0.03729257732629776,-0.045007504522800446,0.04863275960087776
1772525850401673200,2.962673095703125,0.042617570608854294,-0.05651422217488289,0.05525417625904083
1772525850411656200,2.97265625,0.041813112795352936,-0.05590769276022911,0.05721241608262062
1772525850421639200,2.98263916015625,0.04085464030504227,-0.03785225749015808,0.06647302210330963
1772525850431623200,2.992623046875,0.04070268198847771,-0.02362866699695587,0.07472548633813858
1772525850441606400,3.0026064453125,0.04263267293572426,-0.012325412593781948,0.08630544692277908
1772525850451589000,3.012589111328125,0.04485997185111046,-0.007824515923857689,0.08991876244544983
1772525850461573000,3.022572998046875,0.041475892066955566,-0.016423597931861877,0.09518170356750488
1772525850471556000,3.03255615234375,0.033220794051885605,-0.01767091080546379,0.0888945683836937
1772525850481539300,3.042539306640625,0.021014196798205376,-0.009073426946997643,0.0806179940700531
1772525850491522300,3.052522216796875,0.012069044634699821,-0.00656870799139142,0.07032337784767151
1772525850501506000,3.062506103515625,0.009725995361804962,-0.01593824103474617,0.05695883184671402
1772525850511489300,3.0724892578125,0.010801827535033226,-0.03119388222694397,0.048153847455978394
1772525850521472300,3.08247216796875,0.008342929184436798,-0.04545937106013298,0.04619375988841057
1772525850531455200,3.092455322265625,0.010909419506788254,-0.052102625370025635,0.04264536499977112
1772525850541439200,3.102439208984375,0.013083741068840027,-0.05263117700815201,0.040313780307769775
1772525850551422200,3.112422119140625,0.010638926178216934,-0.04747631773352623,0.03800322115421295
1772525850561405200,3.1224052734375,0.01217796839773655,-0.03539728745818138,0.03547801077365875
1772525850571389200,3.13238916015625,0.012178042903542519,-0.022392189130187035,0.026027675718069077
1772525850581372200,3.1423720703125,0.00935802049934864,-0.01520112156867981,0.018191322684288025
1772525850591355100,3.152355224609375,0.009521817788481712,-0.0040256427600979805,0.007419216446578503
1772525850601338000,3.162338134765625,0.004184310790151358,-0.0009749920573085546,0.0087534599006176
1772525850611322000,3.172322021484375,-0.003078994806855917,0.0027359146624803543,0.012843885459005833
1772525850621305300,3.182305419921875,-0.0036063005682080984,0.010166666470468044,0.02031724900007248
1772525850631288300,3.192288330078125,-0.001059496309608221,0.022008739411830902,0.027302289381623268
1772525850641272300,3.202272216796875,-0.0029676512349396944,0.02451956644654274,0.03833203762769699
1772525850651255000,3.212255126953125,-0.00007207319140434265,0.023139426484704018,0.04877494275569916
1772525850661238300,3.22223828125,0.001626491080969572,0.01262100599706173,0.05865740031003952
1772525850671221200,3.23222119140625,0.0018221796490252018,-0.004306074697524309,0.06391363590955734
1772525850681205200,3.242205322265625,0.007958635687828064,-0.004136963747441769,0.07091934978961945
1772525850691188200,3.252188232421875,0.01870662346482277,-0.004428442567586899,0.07702332735061646
1772525850701171200,3.262171142578125,0.02213437855243683,0.004973048809915781,0.07839672267436981
1772525850711155200,3.2721552734375,0.03034934215247631,0.02522813342511654,0.07795004546642303
1772525850721138200,3.28213818359375,0.029551459476351738,0.04609266668558121,0.07779664546251297
1772525850731121400,3.292121337890625,0.02827569842338562,0.05826219171285629,0.0716121569275856
1772525850741104000,3.302104248046875,0.025305211544036865,0.0612928681075573,0.062368594110012054
1772525850751088000,3.312088134765625,0.020583171397447586,0.04065153747797012,0.04218228533864021
1772525850761071000,3.322071044921875,0.0159697774797678,0.015979211777448654,0.023303667083382607
1772525850771054300,3.332054443359375,0.010981941595673561,0.0022383660543709993,0.004594428464770317
1772525850781038300,3.342038330078125,0.015593739226460457,-0.006703730206936598,-0.01205245777964592
1772525850791021000,3.35202099609375,0.017399916425347328,-0.016878405585885048,-0.020208578556776047
1772525850801004300,3.36200439453125,0.01896745339035988,-0.010534223169088364,-0.02252659574151039
1772525850810987300,3.3719873046875,0.017413070425391197,-0.0017366847023367882,-0.01769658736884594
1772525850820971300,3.38197119140625,0.011877955868840218,0.00881129689514637,-0.01143576204776764
1772525850830954200,3.391954345703125,0.01032890286296606,0.024641983211040497,-0.014468207955360413
1772525850840937200,3.401937255859375,0.003482980653643608,0.018613917753100395,-0.013034895062446594
1772525850850920200,3.411920166015625,0.004036406520754099,0.01599755696952343,-0.012764239683747292
1772525850860904200,3.421904296875,0.0025274590589106083,0.007240285165607929,-0.007225929759442806
1772525850870887200,3.43188720703125,0.006266304757446051,-0.006983164232224226,-0.006945505738258362
1772525850880870100,3.4418701171875,0.005372281651943922,-0.019269924610853195,-0.010372727178037167
1772525850890854100,3.451854248046875,0.005299948621541262,-0.02085631713271141,-0.014074422419071198
1772525850900837000,3.461837158203125,0.0018037515692412853,-0.019237380474805832,-0.016462478786706924
1772525850910820400,3.4718203125,-0.002091619186103344,-0.01895512081682682,-0.023223191499710083
1772525850920803300,3.48180322265625,-0.008645924739539623,-0.021159151569008827,-0.03491979464888573
1772525850930787000,3.491787109375,-0.018408246338367462,-0.030721798539161682,-0.04843565449118614
1772525850940770000,3.50177001953125,-0.02199579030275345,-0.04726961627602577,-0.06420822441577911
1772525850950753300,3.511753173828125,-0.029937347397208214,-0.05576527118682861,-0.07531562447547913
1772525850960737300,3.5217373046875,-0.02335747517645359,-0.05254817381501198,-0.0798235535621643
1772525850970720300,3.53172021484375,-0.016957418993115425,-0.05015428364276886,-0.08265987783670425
1772525850980703200,3.541703125,-0.00886647030711174,-0.05564785376191139,-0.07962999492883682
1772525850990686200,3.551686279296875,-0.003163289511576295,-0.051487796008586884,-0.07232113927602768
1772525851000670200,3.561670166015625,-0.004556921776384115,-0.04162211716175079,-0.05439113825559616
1772525851010653200,3.571653076171875,-0.0025199437513947487,-0.032553479075431824,-0.037896446883678436
1772525851020636200,3.58163623046875,-0.00700896792113781,-0.015938816592097282,-0.02149830013513565
1772525851030620200,3.5916201171875,-0.0005425042472779751,0.0030364729464054108,-0.00012044468894600868
1772525851040603100,3.60160302734375,0.008886151015758514,0.012936507351696491,0.014484863728284836
1772525851050586000,3.611586181640625,0.017315279692411423,0.019495218992233276,0.027749110013246536
1772525851060569300,3.6215693359375,0.0214501041918993,0.02372325211763382,0.03660545125603676
1772525851070553300,3.63155322265625,0.021298708394169807,0.018019836395978928,0.04041386768221855
1772525851080536000,3.6415361328125,0.01908482238650322,0.012419208884239197,0.036526985466480255
1772525851090519300,3.651519287109375,0.021234706044197083,0.006837628781795502,0.02466738224029541
1772525851100502300,3.661502197265625,0.022941259667277336,0.00226764427497983,0.007421017158776522
1772525851110486300,3.671486328125,0.026993995532393456,-0.001440330408513546,-0.007752044592052698
1772525851120469000,3.681468994140625,0.031505655497312546,0.0019440146861597896,-0.01990484818816185
1772525851130452200,3.6914521484375,0.030335748568177223,0.0001654850784689188,-0.03560090810060501
1772525851140436200,3.701436279296875,0.028126390650868416,-0.00906982459127903,-0.040745336562395096
1772525851150419200,3.711419189453125,0.021850036457180977,-0.01653265953063965,-0.036933042109012604
1772525851160402200,3.721402099609375,0.019748270511627197,-0.02015775442123413,-0.025756020098924637
1772525851170385200,3.73138525390625,0.015105707570910454,-0.015699371695518494,-0.00714860437437892
1772525851180369200,3.741369140625,0.01298077218234539,-0.018823526799678802,0.008445801213383675
1772525851190352100,3.75135205078125,0.010357920080423355,-0.02208547666668892,0.02353547513484955
1772525851200335000,3.761335205078125,0.004781794268637896,-0.02654946967959404,0.03250367194414139
1772525851210319000,3.771319091796875,-0.00256360718049109,-0.023390552029013634,0.03132188692688942
1772525851220302000,3.781302001953125,-0.008959720842540264,-0.012891573831439018,0.029002005234360695
1772525851230285000,3.79128515625,-0.014556441456079483,-0.0004736557602882385,0.023265555500984192
1772525851240268300,3.801268310546875,-0.011966783553361893,0.0096809770911932,0.013259259052574635
1772525851250252000,3.811251953125,-0.00736341392621398,0.009549837559461594,-0.0007823202759027481
1772525851260235000,3.821235107421875,-0.006457406561821699,-0.0026817950420081615,-0.013264555484056473
1772525851270218200,3.83121826171875,-0.009995457716286182,-0.017866995185613632,-0.01913166046142578
1772525851280201200,3.841201171875,-0.013630673289299011,-0.02717740833759308,-0.014741973020136356
1772525851290185200,3.851185302734375,-0.016525795683264732,-0.024161258712410927,-0.003669310826808214
1772525851300168000,3.86116796875,-0.020514678210020065,-0.030277207493782043,0.011217227205634117
1772525851310151200,3.871151123046875,-0.022747814655303955,-0.02773251384496689,0.022255903109908104
1772525851320135200,3.88113525390625,-0.017856651917099953,-0.014477161690592766,0.03540792316198349
1772525851330118100,3.8911181640625,-0.010781335644423962,0.004642358515411615,0.0492086298763752
1772525851340101000,3.90110107421875,-0.0004205740988254547,0.016243088990449905,0.05401377007365227
1772525851350084000,3.911083984375,0.009993568062782288,0.03982147201895714,0.058715593069791794
1772525851360068000,3.921068115234375,0.019567366689443588,0.04825570434331894,0.05647055059671402
1772525851370051000,3.931051025390625,0.023964010179042816,0.03398152068257332,0.05207950249314308
1772525851380034300,3.941034423828125,0.020007619634270668,0.009090551175177097,0.0443882942199707
1772525851390018300,3.951018310546875,0.01778074912726879,-0.01274358294904232,0.03607572987675667
1772525851400001000,3.9610009765625,0.017511237412691116,-0.02580265887081623,0.023001741617918015
1772525851409984000,3.97098388671875,0.013806461356580257,-0.031168419867753983,0.02001122571527958
1772525851419967200,3.98096728515625,0.013750000856816769,-0.030900239944458008,0.016916366294026375
1772525851429951200,3.990951171875,0.011514158919453621,-0.02428063564002514,0.022343318909406662
1772525851439934000,4.000933837890625,0.013591159135103226,-0.024900885298848152,0.041669610887765884
1772525851449917200,4.010917236328125,0.01624494418501854,-0.01166500523686409,0.06230906397104263
1772525851459901200,4.020901123046875,0.019477223977446556,0.0165605079382658,0.08393552899360657
1772525851469884200,4.03088427734375,0.028961699455976486,0.03585159406065941,0.09828081727027893
1772525851479867100,4.0408671875,0.04120931029319763,0.048885103315114975,0.11074254661798477
1772525851489850000,4.05085009765625,0.05663054436445236,0.04924377426505089,0.11758850514888763
1772525851499834000,4.060834228515625,0.06270468235015869,0.04455607756972313,0.1255260556936264
1772525851509817000,4.070817138671875,0.07063663750886917,0.03544044494628906,0.12867987155914307
1772525851519800000,4.080800048828125,0.08034519106149673,0.015524791553616524,0.12866416573524475
1772525851529783000,4.090782958984375,0.09384433180093765,-0.00841374509036541,0.12748359143733978
1772525851539767000,4.10076708984375,0.1019832193851471,-0.022111449390649796,0.12459246814250946
1772525851549750000,4.11075,0.10600968450307846,-0.04459375888109207,0.11959528923034668
1772525851559733200,4.120733154296875,0.10061358660459518,-0.06511847674846649,0.11075279861688614
1772525851569717200,4.13071728515625,0.0855269506573677,-0.08284249901771545,0.088481105864048
1772525851579700200,4.1407001953125,0.0669945478439331,-0.10362207889556885,0.06607140600681305
1772525851589683000,4.150682861328125,0.05230597034096718,-0.1269892007112503,0.03987446427345276
1772525851599666200,4.160666259765625,0.03599703684449196,-0.13690680265426636,0.018772641196846962
1772525851609650200,4.170650146484375,0.016168151050806046,-0.14893686771392822,-0.009298192337155342
1772525851619633200,4.180633056640625,0.011708688922226429,-0.1740584671497345,-0.026693960651755333
1772525851629616000,4.1906162109375,0.0052473885007202625,-0.1794051080942154,-0.041991740465164185
1772525851639600000,4.20060009765625,0.003952825907617807,-0.16168096661567688,-0.05186008661985397
1772525851649583000,4.2105830078125,0.001186814159154892,-0.13264933228492737,-0.055707868188619614
1772525851659566000,4.220566162109375,-0.0016196249052882195,-0.10601932555437088,-0.05039805918931961
1772525851669549300,4.23054931640625,-0.010754778981208801,-0.09440401941537857,-0.03925851359963417
1772525851679533000,4.240532958984375,-0.018669160082936287,-0.09458538144826889,-0.02746736630797386
1772525851689516000,4.25051611328125,-0.026672683656215668,-0.11465553939342499,-0.0073763541877269745
1772525851699499000,4.2604990234375,-0.029137173667550087,-0.13795846700668335,0.006551179103553295
1772525851709482200,4.270482177734375,-0.041988685727119446,-0.17328444123268127,0.026377711445093155
1772525851719466200,4.28046630859375,-0.0550520233809948,-0.18438182771205902,0.04369598254561424
1772525851729449000,4.290448974609375,-0.07475453615188599,-0.18780773878097534,0.0546027347445488
1772525851739432200,4.30043212890625,-0.09135854244232178,-0.19041070342063904,0.06251604855060577
1772525851749416200,4.310416259765625,-0.10955802351236343,-0.1889173835515976,0.06090960651636124
1772525851759399200,4.320399169921875,-0.12234839051961899,-0.19318988919258118,0.060063786804676056
1772525851769382000,4.3303818359375,-0.13143296539783478,-0.17679589986801147,0.056164223700761795
1772525851779365000,4.340365234375,-0.14600925147533417,-0.13609960675239563,0.04500531032681465
1772525851789349000,4.35034912109375,-0.16274715960025787,-0.09121716022491455,0.026153534650802612
1772525851799332000,4.36033203125,-0.1741257756948471,-0.06894487887620926,0.007276251446455717
1772525851809315300,4.3703154296875,-0.17790333926677704,-0.06132103130221367,-0.004454880487173796
1772525851819299300,4.38029931640625,-0.18226799368858337,-0.06903860718011856,-0.014501389116048813
1772525851829282000,4.390281982421875,-0.18401116132736206,-0.08679627627134323,-0.02322501689195633
1772525851839265000,4.40026513671875,-0.1889217495918274,-0.10853992402553558,-0.028357990086078644
1772525851849248300,4.410248291015625,-0.1975451558828354,-0.1184157133102417,-0.037869781255722046
1772525851859232300,4.420232177734375,-0.2180624157190323,-0.12848033010959625,-0.0449865460395813
1772525851869215000,4.430215087890625,-0.2136813998222351,-0.15831458568572998,-0.047153543680906296
1772525851879198000,4.440197998046875,-0.2032703012228012,-0.15833988785743713,-0.0465327613055706
1772525851889181200,4.45018115234375,-0.17094182968139648,-0.14797668159008026,-0.05282080918550491
1772525851899165200,4.460165283203125,-0.1366160809993744,-0.12661252915859222,-0.05622805655002594
1772525851909148200,4.470148193359375,-0.09997318685054779,-0.10319546610116959,-0.055803678929805756
1772525851919131100,4.480131103515625,-0.06748901307582855,-0.0702497661113739,-0.06071588397026062
1772525851929115100,4.490115234375,-0.04361454397439957,-0.03377661481499672,-0.061404336243867874
1772525851939098000,4.50009814453125,-0.021082602441310883,-0.018058903515338898,-0.058166731148958206
1772525851949081000,4.5100810546875,-0.0036970609799027443,-0.019257647916674614,-0.04881007969379425
1772525851959064000,4.52006396484375,0.011792950332164764,-0.025090238079428673,-0.034217555075883865
1772525851969048000,4.530048095703125,0.020810499787330627,-0.02815341204404831,-0.021728359162807465
1772525851979031000,4.540031005859375,0.02480391040444374,-0.033241648226976395,-0.009081273339688778
1772525851989014300,4.55001416015625,0.024557480588555336,-0.044897228479385376,-0.0006374921649694443
1772525851998998300,4.559998291015625,0.02446134015917778,-0.06334521621465683,0.002330601215362549
1772525852008981200,4.569981201171875,0.02534160017967224,-0.06801041215658188,0.0021583139896392822
1772525852018964000,4.5799638671875,0.02508593536913395,-0.06129312515258789,-0.00046729622408747673
1772525852028947200,4.589947265625,0.0231211856007576,-0.04204980656504631,-0.0036945845931768417
1772525852038931200,4.59993115234375,0.023419460281729698,-0.016968421638011932,-0.011010288260877132
1772525852048914200,4.6099140625,0.019056666642427444,-0.01184995286166668,-0.01658005081117153
1772525852058897000,4.61989697265625,0.01403714157640934,-0.0162404403090477,-0.02559431828558445
1772525852068880100,4.629880126953125,0.012970415875315666,-0.02338569052517414,-0.03793824091553688
1772525852078864100,4.639864013671875,0.007532508112490177,-0.017647909000515938,-0.049001544713974
1772525852088847000,4.64984716796875,-0.0015944112092256546,-0.00890395138412714,-0.06538104265928268
1772525852098830300,4.659830322265625,-0.01399382296949625,0.008864392526447773,-0.08314752578735352
1772525852108814000,4.66981396484375,-0.025598321110010147,0.02574324421584606,-0.09358245879411697
1772525852118797000,4.679797119140625,-0.038578566163778305,0.025145897641777992,-0.10509184002876282
1772525852128779300,4.689779296875,-0.055802345275878906,0.029791491106152534,-0.1126299723982811
1772525852138762000,4.699761962890625,-0.076723612844944,0.03603900223970413,-0.12611141800880432
1772525852148746000,4.70974609375,-0.11587375402450562,0.05429061874747276,-0.15270137786865234
1772525852158729000,4.71972900390625,-0.18164105713367462,0.07667182385921478,-0.20281966030597687
1772525852168712200,4.729712158203125,-0.2657073736190796,0.10602346807718277,-0.2636093199253082
1772525852178696200,4.7396962890625,-0.3658270537853241,0.18689249455928802,-0.34257763624191284
1772525852188679200,4.74967919921875,-0.45987096428871155,0.24896414577960968,-0.41684475541114807
1772525852198662000,4.759661865234375,-0.5024778246879578,0.21177522838115692,-0.465298593044281
1772525852208644900,4.769644775390625,-0.48464235663414,0.09617210924625397,-0.490461528301239
1772525852218628900,4.77962890625,-0.39823129773139954,0.003880790900439024,-0.5153384208679199
1772525852228611800,4.78961181640625,-0.29228225350379944,-0.02603619173169136,-0.5463873744010925
1772525852238594800,4.7995947265625,-0.15195976197719574,-0.07558643817901611,-0.5703124403953552
1772525852248578800,4.809578857421875,-0.03418881818652153,-0.18686017394065857,-0.5772181749343872
1772525852258561800,4.819561767578125,0.061696697026491165,-0.32053327560424805,-0.561992883682251
1772525852268545000,4.829544921875,0.1286623179912567,-0.44598710536956787,-0.5420362949371338
1772525852278528000,4.839528076171875,0.16746403276920319,-0.5267815589904785,-0.5202476978302002
1772525852288511700,4.84951171875,0.19644472002983093,-0.46847689151763916,-0.4974519908428192
1772525852298494700,4.85949462890625,0.2289171814918518,-0.3769482970237732,-0.46211156249046326
1772525852308478000,4.86947802734375,0.2704431414604187,-0.21381275355815887,-0.41292572021484375
1772525852318461000,4.8794609375,0.30284902453422546,-0.040567994117736816,-0.3439525067806244
1772525852328445000,4.88944482421875,0.32303401827812195,0.14049530029296875,-0.2626654803752899
1772525852338428000,4.899427978515625,0.3244872987270355,0.34786444902420044,-0.18735261261463165
1772525852348411000,4.909410888671875,0.3082622289657593,0.5980796217918396,-0.11155517399311066
1772525852358395000,4.919394775390625,0.2770023047924042,0.9145814180374146,-0.03958883509039879
1772525852368377900,4.9293779296875,0.22426435351371765,1.2587084770202637,0.029684338718652725
1772525852378360800,4.93936083984375,0.1631043255329132,1.5942342281341553,0.10827874392271042
1772525852388343800,4.94934375,0.10054247826337814,1.8601973056793213,0.19459043443202972
1772525852398327800,4.959327880859375,0.04118514806032181,2.0260941982269287,0.28983357548713684
1772525852408310800,4.969310791015625,-0.007732875645160675,2.0420849323272705,0.41013866662979126
1772525852418294000,4.9792939453125,-0.0445803701877594,1.8733806610107422,0.5566641688346863
1772525852428278000,4.989278076171875,-0.08248909562826157,1.5956133604049683,0.6883102655410767
1772525852438260700,4.9992607421875,-0.10605514049530029,1.3089927434921265,0.7844407558441162
1772525852448244000,5.009243896484375,-0.12304335087537766,1.064578890800476,0.828498125076294
1772525852458227000,5.01922705078125,-0.1424812376499176,0.7943215370178223,0.8238874077796936
1772525852468211000,5.0292109375,-0.13925905525684357,0.45974892377853394,0.765397846698761
1772525852478193700,5.039193603515625,-0.07916056364774704,0.1365615427494049,0.648544430732727
1772525852488177000,5.049177001953125,0.02401164174079895,-0.09564490616321564,0.4833431541919708
1772525852498161000,5.059160888671875,0.16195058822631836,-0.23219981789588928,0.29648539423942566
1772525852508143900,5.069143798828125,0.30783435702323914,-0.28882840275764465,0.12485753744840622
1772525852518126800,5.079126953125,0.431647390127182,-0.27401483058929443,-0.02191086672246456
1772525852528109800,5.08910986328125,0.5234870910644531,-0.22011218965053558,-0.13210630416870117
1772525852538093800,5.09909375,0.5631221532821655,-0.1503264605998993,-0.2071073204278946
1772525852548076800,5.109076904296875,0.5589171051979065,-0.09103724360466003,-0.25330638885498047
1772525852558060000,5.11906005859375,0.5170308947563171,-0.031053002923727036,-0.27220603823661804
1772525852568042800,5.129042724609375,0.4507247507572174,0.056838154792785645,-0.2728218138217926
1772525852578026800,5.13902685546875,0.3622819781303406,0.16822326183319092,-0.2595270276069641
1772525852588009700,5.149009765625,0.25599291920661926,0.2591134309768677,-0.23577949404716492
1772525852597993000,5.158992919921875,0.15165507793426514,0.32660219073295593,-0.20095068216323853
1772525852607977000,5.16897705078125,0.06254326552152634,0.37212666869163513,-0.15978474915027618
1772525852617960000,5.1789599609375,-0.008769264444708824,0.41855141520500183,-0.11060948669910431
1772525852627943000,5.18894287109375,-0.05391361564397812,0.4711657762527466,-0.05827292799949646
1772525852637926000,5.19892578125,-0.07286813110113144,0.5229690074920654,-0.00228769239038229
1772525852647910000,5.208909912109375,-0.0699559897184372,0.5607472062110901,0.062360748648643494
1772525852657892900,5.218892822265625,-0.06039896234869957,0.5829601287841797,0.1284196674823761
1772525852667875800,5.228875732421875,-0.04604330286383629,0.6063987016677856,0.18701760470867157
1772525852677858800,5.23885888671875,-0.03896595165133476,0.6346715688705444,0.24097298085689545
1772525852687842800,5.2488427734375,-0.043933164328336716,0.6767664551734924,0.27931666374206543
1772525852697825800,5.25882568359375,-0.05383745953440666,0.717524528503418,0.3042587637901306
1772525852707809000,5.26880908203125,-0.059527620673179626,0.7150325775146484,0.3263871967792511
1772525852717792800,5.278792724609375,-0.050746381282806396,0.6730507612228394,0.33904704451560974
1772525852727775700,5.288775634765625,-0.02663920260965824,0.5958340764045715,0.337406724691391
1772525852737759000,5.298759033203125,-0.005034042522311211,0.4699099659919739,0.3134337365627289
1772525852747742000,5.308741943359375,0.012501925230026245,0.31731078028678894,0.2682127356529236
1772525852757726000,5.318725830078125,0.01872466690838337,0.1618141382932663,0.20532192289829254
1772525852767708700,5.328708740234375,0.02579825557768345,0.03985137864947319,0.13158248364925385
1772525852777692000,5.33869189453125,0.026549799367785454,-0.05223327502608299,0.052649859338998795
1772525852787675000,5.3486748046875,0.033205755054950714,-0.11691625416278839,-0.02126939222216606
1772525852797659000,5.358658935546875,0.049577005207538605,-0.1558881551027298,-0.08790834248065948
1772525852807641900,5.368641845703125,0.06237143650650978,-0.17191456258296967,-0.1410401463508606
1772525852817624800,5.378624755859375,0.07622972875833511,-0.1584717333316803,-0.17861948907375336
1772525852827608800,5.38860888671875,0.07027482241392136,-0.13677623867988586,-0.20485946536064148
1772525852837591800,5.398591796875,0.07006710022687912,-0.11803131550550461,-0.20950721204280853
1772525852847575000,5.408574951171875,0.0574263259768486,-0.10330814868211746,-0.1959906369447708
1772525852857557800,5.418557861328125,0.04331742972135544,-0.110955148935318,-0.1688264012336731
1772525852867541800,5.428541748046875,0.03660961613059044,-0.11276736110448837,-0.12977418303489685
1772525852877524700,5.438524658203125,0.03750576823949814,-0.06453325599431992,-0.08828158676624298
1772525852887508000,5.448508056640625,0.04615475609898567,0.015941407531499863,-0.04605387896299362
1772525852897492000,5.458491943359375,0.058342982083559036,0.11119628697633743,0.005325956270098686
1772525852907474700,5.468474609375,0.06282296776771545,0.19990132749080658,0.05717804655432701
1772525852917458000,5.4784580078125,0.05691501870751381,0.27325594425201416,0.11215048283338547
1772525852927441000,5.48844091796875,0.04404096677899361,0.3127296566963196,0.16659513115882874
1772525852937425000,5.4984248046875,0.030976030975580215,0.32986605167388916,0.2203395962715149
1772525852947408000,5.508407958984375,0.025370372459292412,0.3410535454750061,0.26814889907836914
1772525852957390800,5.518390869140625,0.022432107478380203,0.3920975625514984,0.3121128976345062
1772525852967373800,5.528373779296875,0.033690713346004486,0.46525660157203674,0.33920276165008545
1772525852977357800,5.53835791015625,0.04954824224114418,0.5166378021240234,0.35977834463119507
1772525852987340800,5.5483408203125,0.05917378142476082,0.5243555903434753,0.3814885914325714
1772525852997323800,5.55832373046875,0.06329448521137238,0.48292452096939087,0.37763285636901855
1772525853007307800,5.568307861328125,0.05063397064805031,0.4195031225681305,0.36439239978790283
1772525853017290800,5.578290771484375,0.02838538959622383,0.35315898060798645,0.3307132422924042
1772525853027274000,5.58827392578125,0.01222146488726139,0.28633320331573486,0.2814777195453644
1772525853037257000,5.598257080078125,-0.005899481941014528,0.21922846138477325,0.21812859177589417
1772525853047241000,5.608240966796875,-0.023106105625629425,0.13388870656490326,0.14498189091682434
1772525853057223700,5.6182236328125,-0.03527488559484482,0.04521690681576729,0.07085466384887695
1772525853067207000,5.62820703125,-0.044122181832790375,-0.02461080625653267,-0.0008513815701007843
1772525853077190000,5.63818994140625,-0.061330996453762054,-0.05420332029461861,-0.0668003037571907
1772525853087174000,5.648173828125,-0.06937812268733978,-0.05841626226902008,-0.11455399543046951
1772525853097156900,5.658156982421875,-0.0715738981962204,-0.053150661289691925,-0.13974057137966156
1772525853107139800,5.668139892578125,-0.07155490666627884,-0.04564308747649193,-0.14339227974414825
1772525853117123800,5.678123779296875,-0.062500961124897,-0.04901837557554245,-0.12614963948726654
1772525853127106800,5.68810693359375,-0.04930630326271057,-0.039175402373075485,-0.09282463043928146
1772525853137090000,5.698090087890625,-0.02740846388041973,-0.016320686787366867,-0.05016797408461571
1772525853147072800,5.70807275390625,-0.00814616959542036,0.011339185759425163,0.0008136671967804432
1772525853157056800,5.718056884765625,0.012174282222986221,0.048288147896528244,0.06195851415395737
1772525853167039700,5.728039794921875,0.02264394797384739,0.0916786938905716,0.11985824257135391
1772525853177023000,5.73802294921875,0.019799424335360527,0.15950195491313934,0.17228949069976807
1772525853187007000,5.748007080078125,0.015714602544903755,0.22143104672431946,0.20750370621681213
1772525853196990500,5.757990478515625,0.01693752594292164,0.26066580414772034,0.22719991207122803
1772525853206973400,5.767973388671875,0.016506146639585495,0.2791995704174042,0.23493033647537231
1772525853216956700,5.777956787109375,0.023721715435385704,0.2813119888305664,0.22935765981674194
1772525853226940700,5.787940673828125,0.03187015652656555,0.254103422164917,0.22507932782173157
1772525853236923400,5.79792333984375,0.04271028935909271,0.2173488885164261,0.21097682416439056
1772525853246906600,5.80790673828125,0.045312464237213135,0.19180570542812347,0.19994840025901794
1772525853256889600,5.8178896484375,0.05275733023881912,0.14594660699367523,0.18294411897659302
1772525853266873600,5.82787353515625,0.05767805501818657,0.10867460072040558,0.16935667395591736
1772525853276856600,5.837856689453125,0.061494629830121994,0.10367903858423233,0.16141380369663239
1772525853286839600,5.847839599609375,0.05241585895419121,0.12119222432374954,0.1589369922876358
1772525853296823600,5.857823486328125,0.03821508586406708,0.1430456042289734,0.15693004429340363
1772525853306806500,5.867806640625,0.020574934780597687,0.15968531370162964,0.13547846674919128
1772525853316789500,5.87778955078125,0.005814898293465376,0.11973843723535538,0.106997549533844
1772525853326772700,5.887772705078125,-0.00037464965134859085,0.0403602309525013,0.07104816287755966
1772525853336756500,5.897756591796875,-0.011478167027235031,-0.038297031074762344,0.03948597237467766
1772525853346739500,5.907739501953125,-0.026609566062688828,-0.08989959210157394,0.01678624004125595
1772525853356722700,5.91772265625,-0.03359370678663254,-0.10508866608142853,-0.012110655196011066
1772525853366705700,5.92770556640625,-0.025985751301050186,-0.13925138115882874,-0.045929934829473495
1772525853376689700,5.937689697265625,-0.015939775854349136,-0.19559668004512787,-0.08503499627113342
1772525853386672400,5.94767236328125,-0.006209635641425848,-0.2371312975883484,-0.11980461329221725
1772525853396655600,5.957655517578125,0.008225762285292149,-0.2730056941509247,-0.14950712025165558
1772525853406639600,5.9676396484375,0.02061404287815094,-0.29071393609046936,-0.16981929540634155
1772525853416622600,5.97762255859375,0.029353205114603043,-0.28466641902923584,-0.18339741230010986
1772525853426605600,5.98760546875,0.03011731058359146,-0.2796170711517334,-0.18447022140026093
1772525853436588500,5.997588623046875,0.018932299688458443,-0.27577945590019226,-0.17841872572898865
1772525853446572500,6.007572509765625,0.0074830735102295876,-0.2683038115501404,-0.16244345903396606
1772525853456555500,6.017555419921875,0.0024941740557551384,-0.27118775248527527,-0.14295364916324615
1772525853466538800,6.027538818359375,0.0023189769126474857,-0.2887100279331207,-0.12247353792190552
1772525853476522800,6.037522705078125,0.013422761112451553,-0.29566460847854614,-0.10818860679864883
1772525853486505500,6.04750537109375,0.0238206647336483,-0.30087965726852417,-0.08951663225889206
1772525853496488400,6.057488525390625,0.03676868602633476,-0.29212555289268494,-0.07659737020730972
1772525853506471700,6.0674716796875,0.049337584525346756,-0.2597216069698334,-0.06375240534543991
1772525853516455700,6.07745556640625,0.043190743774175644,-0.2192428857088089,-0.05694270133972168
1772525853526438400,6.0874384765625,0.03263819217681885,-0.1883293092250824,-0.05222213640809059
1772525853536421600,6.097421630859375,0.02242070809006691,-0.18185542523860931,-0.04499990865588188
1772525853546404600,6.107404541015625,0.010295826941728592,-0.15920670330524445,-0.03858930245041847
1772525853556388600,6.117388671875,-0.0070996759459376335,-0.1030113473534584,-0.03706517443060875
1772525853566371600,6.12737158203125,-0.013448246754705906,-0.0574134886264801,-0.041562896221876144
1772525853576354600,6.1373544921875,-0.011863399296998978,-0.0351361446082592,-0.042117100208997726
1772525853586338600,6.147338623046875,-0.004048096016049385,-0.0242767371237278,-0.048163171857595444
1772525853596321500,6.157321533203125,-0.0004043588414788246,-0.031705621629953384,-0.059778280556201935
1772525853606304800,6.1673046875,-0.0022684354335069656,-0.05082297697663307,-0.06566034257411957
1772525853616287500,6.17728759765625,-0.0036809761077165604,-0.10980400443077087,-0.07377658784389496
1772525853626271500,6.187271484375,-0.007411920465528965,-0.18573403358459473,-0.07268698513507843
1772525853636254500,6.19725439453125,-0.010426351800560951,-0.24281994998455048,-0.068889319896698
1772525853646237700,6.20723779296875,-0.01956706866621971,-0.2639752924442291,-0.07013322412967682
1772525853656221700,6.2172216796875,-0.02209414169192314,-0.2709048390388489,-0.06385855376720428
1772525853666204700,6.22720458984375,-0.03032759763300419,-0.2920764684677124,-0.05495915934443474
1772525853676187400,6.2371875,-0.044439952820539474,-0.3016960918903351,-0.047419484704732895
1772525853686170600,6.247170654296875,-0.061584945768117905,-0.3056732714176178,-0.0431588813662529
1772525853696154600,6.257154541015625,-0.07998073101043701,-0.3156851828098297,-0.03745252639055252
1772525853706137600,6.2671376953125,-0.09146421402692795,-0.32253730297088623,-0.03966965526342392
1772525853716120600,6.27712060546875,-0.10634409636259079,-0.33217766880989075,-0.04615258798003197
1772525853726103600,6.287103515625,-0.11104677617549896,-0.3427290916442871,-0.05219036713242531
1772525853736087600,6.297087646484375,-0.11396507173776627,-0.3509529232978821,-0.06431041657924652
1772525853746070500,6.307070556640625,-0.11047020554542542,-0.3566025495529175,-0.0735345408320427
1772525853756053800,6.3170537109375,-0.10131372511386871,-0.3529298007488251,-0.08066089451313019
1772525853766037500,6.32703759765625,-0.08728249371051788,-0.3364407420158386,-0.09029504656791687
1772525853776020500,6.3370205078125,-0.0739525705575943,-0.3092312216758728,-0.098140187561512
1772525853786003700,6.347003662109375,-0.059618402272462845,-0.27426618337631226,-0.10320602357387543
1772525853795986700,6.356986572265625,-0.035255540162324905,-0.24911075830459595,-0.10389871150255203
1772525853805970700,6.366970703125,-0.01877816580235958,-0.22042173147201538,-0.10022575408220291
1772525853815953400,6.376953369140625,-0.001807971391826868,-0.17812460660934448,-0.09347357600927353
1772525853825936600,6.3869365234375,0.00928952544927597,-0.12542591989040375,-0.07786042988300323
1772525853835919600,6.396919677734375,0.015016388148069382,-0.07320959120988846,-0.05706939473748207
1772525853845903600,6.406903564453125,0.008151352405548096,-0.048092857003211975,-0.02992837503552437
1772525853855886300,6.41688623046875,0.0043153357692062855,-0.03650304675102234,0.00002180086448788643
1772525853865869600,6.42686962890625,0.003317940980195999,-0.010966788977384567,0.02701093815267086
1772525853875853600,6.436853515625,0.005128358490765095,0.025082025676965714,0.04679929092526436
1772525853885836500,6.44683642578125,0.007126472424715757,0.047498758882284164,0.06401576101779938
1772525853895819800,6.45681982421875,0.008699867874383926,0.08352254331111908,0.07002411782741547
1772525853905802500,6.466802490234375,0.00904877670109272,0.12252609431743622,0.0702880248427391
1772525853915786500,6.476786376953125,0.0154800433665514,0.13643178343772888,0.0700475424528122
1772525853925769500,6.48676953125,0.027676470577716827,0.12176147103309631,0.07116229832172394
1772525853935752700,6.496752685546875,0.0428069531917572,0.09795494377613068,0.0706898495554924
1772525853945735700,6.506735595703125,0.059335820376873016,0.07016712427139282,0.06686539947986603
1772525853955719400,6.516719482421875,0.07302580028772354,0.04165239632129669,0.0658470019698143
1772525853965702700,6.52670263671875,0.08485030382871628,0.037896230816841125,0.05803501605987549
1772525853975685600,6.536685546875,0.08305426687002182,0.05224134773015976,0.05039867013692856
1772525853985669600,6.546669677734375,0.07807141542434692,0.05487669259309769,0.045005470514297485
1772525853995652600,6.556652587890625,0.07026515901088715,0.04341977462172508,0.03981150686740875
1772525854005635600,6.566635498046875,0.056241925805807114,0.029594244435429573,0.03450166434049606
1772525854015618600,6.57661865234375,0.04965459927916527,0.0395137220621109,0.027631506323814392
1772525854025602600,6.5866025390625,0.04413558170199394,0.06982643902301788,0.01219237595796585
1772525854035585500,6.59658544921875,0.0456695631146431,0.09254001080989838,0.0035770495887845755
1772525854045568500,6.606568603515625,0.054228127002716064,0.1078747883439064,-0.0009585712105035782
1772525854055552500,6.616552490234375,0.06027776375412941,0.1410769671201706,0.0002478407695889473
1772525854065535500,6.626535400390625,0.07267821580171585,0.1739320009946823,0.005665537901222706
1772525854075518700,6.636518798828125,0.09187348186969757,0.19519175589084625,0.021284444257616997
1772525854085501700,6.646501708984375,0.11120674759149551,0.190923810005188,0.04974569380283356
1772525854095485700,6.656485595703125,0.12702034413814545,0.18932297825813293,0.08453243970870972
1772525854105468400,6.666468505859375,0.1357658952474594,0.2142571210861206,0.11355334520339966
1772525854115451600,6.67645166015625,0.14604437351226807,0.2713182866573334,0.1322237104177475
1772525854125434600,6.6864345703125,0.15888343751430511,0.3265954256057739,0.14709773659706116
1772525854135418600,6.696418701171875,0.17281070351600647,0.360921174287796,0.1622236967086792
1772525854145401600,6.706401611328125,0.175279900431633,0.3797732889652252,0.18025460839271545
1772525854155384600,6.716384521484375,0.1559125930070877,0.39735814929008484,0.1840091347694397
1772525854165368600,6.72636865234375,0.11679568886756897,0.40751251578330994,0.17387695610523224
1772525854175351600,6.7363515625,0.06990887224674225,0.3989850878715515,0.15350377559661865
1772525854185334800,6.746334716796875,0.030061189085245132,0.36821597814559937,0.12716342508792877
1772525854195317500,6.7563173828125,0.006662391126155853,0.325918585062027,0.0981685221195221
1772525854205301500,6.766301513671875,0.006963520776480436,0.28715580701828003,0.07153864949941635
1772525854215284200,6.7762841796875,0.020798109471797943,0.25255998969078064,0.05064642056822777
1772525854225267500,6.786267333984375,0.04489776864647865,0.21011002361774445,0.029761601239442825
1772525854235250400,6.79625048828125,0.07113149762153625,0.1643233597278595,0.013412456028163433
1772525854245234400,6.806234375,0.08799023181200027,0.13763004541397095,0.006299433298408985
1772525854255217700,6.8162177734375,0.10073132067918777,0.11738602072000504,0.00897351372987032
1772525854265200400,6.826200439453125,0.10704674571752548,0.11426612734794617,0.01725221611559391
1772525854275184400,6.836184326171875,0.1016373336315155,0.11881613731384277,0.03457208350300789
1772525854285167400,6.84616748046875,0.09277022629976273,0.13423269987106323,0.05092548578977585
1772525854295150600,6.856150634765625,0.07841259241104126,0.15214698016643524,0.06905388832092285
1772525854305133300,6.86613330078125,0.0648304745554924,0.17155413329601288,0.08338186144828796
1772525854315117300,6.876117431640625,0.056972015649080276,0.18195563554763794,0.09414689242839813
1772525854325100500,6.8861005859375,0.04277137294411659,0.19346366822719574,0.10232431441545486
1772525854335083500,6.89608349609375,0.02524963766336441,0.20572832226753235,0.10565832257270813
1772525854345066500,6.90606640625,0.008392773568630219,0.22269178926944733,0.1028691828250885
1772525854355050500,6.916050537109375,-0.006924396846443415,0.23606352508068085,0.09670902043581009
1772525854365033500,6.926033447265625,-0.0191732756793499,0.23248015344142914,0.08507680147886276
1772525854375016400,6.936016357421875,-0.028126291930675507,0.19564491510391235,0.07050877809524536
1772525854385000400,6.94600048828125,-0.02944524772465229,0.13946543633937836,0.05445856973528862
1772525854394983400,6.9559833984375,-0.01993882842361927,0.08384346961975098,0.03585239127278328
1772525854404966400,6.96596630859375,0.0008293874561786652,0.04898693785071373,0.023050615563988686
1772525854414949400,6.975949462890625,0.03425738215446472,0.027901358902454376,0.013669364154338837
1772525854424933400,6.985933349609375,0.06590193510055542,0.029929185286164284,0.003449052106589079
1772525854434916600,6.99591650390625,0.07908671349287033,0.045042891055345535,-0.0017281328327953815
1772525854444899600,7.005899658203125,0.08747190237045288,0.0447816327214241,-0.005608751438558102
1772525854454882300,7.01588232421875,0.07883873581886292,0.015299641527235508,-0.005996241234242916
1772525854464866300,7.0258662109375,0.05962461233139038,-0.0039648390375077724,0.001155727542936802
1772525854474849500,7.035849609375,0.031845975667238235,-0.018312353640794754,0.01308402605354786
1772525854484832500,7.04583251953125,-0.0014656726270914078,-0.037137266248464584,0.021447710692882538
1772525854494816500,7.05581640625,-0.03920373320579529,-0.04157249629497528,0.024624329060316086
1772525854504799500,7.065799560546875,-0.06346211582422256,-0.057238418608903885,0.011539706028997898
1772525854514782500,7.075782470703125,-0.06586961448192596,-0.07667124271392822,-0.0032709315419197083
1772525854524765400,7.085765380859375,-0.05066893249750137,-0.0716138482093811,-0.03064875490963459
1772525854534749400,7.09574951171875,-0.028492793440818787,-0.0486062653362751,-0.051391586661338806
1772525854544732400,7.105732421875,0.002884387504309416,-0.022347379475831985,-0.06623442471027374
1772525854554715400,7.11571533203125,0.02687068097293377,0.014317691326141357,-0.06440696120262146
1772525854564699400,7.125699462890625,0.03805699199438095,0.0456257164478302,-0.045840971171855927
1772525854574682400,7.135682373046875,0.040423475205898285,0.06935182213783264,-0.02540307492017746
1772525854584665600,7.14566552734375,0.030400507152080536,0.07694774121046066,0.0009324913844466209
1772525854594648300,7.1556484375,0.018647179007530212,0.06257625669240952,0.02365271747112274
1772525854604632300,7.16563232421875,0.005913398694247007,0.028253138065338135,0.037194907665252686
1772525854614615600,7.175615478515625,-0.011058660224080086,-0.009058015421032906,0.04343203082680702
1772525854624598500,7.1855986328125,-0.028004871681332588,-0.04309342801570892,0.03602558746933937
1772525854634581500,7.19558154296875,-0.039365120232105255,-0.06459871679544449,0.025457099080085754
1772525854644565200,7.205565185546875,-0.04587334021925926,-0.050688862800598145,0.005765581037849188
1772525854654548500,7.215548583984375,-0.04178512468934059,-0.02135387994349003,-0.010498076677322388
1772525854664531500,7.225531494140625,-0.03809526190161705,0.008413631469011307,-0.022824738174676895
1772525854674515500,7.235515380859375,-0.032520197331905365,0.013992421329021454,-0.03116602450609207
1772525854684498400,7.24549853515625,-0.027170760557055473,0.027454672381281853,-0.03633846342563629
1772525854694481400,7.2554814453125,-0.020061718299984932,0.017826279625296593,-0.03090641275048256
1772525854704464400,7.26546435546875,-0.015513750724494457,-0.004109123721718788,-0.022844448685646057
1772525854714448400,7.275448486328125,-0.005785489920526743,-0.005151485092937946,-0.011487399227917194
1772525854724431600,7.285431640625,0.004397460259497166,-0.0006147958338260651,-0.0003191335126757622
1772525854734414300,7.295414306640625,0.01661098375916481,-0.01280009001493454,0.01452426053583622
1772525854744397300,7.305397216796875,0.02778313308954239,-0.005468236282467842,0.027337122708559036
1772525854754381300,7.31538134765625,0.037804607301950455,0.00018911692313849926,0.04560587555170059
1772525854764364500,7.325364501953125,0.037190716713666916,0.016766931861639023,0.05674218013882637
1772525854774347500,7.335347412109375,0.030375421047210693,0.056190505623817444,0.062298599630594254
1772525854784331500,7.34533154296875,0.01851692609488964,0.08239475637674332,0.05346816033124924
1772525854794314500,7.355314453125,0.011584451422095299,0.09042711555957794,0.033476609736680984
1772525854804297500,7.36529736328125,0.009841160848736763,0.07367482036352158,0.004778198432177305
1772525854814280400,7.375280517578125,0.015807973220944405,0.04361572116613388,-0.02273491956293583
1772525854824264400,7.385264404296875,0.022908974438905716,0.02716881036758423,-0.042395759373903275
1772525854834247400,7.395247314453125,0.032413266599178314,0.031910303980112076,-0.05825674533843994
1772525854844230400,7.40523046875,0.03255974128842354,0.03616523742675781,-0.0616176575422287
1772525854854213400,7.41521337890625,0.030773023143410683,0.03526642173528671,-0.054486509412527084
1772525854864197400,7.425197265625,0.017660927027463913,0.02954748459160328,-0.0412198044359684
1772525854874180600,7.4351806640625,0.00034079188480973244,0.012139465659856796,-0.023145461454987526
1772525854884163300,7.445163330078125,-0.018499502912163734,-0.015169613994657993,-0.013095978647470474
1772525854894146600,7.455146484375,-0.03891316428780556,-0.039586007595062256,-0.008657021448016167
1772525854904130600,7.465130615234375,-0.04820633307099342,-0.06004820391535759,-0.013521777465939522
1772525854914113500,7.475113525390625,-0.05259096249938011,-0.08757729828357697,-0.029603274539113045
1772525854924096300,7.48509619140625,-0.04859747737646103,-0.11358657479286194,-0.0458790548145771
1772525854934080300,7.495080322265625,-0.041838906705379486,-0.12966221570968628,-0.06016984209418297
1772525854944063500,7.5050634765625,-0.03583291172981262,-0.15322960913181305,-0.07855845987796783
1772525854954046500,7.51504638671875,-0.038546934723854065,-0.16212190687656403,-0.09096851944923401
1772525854964029400,7.525029541015625,-0.03529447689652443,-0.17883102595806122,-0.10960324853658676
1772525854974013400,7.535013427734375,-0.03714750334620476,-0.193046435713768,-0.12822407484054565
1772525854983996400,7.544996337890625,-0.03303151577711105,-0.2064368575811386,-0.14590707421302795
1772525854993979400,7.5549794921875,-0.02295571006834507,-0.22154097259044647,-0.1572478860616684
1772525855003963400,7.56496337890625,-0.007574675604701042,-0.2459091991186142,-0.16031108796596527
1772525855013946600,7.574946533203125,0.0008409135043621063,-0.26147082448005676,-0.1527533084154129
1772525855023929300,7.584929443359375,-0.007640722207725048,-0.2691338062286377,-0.1331372708082199
1772525855033912300,7.594912353515625,-0.02987891621887684,-0.2690643072128296,-0.11450765281915665
1772525855043896300,7.604896240234375,-0.0579436831176281,-0.24730300903320312,-0.09015768766403198
1772525855053879600,7.614879638671875,-0.09432166069746017,-0.2091660052537918,-0.06984628736972809
1772525855063862500,7.624862548828125,-0.11674057692289352,-0.17514394223690033,-0.055044855922460556
1772525855073845500,7.634845458984375,-0.13021643459796906,-0.1421194076538086,-0.03754309564828873
1772525855083829500,7.64482958984375,-0.13005401194095612,-0.1128634512424469,-0.021600423380732536
1772525855093812500,7.6548125,-0.11922639608383179,-0.08293990790843964,-0.009022846817970276
1772525855103795500,7.66479541015625,-0.1037653386592865,-0.06140297278761864,0.0011931653134524822
1772525855113779500,7.674779541015625,-0.08920770138502121,-0.05743619054555893,0.008904880844056606
1772525855123762400,7.684762451171875,-0.08302357792854309,-0.0681048184633255,0.011256185360252857
1772525855133745400,7.694745361328125,-0.0761968269944191,-0.08022992312908173,0.012338494881987572
1772525855143728400,7.704728271484375,-0.07090410590171814,-0.09232679009437561,0.008635756559669971
1772525855153712400,7.71471240234375,-0.05511235445737839,-0.10597602277994156,0.0013570711016654968
1772525855163695400,7.7246953125,-0.03930984437465668,-0.10808396339416504,-0.00100354989990592
1772525855173678300,7.73467822265625,-0.02728300541639328,-0.07522588223218918,-0.005093100015074015
1772525855183661600,7.74466162109375,-0.02533782459795475,-0.04881541430950165,0.0023497953079640865
1772525855193645600,7.7546455078125,-0.03560137748718262,-0.01922876201570034,0.0102095827460289
1772525855203628300,7.764628173828125,-0.05432836711406708,0.004000549204647541,0.02003312110900879
1772525855213611300,7.774611328125,-0.06701486557722092,0.015201804228127003,0.031563542783260345
1772525855223595300,7.78459521484375,-0.06903621554374695,0.021155932918190956,0.0386149026453495
1772525855233578200,7.794578125,-0.05875135585665703,0.01137440837919712,0.039950210601091385
1772525855243561200,7.804561279296875,-0.028769634664058685,0.007667108438909054,0.03983917087316513
1772525855253544400,7.81454443359375,0.002450069412589073,0.01910644955933094,0.03525054454803467
1772525855263528400,7.824528564453125,0.023110808804631233,0.04045721888542175,0.04106905311346054
1772525855273511400,7.834511474609375,0.04347360134124756,0.07732389122247696,0.047891005873680115
1772525855283494100,7.844494140625,0.05884455889463425,0.11320529133081436,0.06053207442164421
1772525855293477400,7.854477294921875,0.06698504835367203,0.1583474725484848,0.045274555683135986
1772525855303461400,7.86446142578125,0.07582491636276245,0.0988701656460762,0.014466727152466774
1772525855313444400,7.8744443359375,0.08682776987552643,-0.03444768115878105,-0.027218934148550034
1772525855323427300,7.88442724609375,0.07783185690641403,-0.15547843277454376,-0.061537303030490875
1772525855333411300,7.894411376953125,0.058660294860601425,-0.23921912908554077,-0.07318650186061859
1772525855343394300,7.904394287109375,0.03929717466235161,-0.2481508105993271,-0.06685762107372284
1772525855353377300,7.914377197265625,0.014857876114547253,-0.20269916951656342,-0.046996839344501495
1772525855363360500,7.924360595703125,-0.015786785632371902,-0.1344742327928543,-0.028088968247175217
1772525855373344500,7.934344482421875,-0.04889094457030296,-0.06443709880113602,-0.024032440036535263
1772525855383327200,7.9443271484375,-0.07294395565986633,-0.0546923466026783,-0.03149177506566048
1772525855393310200,7.954310302734375,-0.08044448494911194,-0.09538224339485168,-0.0558791421353817
1772525855403293400,7.96429345703125,-0.07214264571666718,-0.16862154006958008,-0.09434769302606583
1772525855413277400,7.97427734375,-0.045366156846284866,-0.27075695991516113,-0.13785627484321594
1772525855423260200,7.98426025390625,-0.009818795137107372,-0.3824678659439087,-0.17015981674194336
1772525855433243400,7.994243408203125,0.019980646669864655,-0.45763957500457764,-0.19791501760482788
1772525855443227400,8.004227294921876,0.03851056098937988,-0.4855291545391083,-0.21443933248519897
1772525855453210400,8.01421044921875,0.04768381640315056,-0.4829120635986328,-0.2196791023015976
1772525855463193300,8.024193359375,0.04601212218403816,-0.44935762882232666,-0.20519042015075684
1772525855473176300,8.03417626953125,0.031287770718336105,-0.4103037118911743,-0.17825254797935486
1772525855483160300,8.044160400390625,0.001745559275150299,-0.35815858840942383,-0.14564689993858337
1772525855493143300,8.054143310546875,-0.02940862998366356,-0.2909420132637024,-0.11925044655799866
1772525855503126300,8.064126220703125,-0.0612797811627388,-0.2277424931526184,-0.09206116199493408
1772525855513109200,8.074109130859375,-0.08359067887067795,-0.16595688462257385,-0.06721732765436172
1772525855523093200,8.08409326171875,-0.09632670879364014,-0.12589693069458008,-0.049978531897068024
1772525855533076200,8.094076171875,-0.09869346022605896,-0.08992347866296768,-0.04406524822115898
1772525855543059500,8.1040595703125,-0.09742320328950882,-0.0815264880657196,-0.04137584939599037
1772525855553043500,8.11404345703125,-0.0797954723238945,-0.1573392152786255,-0.033391427248716354
1772525855563026400,8.1240263671875,-0.05256182700395584,-0.22236089408397675,-0.02492613159120083
1772525855573009200,8.134009033203125,-0.026175759732723236,-0.21271786093711853,-0.02853897400200367
1772525855582992400,8.143992431640624,-0.009871821850538254,-0.17383432388305664,-0.03428344801068306
1772525855592976400,8.153976318359375,-0.010268366895616055,-0.15355461835861206,-0.03219526261091232
1772525855602959400,8.16395947265625,-0.01763646863400936,-0.14156952500343323,-0.02116183005273342
1772525855612942300,8.1739423828125,-0.03135467693209648,-0.1173214390873909,-0.015483971685171127
1772525855622925300,8.18392529296875,-0.042337559163570404,-0.059964824467897415,-0.019917508587241173
1772525855632909300,8.193909423828124,-0.0453818216919899,0.007189708761870861,-0.02560894936323166
1772525855642892300,8.203892333984374,-0.038759078830480576,0.033958058804273605,-0.030081994831562042
1772525855652875500,8.21387548828125,-0.02603183127939701,0.010109183378517628,-0.02110154926776886
1772525855662859500,8.223859619140624,-0.016451993957161903,-0.029000122100114822,-0.01113045308738947
1772525855672842200,8.23384228515625,-0.006513077300041914,-0.029678162187337875,-0.006074175238609314
1772525855682825200,8.2438251953125,-0.006656492128968239,-0.019829677417874336,-0.000139657873660326
1772525855692808400,8.253808349609375,-0.008274362422525883,-0.016320964321494102,0.008567014709115028
1772525855702792400,8.26379248046875,-0.01564762368798256,-0.01674676686525345,0.011657621711492538
1772525855712775200,8.273775146484375,-0.01878908835351467,-0.017029061913490295,0.011339906603097916
1772525855722758400,8.28375830078125,-0.018383964896202087,-0.010959554463624954,0.0063540032133460045
1772525855732741400,8.293741455078125,-0.016756774857640266,-0.007522478699684143,0.003025051672011614
1772525855742725400,8.303725341796875,-0.012969762086868286,0.007443021982908249,-0.009343752637505531
1772525855752708400,8.313708251953125,-0.015212676487863064,0.010194599628448486,-0.023493926972150803
1772525855762691300,8.32369140625,-0.020991789177060127,-0.009547175839543343,-0.03561508655548096
1772525855772675300,8.33367529296875,-0.021686075255274773,-0.032245296984910965,-0.04656147584319115
1772525855782658300,8.343658203125,-0.015725793316960335,-0.028679870069026947,-0.053231991827487946
1772525855792641300,8.353641357421875,-0.012731600552797318,-0.037571098655462265,-0.05073954164981842
1772525855802624300,8.363624267578125,-0.006290287710726261,-0.050225600600242615,-0.04578831419348717
1772525855812608300,8.373608154296875,-0.00385376182384789,-0.04966287314891815,-0.03688110411167145
1772525855822591200,8.38359130859375,-0.001965141389518976,-0.055885106325149536,-0.02478094957768917
1772525855832574500,8.393574462890625,0.0055457716807723045,-0.0642988309264183,-0.007185976952314377
1772525855842557400,8.403557373046874,0.010423552244901657,-0.05630568042397499,0.0034456667490303516
1772525855852541200,8.413541259765625,0.02132307179272175,-0.044778719544410706,0.015591545030474663
1772525855862524200,8.423524169921874,0.025818957015872,-0.037602752447128296,0.02628152072429657
1772525855872507400,8.43350732421875,0.024956360459327698,-0.0347377210855484,0.03013964369893074
1772525855882491400,8.443491455078124,0.020068764686584473,-0.04074922576546669,0.030711261555552483
1772525855892474400,8.453474365234374,0.0021677962504327297,-0.031055590137839317,0.020259685814380646
1772525855902457300,8.463457275390626,-0.018926547840237617,-0.0030863401480019093,0.0036890413612127304
1772525855912440300,8.4734404296875,-0.03494306653738022,0.019080214202404022,-0.015129653736948967
1772525855922424300,8.48342431640625,-0.046840738505125046,0.022928481921553612,-0.026566332206130028
1772525855932407300,8.4934072265625,-0.046584274619817734,0.02008609101176262,-0.037620581686496735
1772525855942390500,8.503390625,-0.03979073464870453,0.014226190745830536,-0.0457831434905529
1772525855952373200,8.513373291015625,-0.030317602679133415,-0.001426271628588438,-0.05004846304655075
1772525855962357200,8.523357177734376,-0.013319328427314758,-0.02634485252201557,-0.053525473922491074
1772525855972340200,8.53334033203125,-0.002304227789863944,-0.058076146990060806,-0.05153076350688934
1772525855982323500,8.543323486328125,0.013603388331830502,-0.09219450503587723,-0.04734925925731659
1772525855992307500,8.553307373046875,0.02433885633945465,-0.09443794935941696,-0.04390712454915047
1772525856002290200,8.563290283203125,0.0279696062207222,-0.08329349756240845,-0.042838990688323975
1772525856012273400,8.5732734375,0.02562842145562172,-0.07375378906726837,-0.03413870930671692
1772525856022256400,8.58325634765625,0.02292640507221222,-0.055073242634534836,-0.02652090974152088
1772525856032240400,8.593240478515625,0.02443455159664154,-0.052056148648262024,-0.012481790035963058
1772525856042223000,8.60322314453125,0.01884710043668747,-0.04749177396297455,0.0007471111603081226
1772525856052206300,8.613206298828125,0.014291496016085148,-0.03842451050877571,0.004832133650779724
1772525856062189300,8.623189208984375,0.012739095836877823,-0.030712394043803215,0.01023846585303545
1772525856072173300,8.63317333984375,0.012069310992956161,-0.014538750052452087,0.007496474776417017
1772525856082156500,8.643156494140625,0.005788429640233517,-0.001219067256897688,-0.001647518016397953
1772525856092139300,8.65313916015625,-0.0023169012274593115,0.0014374360907822847,-0.014690082520246506
1772525856102123300,8.663123291015625,-0.01404168177396059,0.007868194952607155,-0.027306756004691124
1772525856112106200,8.673106201171874,-0.03012983873486519,0.008361678570508957,-0.0503510907292366
1772525856122089500,8.68308935546875,-0.04994530230760574,0.006649291142821312,-0.07826709002256393
1772525856132072200,8.693072265625,-0.06749606877565384,-0.011098546907305717,-0.11680836230516434
1772525856142056200,8.70305615234375,-0.0748220831155777,-0.017377259209752083,-0.16009151935577393
1772525856152039200,8.7130390625,-0.06827816367149353,0.0013684657169505954,-0.20513728260993958
1772525856162022400,8.7230224609375,-0.048441532999277115,0.03589204326272011,-0.248231902718544
1772525856172005400,8.73300537109375,-0.014779975637793541,0.09688056260347366,-0.28281542658805847
1772525856181989400,8.7429892578125,0.023457039147615433,0.22112226486206055,-0.32267898321151733
1772525856191972400,8.752972412109376,0.05509086698293686,0.4048026204109192,-0.36354172229766846
1772525856201955600,8.76295556640625,0.0932074561715126,0.5875957608222961,-0.40368735790252686
1772525856211939600,8.772939697265626,0.13046614825725555,0.7257294058799744,-0.45136964321136475
1772525856221922300,8.78292236328125,0.15684138238430023,0.8040423393249512,-0.48826637864112854
1772525856231905500,8.792905517578125,0.17171646654605865,0.8248575925827026,-0.526002049446106
1772525856241888500,8.802888427734375,0.1760358363389969,0.7767230272293091,-0.5618483424186707
1772525856251872500,8.81287255859375,0.1677802950143814,0.673700749874115,-0.6042232513427734
1772525856261855500,8.82285546875,0.14313992857933044,0.5733915567398071,-0.6521959900856018
1772525856271838500,8.83283837890625,0.11202621459960938,0.5206945538520813,-0.7073053121566772
1772525856281821400,8.842821533203125,0.0775805115699768,0.5230240821838379,-0.7684673070907593
1772525856291805400,8.852805419921875,0.041527971625328064,0.5403969287872314,-0.836246132850647
1772525856301788700,8.86278857421875,-0.00901603139936924,0.5414751172065735,-0.9046190977096558
1772525856311771400,8.872771484375,-0.06550540775060654,0.4859465956687927,-0.9688318967819214
1772525856321755400,8.88275537109375,-0.12676846981048584,0.34863147139549255,-1.0159869194030762
1772525856331738400,8.89273828125,-0.17621004581451416,0.1490722894668579,-1.0409122705459595
1772525856341721600,8.9027216796875,-0.20426876842975616,-0.06835728883743286,-1.0301690101623535
1772525856351704600,8.91270458984375,-0.20377661287784576,-0.2526504099369049,-0.9858603477478027
1772525856361688300,8.922688232421875,-0.18227697908878326,-0.4273953437805176,-0.8983433246612549
1772525856371671600,8.932671630859375,-0.16022706031799316,-0.5512185096740723,-0.7811288237571716
1772525856381654500,8.942654541015624,-0.1468202918767929,-0.6297783255577087,-0.6485741138458252
1772525856391637500,8.952637451171874,-0.13688403367996216,-0.6963586807250977,-0.5002133846282959
1772525856401621500,8.96262158203125,-0.12453871965408325,-0.7634927034378052,-0.3393656313419342
1772525856411604500,8.9726044921875,-0.10615145415067673,-0.7773839831352234,-0.1834937334060669
1772525856421587500,8.98258740234375,-0.08118986338376999,-0.7315781116485596,-0.04006967693567276
1772525856431571500,8.992571533203124,-0.054447729140520096,-0.6495482325553894,0.07581537961959839
1772525856441554400,9.002554443359376,-0.0385155975818634,-0.5518062710762024,0.15270082652568817
1772525856451537700,9.01253759765625,-0.018063588067889214,-0.46553853154182434,0.2021738439798355
1772525856461520400,9.022520263671876,0.0181160606443882,-0.37283071875572205,0.22776347398757935
1772525856471504400,9.03250439453125,0.055404841899871826,-0.3095391094684601,0.23879694938659668
1772525856481487600,9.042487548828126,0.0853758156299591,-0.25991541147232056,0.24185967445373535
1772525856491470600,9.052470703125,0.09336236864328384,-0.21030206978321075,0.23401853442192078
1772525856501453300,9.062453369140625,0.08538974821567535,-0.16354389488697052,0.21134066581726074
1772525856511437300,9.072437255859375,0.048930276185274124,-0.10226587951183319,0.1689242422580719
1772525856521420500,9.082420654296875,-0.001685828436166048,-0.053771648555994034,0.10645771026611328
1772525856531403500,9.092403564453125,-0.05774376913905144,-0.021211571991443634,0.03177628293633461
1772525856541387500,9.102387451171875,-0.11353554576635361,-0.027316780760884285,-0.04222416505217552
1772525856551370500,9.11237060546875,-0.17731931805610657,-0.04414236545562744,-0.10731688141822815
1772525856561353500,9.122353515625,-0.2346736341714859,-0.06937739253044128,-0.16939111053943634
1772525856571336400,9.13233642578125,-0.2829087972640991,-0.09209522604942322,-0.22223728895187378
1772525856581320400,9.142320556640625,-0.3174871504306793,-0.08929216861724854,-0.28475722670555115
1772525856591303700,9.1523037109375,-0.3387626111507416,-0.14527449011802673,-0.3462378978729248
1772525856601286400,9.162286376953125,-0.3268459141254425,-0.2868051528930664,-0.3958941400051117
1772525856611269400,9.172269287109375,-0.28013351559638977,-0.46427953243255615,-0.4335848093032837
1772525856621253400,9.18225341796875,-0.22197365760803223,-0.584307074546814,-0.4767029881477356
1772525856631236600,9.192236572265625,-0.15570329129695892,-0.6505462527275085,-0.5064776539802551
1772525856641219300,9.20221923828125,-0.10077929496765137,-0.6686962842941284,-0.5315947532653809
1772525856651202600,9.21220263671875,-0.06702559441328049,-0.6495782732963562,-0.5489367246627808
1772525856661186600,9.2221865234375,-0.06259026378393173,-0.6015670895576477,-0.5591145753860474
1772525856671169500,9.23216943359375,-0.0775151476264,-0.5407420992851257,-0.5599374771118164
1772525856681152500,9.242152587890626,-0.09359906613826752,-0.4681922495365143,-0.5534627437591553
1772525856691136500,9.252136474609374,-0.1050591766834259,-0.4069693684577942,-0.5383269190788269
1772525856701119500,9.262119384765626,-0.09722333401441574,-0.37778013944625854,-0.5154728889465332
1772525856711102500,9.2721025390625,-0.09133002907037735,-0.3731699287891388,-0.4803466200828552
1772525856721085400,9.28208544921875,-0.08903864771127701,-0.3682989180088043,-0.43496623635292053
1772525856731069400,9.2920693359375,-0.08349873870611191,-0.3530227541923523,-0.39182835817337036
1772525856741052400,9.302052490234376,-0.07401665300130844,-0.2987833619117737,-0.3447191119194031
1772525856751035400,9.312035400390625,-0.05933171510696411,-0.21893514692783356,-0.3046925961971283
1772525856761018600,9.3220185546875,-0.05284707993268967,-0.14603586494922638,-0.27330368757247925
1772525856771002600,9.332002685546875,-0.0470895953476429,-0.11717438697814941,-0.2372889667749405
1772525856780985600,9.341985595703125,-0.040990687906742096,-0.12499129772186279,-0.203423410654068
1772525856790968300,9.35196826171875,-0.03904791176319122,-0.12670503556728363,-0.1693301498889923
1772525856800952300,9.361952392578125,-0.049305856227874756,-0.09256258606910706,-0.14608708024024963
1772525856810935600,9.371935546875,-0.06931871175765991,-0.019984517246484756,-0.13463202118873596
1772525856820918500,9.38191845703125,-0.08908878266811371,0.06507749110460281,-0.14220598340034485
1772525856830901500,9.391901611328125,-0.10096488147974014,0.14535954594612122,-0.15227778255939484
1772525856840885500,9.401885498046875,-0.10397128015756607,0.19819839298725128,-0.165082648396492
1772525856850868500,9.411868408203125,-0.09177187830209732,0.2016700804233551,-0.173824742436409
1772525856860851500,9.4218515625,-0.06647267192602158,0.16906146705150604,-0.17347371578216553
1772525856870834700,9.431834716796875,-0.03520955890417099,0.12255919724702835,-0.16309112310409546
1772525856880818700,9.441818603515625,-0.006765808444470167,0.08137471973896027,-0.14678600430488586
1772525856890801400,9.451801513671874,0.00504318019375205,0.06360824406147003,-0.12219836562871933
1772525856900784400,9.461784423828124,-0.0005790842697024345,0.05194593220949173,-0.10161928832530975
1772525856910768400,9.471768310546874,-0.013565989211201668,0.04166799411177635,-0.06807437539100647
1772525856920751600,9.481751708984374,-0.02280094474554062,0.030338104814291,-0.03903603181242943
1772525856930734300,9.491734375,-0.022718120366334915,0.01444302685558796,-0.007672514766454697
1772525856940717600,9.501717529296876,-0.013175155967473984,0.004019599873572588,0.019665053114295006
1772525856950701600,9.51170166015625,-0.00923953577876091,-0.0027285839896649122,0.03965926915407181
1772525856960684500,9.5216845703125,-0.009835455566644669,-0.014526233077049255,0.05137791112065315
1772525856970667500,9.53166748046875,-0.009671671316027641,-0.040453437715768814,0.05270097032189369
1772525856980650500,9.541650390625,-0.008101160638034344,-0.06232452020049095,0.046004071831703186
1772525856990634500,9.551634521484376,0.005954204127192497,-0.08414406329393387,0.029263973236083984
1772525857000617500,9.561617431640625,0.019850483164191246,-0.09482642263174057,0.009868767112493515
1772525857010600400,9.571600341796875,0.0302895400673151,-0.06611780822277069,-0.011907901614904404
1772525857020583400,9.58158349609375,0.03208773210644722,-0.006909152492880821,-0.03768722712993622
1772525857030567400,9.5915673828125,0.024212762713432312,0.028193706646561623,-0.06304290890693665
1772525857040550400,9.60155029296875,0.020995451137423515,0.030780991539359093,-0.07820850610733032
1772525857050533600,9.61153369140625,0.021282538771629333,0.0129612497985363,-0.08620810508728027
1772525857060517600,9.621517578125,0.028489254415035248,-0.02558353915810585,-0.08174140751361847
1772525857070500400,9.631500244140625,0.038519252091646194,-0.06298497319221497,-0.0764172226190567
1772525857080483300,9.6414833984375,0.051506806164979935,-0.100167416036129,-0.06097540259361267
1772525857090466600,9.651466552734375,0.04895709455013275,-0.1332702338695526,-0.037464749068021774
1772525857100450600,9.661450439453125,0.0444319061934948,-0.13443242013454437,-0.010755591094493866
1772525857110433500,9.67143359375,0.03599953651428223,-0.12876494228839874,0.02160128392279148
1772525857120416500,9.68141650390625,0.0157576072961092,-0.11663223803043365,0.054156407713890076
1772525857130399500,9.6913994140625,-0.002315669320523739,-0.07720600813627243,0.07790754735469818
1772525857140383500,9.701383544921875,-0.02430272288620472,-0.02053326554596424,0.09055224806070328
1772525857150366500,9.711366455078124,-0.040644146502017975,0.02966732159256935,0.09321673959493637
1772525857160349700,9.721349609375,-0.05339505523443222,0.053907137364149094,0.07667598873376846
1772525857170333400,9.73133349609375,-0.0382951982319355,0.04835844039916992,0.053040966391563416
1772525857180316400,9.74131640625,-0.011924476362764835,0.024402538314461708,0.0293334499001503
1772525857190299400,9.75129931640625,0.014006457291543484,0.0016607416328042746,0.010877743363380432
1772525857200282600,9.76128271484375,0.031688641756772995,-0.02750648558139801,-0.010231886059045792
1772525857210266600,9.7712666015625,0.03329692408442497,-0.04839446023106575,-0.025360770523548126
1772525857220249300,9.781249267578126,0.02853822335600853,-0.04902344569563866,-0.03919445723295212
1772525857230232600,9.791232666015626,0.006578863598406315,-0.049490563571453094,-0.04247041046619415
1772525857240215600,9.801215576171876,-0.01952945813536644,-0.05007879063487053,-0.04190456494688988
1772525857250199600,9.811199462890626,-0.037666648626327515,-0.04058169201016426,-0.03793938457965851
1772525857260182300,9.821182373046875,-0.043178312480449677,-0.026537472382187843,-0.03399107605218887
1772525857270165500,9.83116552734375,-0.04307018965482712,-0.015963925048708916,-0.022736825048923492
1772525857280149500,9.8411494140625,-0.03895992413163185,-0.014822659082710743,-0.011946821585297585
1772525857290132500,9.851132568359375,-0.020555883646011353,-0.018966805189847946,0.010581922717392445
1772525857300115700,9.86111572265625,0.0012200213968753815,-0.02118631638586521,0.03889637067914009
1772525857310098400,9.871098388671875,0.025257179513573647,-0.016166524961590767,0.0699261948466301
1772525857320082400,9.88108251953125,0.047742050141096115,-0.03237419202923775,0.10733157396316528
1772525857330065400,9.8910654296875,0.06984122097492218,-0.04068005830049515,0.15348123013973236
1772525857340048600,9.901048583984375,0.08578572422266006,-0.03910835087299347,0.20339632034301758
1772525857350031400,9.91103125,0.098073810338974,-0.028307629749178886,0.2513936758041382
1772525857360015400,9.921015380859375,0.10056203603744507,-0.009785255417227745,0.29586178064346313
1772525857369998300,9.930998291015625,0.09711483120918274,0.015912650153040886,0.3330938518047333
1772525857379981600,9.940981689453125,0.09411908686161041,0.025130359455943108,0.36616575717926025
1772525857389965600,9.950965576171875,0.08823136985301971,0.017362451180815697,0.38729020953178406
1772525857399948500,9.960948486328125,0.08662495762109756,0.010718818753957748,0.407753050327301
1772525857409931500,9.970931640625,0.08789821714162827,0.007548857945948839,0.4148586392402649
1772525857419914500,9.98091455078125,0.0847863107919693,0.011792073026299477,0.41804617643356323
1772525857429898500,9.9908984375,0.08110262453556061,0.031081881374120712,0.40386801958084106
1772525857439881500,10.000881591796874,0.07153940945863724,0.044807855039834976,0.3824547231197357
1772525857449864400,10.010864501953124,0.06997693330049515,0.05838624760508537,0.35047656297683716
1772525857459847400,10.020847412109376,0.06967560201883316,0.069609634578228,0.3174997866153717
1772525857469831400,10.03083154296875,0.07179015129804611,0.06709215044975281,0.2858867347240448
1772525857479814700,10.040814697265626,0.06567112356424332,0.04843759164214134,0.25230270624160767
1772525857489797600,10.050797607421876,0.057250745594501495,0.03698253631591797,0.21100851893424988
1772525857499780400,10.0607802734375,0.04671293497085571,0.04168558865785599,0.16345693171024323
1772525857509764400,10.070764404296876,0.04850151389837265,0.04212501272559166,0.11710809171199799
1772525857519747600,10.08074755859375,0.04813766106963158,0.0508585199713707,0.06398898363113403
1772525857529730600,10.09073046875,0.04990014061331749,0.061200108379125595,0.016439039260149002
1772525857539714600,10.100714599609375,0.04368137940764427,0.062087688595056534,-0.02803715690970421
1772525857549697300,10.110697265625,0.03471877798438072,0.04569566622376442,-0.05963689461350441
1772525857559680500,10.120680419921875,0.029279746115207672,0.027842193841934204,-0.08029482513666153
1772525857569663500,10.13066357421875,0.024192841723561287,0.004701721481978893,-0.08772344142198563
1772525857579647500,10.1406474609375,0.018051274120807648,0.0012952471151947975,-0.08172871917486191
1772525857589630700,10.150630615234375,0.010824252851307392,0.004990383051335812,-0.06950879842042923
1772525857599613400,10.160613525390625,0.0042569199576973915,0.0029687099158763885,-0.04446116462349892
1772525857609596400,10.170596435546875,-0.0009650061838328838,0.006013235542923212,-0.017672428861260414
1772525857619580400,10.180580322265625,-0.0031423112377524376,0.003334783250465989,0.00996392872184515
1772525857629563600,10.190563720703125,-0.0024155345745384693,-0.02263662964105606,0.04254770651459694
1772525857639546400,10.20054638671875,0.004412744659930468,-0.05962134152650833,0.07115009427070618
1772525857649530400,10.2105302734375,0.018519509583711624,-0.09638361632823944,0.11058139055967331
1772525857659513600,10.220513671875,0.03716074302792549,-0.10025760531425476,0.15354862809181213
1772525857669496600,10.23049658203125,0.04785706102848053,-0.06423889100551605,0.19570060074329376
1772525857679479600,10.2404794921875,0.04500408098101616,-0.022981267422437668,0.23716570436954498
1772525857689463300,10.25046337890625,0.030612356960773468,0.01024965662509203,0.2644883990287781
1772525857699446500,10.260446533203124,0.01806848682463169,0.019452791661024094,0.2802801728248596
1772525857709429500,10.270429443359374,0.02107200026512146,0.016434896737337112,0.28219524025917053
1772525857719412500,10.28041259765625,0.0377625897526741,0.025866413488984108,0.26697641611099243
1772525857729396500,10.290396484375,0.05242142081260681,0.04136174917221069,0.23227940499782562
1772525857739379500,10.30037939453125,0.05436805635690689,0.07392899692058563,0.18852359056472778
1772525857749362400,10.310362548828126,0.05199864134192467,0.10610264539718628,0.13568301498889923
1772525857759345400,10.320345458984375,0.04430325701832771,0.1077873557806015,0.07667326182126999
1772525857769329700,10.33032958984375,0.04609023779630661,0.08913005143404007,0.02822556346654892
1772525857779312400,10.3403125,0.05696888267993927,0.06353676319122314,-0.00941353477537632
1772525857789295400,10.35029541015625,0.06755468249320984,0.049090176820755005,-0.03552742302417755
1772525857799279400,10.360279296875,0.07454712688922882,0.04421687871217728,-0.05730776861310005
1772525857809262600,10.3702626953125,0.08004122972488403,0.051253482699394226,-0.08262057602405548
1772525857819245600,10.38024560546875,0.07757867127656937,0.06809806078672409,-0.11631184816360474
1772525857829228300,10.390228271484375,0.08303655683994293,0.08285117149353027,-0.1567506045103073
1772525857839212500,10.400212646484375,0.08578458428382874,0.09406359493732452,-0.21024039387702942
1772525857849195500,10.410195556640625,0.09321053326129913,0.07941407710313797,-0.24210086464881897
1772525857859178500,10.420178466796875,0.0724753588438034,0.09970048815011978,-0.17377358675003052
1772525857869161700,10.43016162109375,0.022753342986106873,0.1399880051612854,-0.06582316011190414
1772525857879145500,10.4401455078125,0.021953891962766647,0.10079300403594971,0.01814975030720234
1772525857889128400,10.45012841796875,0.06466487050056458,0.0037863003090023994,0.07126117497682571
1772525857899111400,10.460111328125,0.09547218680381775,-0.0836295485496521,0.10391906648874283
1772525857909095400,10.470095458984375,0.0928439125418663,-0.15172763168811798,0.1159949079155922
1772525857919078700,10.48007861328125,0.0632803812623024,-0.2013937532901764,0.09688347578048706
1772525857929061400,10.490061279296874,0.02501208893954754,-0.25069576501846313,0.0463089793920517
1772525857939044400,10.50004443359375,0.001064877025783062,-0.27129220962524414,-0.012671204283833504
1772525857949028600,10.510028564453124,0.00036499835550785065,-0.22977858781814575,-0.03467317670583725
