time,seconds_elapsed,z,y,x
1772555780686096100,0.07609619140625,-1.497844356584549,-0.1402719556517899,-0.20754268023967742
1772555780696027100,0.086027099609375,-1.4799766914606094,-0.08789397203028201,-0.08399192309044301
1772555780705959200,0.095959228515625,-1.318365156790614,0.01687763117328286,0.06135631291233003
1772555780715890200,0.10589013671875,-1.0721738892048596,0.12242445653304457,0.15902948228754102
1772555780725822200,0.115822265625,-0.8330284484773873,0.2223689318411052,0.18277667043674736
1772555780735753000,0.1257529296875,-0.6218354290366173,0.3219051186092198,0.07447466461732984
1772555780745685200,0.135685302734375,-0.39728491537272925,0.33183351516649123,-0.15537256721518933
1772555780755616500,0.145616455078125,-0.20453999129235742,0.24780235604420303,-0.3665721259946003
1772555780765548500,0.155548583984375,-0.044728199520707126,0.17170432800874114,-0.46689767304211854
1772555780775479600,0.1654794921875,0.0316799173772335,0.1542665787346661,-0.39407808215543627
1772555780785411300,0.175411376953125,0.028251696494221684,0.18861483853831887,-0.2516116851992905
1772555780795342300,0.18534228515625,0.04420037625432014,0.24888138345256447,-0.15735869953110812
1772555780805274400,0.1952744140625,0.15232815801799296,0.19189765960127114,-0.14758140188232063
1772555780815205400,0.205205322265625,0.2238829896658659,0.11485928197577595,-0.12061773590464145
1772555780825137400,0.215137451171875,0.2002238816589117,0.12362214188501239,-0.05826660326868295
1772555780835068400,0.225068359375,0.09618658407926559,0.1993463681720197,-0.02673946530036628
1772555780845000400,0.23500048828125,-0.03132218998074531,0.27358751629441974,0.010634243271686137
1772555780854931500,0.244931396484375,-0.2049550018340349,0.3045832507997751,0.05294427573475986
1772555780864863500,0.254863525390625,-0.34912674140334127,0.29854075576514005,0.1117892634132877
1772555780874794500,0.26479443359375,-0.44971009913682936,0.2998040536992252,0.20926875511361284
1772555780884726500,0.2747265625,-0.5131733942657709,0.30715996941998597,0.3394716088294983
1772555780894657300,0.2846572265625,-0.557008444339037,0.3258217075310647,0.45931390338223427
1772555780904589300,0.29458935546875,-0.53111646271348,0.35669776117950674,0.5256660152878612
1772555780914520600,0.3045205078125,-0.4373948074430227,0.39942645744606853,0.5418982246970757
1772555780924452600,0.31445263671875,-0.27897593133449555,0.4218171529524028,0.5295018305910751
1772555780934383400,0.32438330078125,-0.08580605984032154,0.43906186387240886,0.4749668881313875
1772555780944315400,0.3343154296875,0.08281038515567779,0.44519042975530027,0.3683630279993638
1772555780954246400,0.344246337890625,0.17774667691290377,0.4339982968725264,0.272920448954124
1772555780964178700,0.3541787109375,0.19372224467992782,0.43620442861467595,0.17641769333146512
1772555780974109400,0.364109375,0.2358808859735727,0.45871787371784445,0.07362716267621144
1772555780984041500,0.37404150390625,0.25440847631096836,0.4341920658789575,-0.029805812334734946
1772555780993972500,0.383972412109375,0.22998306010663508,0.35291312807425856,-0.10126185978325083
1772555781003904300,0.393904296875,0.23678747942447662,0.296977013579756,-0.10431308231372385
1772555781013835500,0.40383544921875,0.25830022305250167,0.2790419823080301,-0.054600993433222174
1772555781023767600,0.413767578125,0.29464813224077224,0.2934948705524206,0.019855952864326537
1772555781033698600,0.423698486328125,0.3134557085633278,0.3010077304005623,0.03449464600440114
1772555781043630300,0.43363037109375,0.28604338550269603,0.2807714364491403,0.006046440557390451
1772555781053561300,0.443561279296875,0.2149590939760208,0.2960392943382263,-0.004123893263284117
1772555781063493400,0.453493408203125,0.10508125367462634,0.3173682058319449,0.011085000980179756
1772555781073424400,0.46342431640625,-0.02914893759489059,0.3348166226305067,0.06899150223219767
1772555781083356400,0.4733564453125,-0.18176351133882998,0.3469035123959183,0.11424995443839579
1772555781093287400,0.483287353515625,-0.28994156198501586,0.36303339394181966,0.15420966091565788
1772555781103219500,0.493219482421875,-0.3490092525035143,0.36514907092154025,0.19725883957454934
1772555781113150500,0.503150390625,-0.3806996912747621,0.35849414307698607,0.24156278580119833
1772555781123082500,0.51308251953125,-0.40591830368340015,0.3310034940831363,0.27910344843799245
1772555781133013500,0.523013427734375,-0.4030956474781036,0.311373933853209,0.3367716291557997
1772555781142945500,0.532945556640625,-0.3510118244975805,0.29767814758643507,0.383251458116807
1772555781152876300,0.542876220703125,-0.29274785157740113,0.2584935536675155,0.4127559676837176
1772555781162808300,0.552808349609375,-0.26245266655683513,0.1998842744410038,0.40932665082216263
1772555781172739600,0.562739501953125,-0.2824380544871092,0.1760584315650165,0.3945658656723797
1772555781182671600,0.572671630859375,-0.33499007950127124,0.1889601448446512,0.39880825248248875
1772555781192602400,0.582602294921875,-0.40105858869254585,0.20556334299072623,0.4348293408691883
1772555781202534400,0.592534423828125,-0.39520284840166564,0.21943448582440614,0.4713138089839369
1772555781212465400,0.60246533203125,-0.34476094740927216,0.21602599255517124,0.4836466363344341
1772555781222397400,0.6123974609375,-0.2781540935575962,0.20813246282637118,0.4875186554621905
1772555781232328400,0.622328369140625,-0.20973463732600212,0.1781923748537898,0.5189188060499728
1772555781242260500,0.632260498046875,-0.17205694083869455,0.16025675906017423,0.5454017758386209
1772555781252191500,0.64219140625,-0.1368365743756294,0.1655534041635692,0.5893543513443321
1772555781262123300,0.652123291015625,-0.14339315641224384,0.18268354879319668,0.6464097521923482
1772555781272054500,0.662054443359375,-0.11848200251758098,0.19195771922543645,0.696908936329931
1772555781281986600,0.671986572265625,-0.0989659856647253,0.17778233274817465,0.7456399417512118
1772555781291917600,0.68191748046875,-0.11436696841418742,0.17031535786837337,0.7697732431411742
1772555781301849300,0.691849365234375,-0.1539309170395136,0.18477745233252643,0.7893224316112697
1772555781311780400,0.7017802734375,-0.19423077872395514,0.2029134130038321,0.8092720906410366
1772555781321712400,0.71171240234375,-0.17563596836924553,0.2296104274019599,0.834121066019684
1772555781331643400,0.721643310546875,-0.12773030785620212,0.24979864442795513,0.8723786082215607
1772555781341575400,0.731575439453125,-0.06894260332286357,0.24896219360381364,0.8942616464667021
1772555781351506400,0.74150634765625,0.01720773991048336,0.2430975393541157,0.9323395943179726
1772555781361438500,0.7514384765625,0.07351648710966109,0.2256586210362613,1.0039565314166248
1772555781371369500,0.761369384765625,0.046674657413363456,0.1836512247815728,1.0855885204426943
1772555781381301500,0.771301513671875,-0.014871990439295768,0.180069128511101,1.161714167137444
1772555781391232500,0.781232421875,-0.03142915748655796,0.1743739856094122,1.2281013868890702
1772555781401164500,0.79116455078125,-0.013803484424948692,0.1464936066456139,1.2899784357398747
1772555781411096300,0.801096435546875,0.007359130591154098,0.11183204310908913,1.2937608768880366
1772555781421027300,0.81102734375,0.05848667576014995,0.09042144468128681,1.2810760212294756
1772555781430959400,0.82095947265625,0.0942991628974676,0.07042699666172265,1.2513751488402485
1772555781440890600,0.830890625,0.1046036992907524,0.05388663461878895,1.2184154207855462
1772555781450822400,0.840822509765625,0.10062076713442802,0.06923471813723445,1.1778582964044064
1772555781460753400,0.85075341796875,0.07718786909878253,0.09665084059014915,1.1420187020644545
1772555781470685400,0.860685546875,0.006890344035625457,0.12232844881266355,1.1025341022856532
1772555781480616400,0.870616455078125,-0.09745382753610611,0.17103110492229462,1.0702745583895594
1772555781490548500,0.880548583984375,-0.16027064145505426,0.2342882099546492,1.0223058425776659
1772555781500479500,0.8904794921875,-0.2100613850623369,0.280379368391633,0.9425012881744652
1772555781510411500,0.90041162109375,-0.24007190792262553,0.317782047329843,0.8564011407583951
1772555781520342300,0.91034228515625,-0.30696400845646854,0.3595847147926688,0.7971803055047988
1772555781530274300,0.9202744140625,-0.2991951280206442,0.417502066232264,0.7266976331330836
1772555781540205600,0.93020556640625,-0.2361649636119604,0.4366062874138355,0.6580855038736015
1772555781550137600,0.9401376953125,-0.14493980133235454,0.41420054046884175,0.6092221042443067
1772555781560068400,0.950068359375,-0.11013561445474623,0.3651677756220102,0.5969388151239603
1772555781570000400,0.96000048828125,-0.10526303998231887,0.3244331757821142,0.5834290529485792
1772555781579931400,0.969931396484375,-0.13924129742980002,0.27307664416283367,0.555166761995107
1772555781589863400,0.979863525390625,-0.2128501389980316,0.2427040099918842,0.5175316625405103
1772555781599794400,0.98979443359375,-0.3002817542135715,0.23505890206620095,0.5004648654706776
1772555781609726500,0.9997265625,-0.44000995837748047,0.2430326574243605,0.4899859954237938
1772555781619657500,1.009657470703125,-0.6536234829634427,0.24985563531219956,0.46959012699648733
1772555781629589500,1.019589599609375,-0.9030342971175909,0.26077421195060013,0.45521925447974354
1772555781639520500,1.0295205078125,-1.146068561977148,0.308102657097578,0.444141614822112
1772555781649452500,1.03945263671875,-1.3701929591834545,0.37417233533263206,0.4513462855039164
1772555781659383600,1.049383544921875,-1.478712955135107,0.44939957188293334,0.44823381603918966
1772555781669315300,1.0593154296875,-1.4247177455753086,0.5199865814119577,0.40994003348015245
1772555781679246300,1.069246337890625,-1.1435551178514958,0.5742750748299061,0.31738519349936395
1772555781689178400,1.079178466796875,-0.7236012745529413,0.527785564725101,0.17896346882414071
1772555781699109600,1.089109619140625,-0.24987784714400768,0.42435821573734284,0.0067818786924704905
1772555781709041400,1.09904150390625,0.20955460458397865,0.31925928027555345,-0.11798037313837557
1772555781718972400,1.108972412109375,0.6278045665740967,0.19616218517795203,-0.2474874448761344
1772555781728904400,1.118904541015625,0.9799971252888441,0.07940101510360836,-0.38571627732776104
1772555781738835500,1.12883544921875,1.210991408264637,-0.002874240262061357,-0.4929151076782495
1772555781748767500,1.138767578125,1.3123591943740844,-0.06499678830653428,-0.5957935906115919
1772555781758698500,1.148698486328125,1.299692605024576,-0.08444470835924148,-0.6967185283243655
1772555781768630500,1.158630615234375,1.2295271819084883,-0.07015168685168027,-0.7896882692489773
1772555781778561500,1.1685615234375,1.1385399200379849,-0.041452977242320777,-0.8543703655831515
1772555781788493600,1.17849365234375,1.03069563139081,-0.0017601415403187275,-0.8825511887982487
1772555781798424600,1.188424560546875,0.9318623321950436,0.00942512321025133,-0.8794191013175994
1772555781808356600,1.198356689453125,0.862315333238244,0.033239567909389735,-0.8582087747022509
1772555781818287600,1.20828759765625,0.8323696923077106,0.08429477849453687,-0.844379571314156
1772555781828219600,1.2182197265625,0.7654495347231626,0.14376125907227397,-0.8149246365100145
1772555781838150400,1.228150390625,0.6898439663797616,0.19843246819749474,-0.7594217988662422
1772555781848082400,1.23808251953125,0.587963554573059,0.27648236095309253,-0.7039829663693904
1772555781858013700,1.248013671875,0.4827361704260111,0.37045141511335966,-0.6800502290528267
1772555781867945700,1.25794580078125,0.32538170867860317,0.4168343961037695,-0.6250008342649788
1772555781877876500,1.26787646484375,0.20027064341008663,0.4505130860827863,-0.5508669459093362
1772555781887808500,1.27780859375,0.11358604716956615,0.5087953253120183,-0.5201704135462641
1772555781897739800,1.28773974609375,0.03455751864016056,0.548161559408158,-0.48054326349161564
1772555781907671800,1.297671875,0.053824529168009755,0.5931418339937925,-0.4537287236610427
1772555781917602600,1.3076025390625,0.20287351938486098,0.6161889475822449,-0.466065715730004
1772555781927534600,1.31753466796875,0.3831196118980646,0.5841771679021418,-0.47866398908365515
1772555781937465600,1.327465576171875,0.590505640271306,0.5344659192718565,-0.5006815038960427
1772555781947397400,1.3373974609375,0.8032932354271412,0.4723245203964412,-0.5308284030197188
1772555781957328600,1.34732861328125,1.0171709639072417,0.393248645593971,-0.5428488399527966
1772555781967260700,1.3572607421875,1.189042026785016,0.3015571809768677,-0.5188968134138733
1772555781977191700,1.367191650390625,1.3252011402904986,0.2126462869890034,-0.4949577194217592
1772555781987123500,1.37712353515625,1.350911335608363,0.13384265325665473,-0.517759626077488
1772555781997054500,1.387054443359375,1.3458634045690296,0.07150456276535988,-0.5505899555988609
1772555782006986500,1.396986572265625,1.2709949183285236,0.048588966602087016,-0.5739918009091168
1772555782016917500,1.40691748046875,1.0983347508996724,0.039488545301556585,-0.6474046084485948
1772555782026849500,1.416849609375,0.9149655579298734,0.03567337092757225,-0.7162645019240677
1772555782036780500,1.426780517578125,0.7043687508165836,0.01529737624451518,-0.7703294157192111
1772555782046712600,1.436712646484375,0.5097334829449653,0.011689999402314424,-0.7870981796905397
1772555782056643600,1.4466435546875,0.3267775469511747,0.01826864714026451,-0.813831361380592
1772555782066575600,1.45657568359375,0.18864859467744827,0.004168225595355034,-0.8403759616959839
1772555782076506600,1.466506591796875,0.0778816965818405,-0.03832775789387524,-0.8375048632390797
1772555782086438700,1.476438720703125,-0.0602449176043272,-0.08743475702069699,-0.8130773281428962
1772555782096369400,1.486369384765625,-0.24465572858154772,-0.12360818642489611,-0.7591242772243917
1772555782106301400,1.496301513671875,-0.43432080682516094,-0.15807167010605333,-0.7341264679595828
1772555782116232700,1.506232666015625,-0.6203378839552403,-0.1773871228855103,-0.7621567767880857
1772555782126164700,1.516164794921875,-0.7971592627167702,-0.18051782212667167,-0.8349557632781565
1772555782136095500,1.526095458984375,-0.9560007481515407,-0.1846787411984056,-0.8805063120324164
1772555782146027500,1.536027587890625,-1.142420560863614,-0.19281455525048077,-0.8889366520516574
1772555782155958500,1.54595849609375,-1.302695293971896,-0.22055326072126627,-0.863298206795752
1772555782165890800,1.555890869140625,-1.4408762686938046,-0.2672802328437567,-0.8191476610325277
1772555782175821600,1.565821533203125,-1.5264210472494364,-0.2761013988114893,-0.7317704063527286
1772555782185753600,1.575753662109375,-1.5366963575482369,-0.2832064815763384,-0.5743829556511715
1772555782195684600,1.5856845703125,-1.4864116929441689,-0.32845746286213395,-0.39042639124747364
1772555782205616400,1.595616455078125,-1.3786346243143082,-0.41436705614216623,-0.255507322664652
1772555782215547600,1.605547607421875,-1.260329731929302,-0.4945894706312567,-0.16715967031642795
1772555782225479700,1.615479736328125,-1.0952151575744151,-0.5035204536490142,-0.10386115556145087
1772555782235410700,1.62541064453125,-0.8803571858853101,-0.47175315024927256,-0.04158957270141691
1772555782245342500,1.635342529296875,-0.6580939063757658,-0.434720765928179,-0.023684388578683137
1772555782255273500,1.6452734375,-0.4540034124165773,-0.41764432424716647,-0.05089344415217638
1772555782265205500,1.65520556640625,-0.2887888848185539,-0.41081579340137536,-0.09261763955131172
1772555782275136500,1.665136474609375,-0.13870003015995025,-0.41506307558231054,-0.10684756922740489
1772555782285068500,1.675068603515625,-0.03180734314918518,-0.4030306924831122,-0.09422237133421003
1772555782294999600,1.68499951171875,0.051342064702510834,-0.37332660522349176,-0.05475958152841776
1772555782304931600,1.694931640625,0.0917027166634798,-0.3462397877901792,-0.014395787762291728
1772555782314862600,1.704862548828125,0.12647358579337595,-0.33740123229622837,0.03579802022054791
1772555782324794600,1.714794677734375,0.10395721808075904,-0.3711260995045304,0.11002035404462367
1772555782334725600,1.7247255859375,0.05397241320610046,-0.37696094313785433,0.15675328098386526
1772555782344657700,1.73465771484375,0.029331308424472808,-0.3085294311422854,0.2026527893062681
1772555782354588400,1.74458837890625,0.012043489015102386,-0.24434067128300666,0.22865130004622042
1772555782364520400,1.7545205078125,-0.0026917233020067213,-0.21954875985383987,0.26091869845520704
1772555782374451700,1.76445166015625,0.014844517910480498,-0.18032609894685447,0.2449086804293096
1772555782384383700,1.7743837890625,-0.007890460988879203,-0.13189765666872263,0.17161211968064308
1772555782394314500,1.784314453125,-0.019741057780385016,-0.07090995787307619,0.08673654562346637
1772555782404246500,1.79424658203125,0.01934825907051563,-0.04458440713584423,-0.01284647596105933
1772555782414177500,1.804177490234375,0.0343073432713747,-0.07951791948154568,-0.07673954080939292
1772555782424109600,1.814109619140625,0.03325988004505634,-0.1647109619900584,-0.10645995814930646
1772555782434040600,1.82404052734375,0.02485562431514263,-0.22369857300966978,-0.0838082005539909
1772555782443972600,1.83397265625,0.02637362766265869,-0.23147607514336704,-0.12947072178274394
1772555782453903600,1.843903564453125,0.06890110226869582,-0.22952779061980544,-0.18288279769234358
1772555782463835400,1.85383544921875,0.0917547391116619,-0.2201013522353023,-0.16635178799964487
1772555782473766700,1.8637666015625,0.06633914282619953,-0.2503910573631525,-0.13733721737414598
1772555782483698700,1.87369873046875,-0.022592355558276177,-0.2791682390362024,-0.10760134673677384
1772555782493629700,1.883629638671875,-0.12945347838699817,-0.19825930358767507,-0.10207900311872363
1772555782503561500,1.8935615234375,-0.23341887977421283,-0.07614785852655769,-0.07476230418598279
1772555782513492500,1.903492431640625,-0.34972412277460097,0.013830153236165642,-0.028642832969967273
1772555782523424500,1.913424560546875,-0.42140170401930804,0.11463431411348282,-0.004340933547448367
1772555782533355500,1.92335546875,-0.4532289209127426,0.2073696617603302,0.020267876399774103
1772555782543287600,1.93328759765625,-0.4704407524764537,0.2558062142796814,0.08139438087791204
1772555782553218600,1.943218505859375,-0.4110942450165748,0.2789095881000161,0.13632756540756671
1772555782563150600,1.953150634765625,-0.31898119398653507,0.3044754795763641,0.1626083454213105
1772555782573081600,1.96308154296875,-0.23954759178757667,0.3389309260815382,0.14402444005310536
1772555782583013600,1.973013671875,-0.13237784140110015,0.35292642594724893,0.11600783095639199
1772555782592944600,1.982944580078125,-0.04657119703888893,0.35248445433340964,0.11363258972503244
1772555782602876700,1.992876708984375,0.0383680168390274,0.3403502182949334,0.10773958616368472
1772555782612807400,2.002807373046875,0.16194237405955791,0.2969567745093256,0.1310921489721164
1772555782622739500,2.012739501953125,0.40200083797872066,0.1619355059273541,0.2051568445490673
1772555782632670700,2.022670654296875,0.5039946470320225,0.07792202859222888,0.32619375571385023
1772555782642601500,2.0326015625,0.5014069686263799,0.15358911786451934,0.24587821958120912
1772555782652533500,2.042533447265625,0.5923983221501111,0.05061133927516639,0.25698234538696707
1772555782662464500,2.052464599609375,0.5410504122287034,-0.06338460386954248,0.2418202494272962
1772555782672396500,2.062396484375,0.4536819253772497,-0.13748458995558321,0.3112753688495606
1772555782682328600,2.07232861328125,0.425987862765789,-0.25027736785560845,0.42208245282508433
1772555782692259600,2.082259521484375,0.38066345091760156,-0.3434765336219221,0.5097642434094101
1772555782702190600,2.092190673828125,0.3614630758851766,-0.4391444275893271,0.5580965318366885
1772555782712122600,2.10212255859375,0.3271323517382145,-0.48507243135385214,0.4753376942051574
1772555782722053600,2.1120537109375,0.2433452305048704,-0.46285957663245497,0.3312118396041915
1772555782731985700,2.121985595703125,0.16459025821983814,-0.3963836556840688,0.18590740621052682
1772555782741916700,2.131916748046875,0.03481237018406391,-0.35307094898447394,0.08441321724243461
1772555782751848000,2.141847900390625,-0.12136311091184615,-0.30712365599758923,0.0698203360054642
1772555782761779000,2.151779052734375,-0.3667138360202312,-0.29554471575431523,0.10530107043776661
1772555782771711000,2.1617109375,-0.5434861149430275,-0.29258433157876135,0.14206928739733993
1772555782781642000,2.17164208984375,-0.6129243928283452,-0.28508688849546016,0.16513536141458898
1772555782791573800,2.18157373046875,-0.5543564685255289,-0.27121538033559917,0.22267825351860374
1772555782801504800,2.1915048828125,-0.47511751211583614,-0.2737700332544744,0.2618452752482146
1772555782811436800,2.201436767578125,-0.38283027356266974,-0.23975670449361203,0.2457275955967605
1772555782821368000,2.2113681640625,-0.27832185133993625,-0.16007226933874188,0.17248994369478896
1772555782831299800,2.2212998046875,-0.19606559293568132,-0.11168861605040728,0.15883178602466358
1772555782841230800,2.23123095703125,-0.10200842210054396,-0.11716755891814827,0.1860085284974426
1772555782851163000,2.241162841796875,-0.08550853819847107,-0.09890088453926145,0.17878679708298295
1772555782861093600,2.25109375,-0.07648527378737927,-0.05410509967505932,0.14011698428578673
1772555782871026000,2.26102587890625,-0.07110767240226268,-0.02513100719042122,0.14221244046138598
1772555782880957000,2.27095703125,-0.042154549640417094,-0.0061192865978926415,0.15735201406199484
1772555782890889000,2.280888916015625,-0.05359773467481136,0.02389956569932401,0.18606352835400028
1772555782900819700,2.29081982421875,-0.06685176852345466,0.04711721354909241,0.19020442755101247
1772555782910751700,2.300751708984375,-0.048589551123976706,0.05192527141794562,0.1703697001378052
1772555782920683000,2.31068310546875,0.004244797962903976,0.0576275747127831,0.1694642574643716
1772555782930615000,2.320614990234375,0.05390227057933807,0.04526983211673796,0.16069546100469306
1772555782940545800,2.3305458984375,0.10693711067438125,0.019732947539165616,0.15095842230105772
1772555782950477800,2.340477783203125,0.1613753878265619,0.018642741149663924,0.15972398562403395
1772555782960408800,2.350408935546875,0.2130687501847744,0.027856778892502185,0.14534416261585428
1772555782970340900,2.3603408203125,0.2585176651954651,0.02211056339070201,0.11086898849690333
1772555782980271900,2.37027197265625,0.29322014526426793,-0.015547843874245881,0.10679406720818951
1772555782990204000,2.380203857421875,0.29218963317275043,-0.0456596351519227,0.13027003720058128
1772555783000135000,2.390135009765625,0.2586854229778051,-0.08171506419964135,0.14544999761050567
1772555783010067000,2.40006689453125,0.2209235553383827,-0.08651596167534589,0.14823438589833676
1772555783019998000,2.409998046875,0.17419161477982997,-0.11540960933491587,0.14448133524144066
1772555783029930000,2.419929931640625,0.13701894520521163,-0.1224381927974522,0.15284412644980475
1772555783039861000,2.429861083984375,0.11013386088907719,-0.1262862465277314,0.15302395826242862
1772555783049792800,2.439792724609375,0.04754150337576866,-0.1486923587989062,0.168578560671024
1772555783059723800,2.449723876953125,0.005018120422959327,-0.1426368581522256,0.15632990447264164
1772555783069655800,2.45965576171875,-0.026793898901343344,-0.11885631572268902,0.1392195970546454
1772555783079587000,2.469587158203125,-0.05281505986452102,-0.09145217596851289,0.12212415841221809
1772555783089518800,2.479518798828125,-0.0801695152580738,-0.06991838955245912,0.08478482703380286
1772555783099449900,2.489449951171875,-0.06754618052840232,-0.0388324925456196,0.047552061302401125
1772555783109382000,2.4993818359375,-0.05227203902900219,-0.0462820778992027,0.013772102905996142
1772555783119312600,2.509312744140625,-0.06390870080888271,-0.00904503785148263,-0.005671067906357348
1772555783129245000,2.519244873046875,-0.0571253242790699,0.026699717811867592,-0.0471637561045587
1772555783139176000,2.529176025390625,-0.03339432007968426,0.0364946241825819,-0.05365443329811096
1772555783149108000,2.53910791015625,0.00755728351175785,0.040318785580620166,-0.06965840517571195
1772555783159038700,2.549038818359375,0.0671072045892477,0.013830299366638064,-0.06403967024479061
1772555783168970800,2.558970703125,0.056066755136847495,0.03351107832714915,-0.01094676155326888
1772555783178902000,2.568902099609375,0.04128127393722534,0.07553739847801626,-0.019300017748307436
1772555783188834000,2.578833984375,-0.01856616878211498,0.09307919264845549,0.03831173834083602
1772555783198764800,2.588764892578125,-0.032683541461825366,-0.010635448848083614,0.11352394171878695
1772555783208696800,2.59869677734375,-0.08274141157269477,0.07194821487963199,0.16533568802597
1772555783218627800,2.6086279296875,-0.11066636033058166,0.16600217084437607,0.13437149943634866
1772555783228560000,2.618559814453125,-0.10415361743569373,0.1268633888285607,0.07717163035003467
1772555783238491000,2.628490966796875,-0.11218670176565647,0.11642930777147412,0.031362357594352214
1772555783248423000,2.6384228515625,-0.1499737038463354,0.139478686382249,0.04352819434748962
1772555783258354000,2.64835400390625,-0.16174772827029227,0.16873963298425076,0.06559371302006765
1772555783268285700,2.65828564453125,-0.14926117166280745,0.206338199820742,0.08214675188148393
1772555783278217000,2.668217041015625,-0.11521218706667423,0.1901644791331142,0.08032753709768876
1772555783288149000,2.67814892578125,-0.04590484208464622,0.10090608688183128,0.12033367653256281
1772555783298080000,2.688080078125,0.023916297638416288,-0.01111716795042157,0.1524742519577965
1772555783308011800,2.69801171875,0.0918506007015705,-0.10656111696884035,0.2385932867374271
1772555783317942800,2.70794287109375,0.13828618866205214,-0.08929887039214372,0.2626128986198455
1772555783327874800,2.717874755859375,0.028879473003745076,-0.0737939888767898,0.21059779349397867
1772555783337806000,2.72780615234375,0.09710019179284572,-0.2777410557772964,0.13676186517160385
1772555783347737900,2.73773779296875,0.13499123876988886,-0.3033011020347476,-0.015710487090051174
1772555783357668900,2.7476689453125,0.05528174223899841,-0.2843428651951253,-0.1283728800760582
1772555783367601000,2.757600830078125,-0.02830897963941097,-0.12014474809803068,-0.27397837877552955
1772555783377531600,2.76753173828125,-0.057664837983250616,-0.0346833369769156,-0.2156360433895141
1772555783387464000,2.7774638671875,-0.19904899266064166,0.23164850910082457,-0.09503522208705543
1772555783397395000,2.78739501953125,-0.6326689577400684,0.4038943966403603,-0.0582554242875427
1772555783407327000,2.797326904296875,-0.5582371093511581,0.04425539437718689,0.00459094451945275
1772555783417257700,2.8072578125,-0.39289106432795523,-0.044636356518790124,0.2174616879140958
1772555783427189800,2.817189697265625,-0.2775058587819338,-0.07126257070302963,0.38639556482881304
1772555783437121000,2.82712109375,-0.24131810859143732,-0.08770765567794442,0.3923796807397157
1772555783447051800,2.8370517578125,-0.27932664446830746,-0.042972953351214524,0.2911078658180311
1772555783456983800,2.84698388671875,-0.33165245951116085,0.026714111663401124,0.17970855157040058
1772555783466915800,2.856915771484375,-0.3946615811318159,0.09657236852645873,0.09499017736893146
1772555783476846800,2.866846923828125,-0.432347460925579,0.16785963527932762,-0.0032396760409697887
1772555783486777900,2.87677783203125,-0.46568332881629465,0.19771080285944043,-0.0925937472190708
1772555783496710000,2.8867099609375,-0.4848433718383312,0.2196778661262244,-0.15147048174273223
1772555783506641000,2.896640869140625,-0.46611353692710394,0.2578141931012273,-0.16802600482217966
1772555783516573000,2.906572998046875,-0.36434710688889027,0.2828467083532363,-0.184965485717915
1772555783526503700,2.916503662109375,-0.22675883736312388,0.27076617526337504,-0.19261384504660964
1772555783536436000,2.92643603515625,-0.037268531164526934,0.23250914451815186,-0.18177987795174122
1772555783546367000,2.936366943359375,0.15690847154557705,0.17622465497739612,-0.20782792692184446
1772555783556299000,2.946299072265625,0.2869201683372259,0.10957293907068669,-0.24382848397716878
1772555783566229800,2.956229736328125,0.3776064014345407,0.0773415252905339,-0.24769801888689397
1772555783576161800,2.966161865234375,0.418318935573101,0.075098203343153,-0.26291308714281764
1772555783586093000,2.976093017578125,0.43080899931192396,0.06481244471557437,-0.31893793936669823
1772555783596024800,2.98602490234375,0.3723392746865749,0.03785276079326868,-0.37428587870970365
1772555783605955800,2.995955810546875,0.24525252543091772,0.036366467758268115,-0.41555063990354535
1772555783615888000,3.005887939453125,0.11907938388884066,0.06107727677524089,-0.4625089000312611
1772555783625819000,3.01581884765625,-0.013636311164498328,0.08665186301469803,-0.5041332152524963
1772555783635750700,3.025750732421875,-0.16420038211941718,0.10497596666924655,-0.5450395549301058
1772555783645682000,3.035681884765625,-0.2837374466478824,0.10157112666182219,-0.5459300740290433
1772555783655614000,3.045614013671875,-0.38370647187530993,0.09318732919804751,-0.48367644695080814
1772555783665545000,3.055544921875,-0.43148003044128413,0.06203384684771299,-0.3722142235348001
1772555783675476700,3.065476806640625,-0.4282271661251783,0.007077464105561375,-0.25730441694818434
1772555783685408000,3.075407958984375,-0.41684769397675986,-0.061572074554860586,-0.178733094134368
1772555783695340000,3.085340087890625,-0.34630759232938285,-0.10456146758422255,-0.13431984231434763
1772555783705270800,3.095270751953125,-0.26831308302283285,-0.13744776507653295,-0.08512951228562742
1772555783715202800,3.105202880859375,-0.21942834834456443,-0.151634330534935,-0.03201671158354729
1772555783725133800,3.1151337890625,-0.17478607354164122,-0.15670834586359558,0.02405380641296506
1772555783735065900,3.12506591796875,-0.16083821220993993,-0.15717976276762782,0.06150774061437696
1772555783744996900,3.134996826171875,-0.1760977406620979,-0.13504435719661415,0.09224310715049505
1772555783754929700,3.1449296875,-0.18746961402595042,-0.1110534599520266,0.13581716820001602
1772555783764860700,3.154860595703125,-0.18558102380037306,-0.07457607916519045,0.17278543777633457
1772555783774792700,3.164792724609375,-0.1851788727402687,-0.04434109989926219,0.20366938247028737
1772555783784723700,3.1747236328125,-0.14817279190421104,-0.010902721482142805,0.2018171421997249
1772555783794655700,3.18465576171875,-0.07280278588235378,0.03698825291842222,0.20096567646954208
1772555783804586800,3.194586669921875,0.003457446977496147,0.06360971786230803,0.198349027697742
1772555783814518800,3.204518798828125,0.0924351225912571,0.08315919859334826,0.1933232354249805
1772555783824449800,3.21444970703125,0.16693419099748133,0.07957556795291602,0.15776296948306262
1772555783834381800,3.2243818359375,0.19719488922655581,0.08519428461752832,0.16961009567584842
1772555783844312600,3.2343125,0.21470891860723496,0.09009316257499157,0.1946464468527585
1772555783854244600,3.24424462890625,0.22678221823871134,0.09484700603857636,0.20723098394200204
1772555783864175900,3.25417578125,0.2582546303451061,0.1264272624336183,0.22451412717625496
1772555783874107600,3.264107666015625,0.24994798977077007,0.11359671469405293,0.23451705027446149
1772555783884038700,3.27403857421875,0.23024901756644248,0.1026486197002232,0.2676053000796586
1772555783893970700,3.283970703125,0.2570136903733015,0.09339943757876754,0.29393019322976466
1772555783903901700,3.293901611328125,0.29843408052027226,0.08102847017496824,0.29285467295274137
1772555783913833700,3.303833740234375,0.3212964851915836,0.06525602376461029,0.3075010379426181
1772555783923764700,3.3137646484375,0.3282294993251562,0.050098202121257776,0.30821751564890143
1772555783933696800,3.32369677734375,0.29310791706144806,0.05916895893588662,0.31100780395455657
1772555783943627500,3.33362744140625,0.2096697553962469,0.061357847282290455,0.2970071895223111
1772555783953559600,3.3435595703125,0.1408417183637619,0.08972001841366291,0.2617854348197579
1772555783963490800,3.35349072265625,0.09433657229840754,0.11370090572088956,0.2357297139998525
1772555783973422800,3.3634228515625,0.04881809918284416,0.13701309998631478,0.21641506493799387
1772555783983353600,3.373353515625,-0.011389409020543098,0.1452330851905048,0.19523352602571248
1772555783993284600,3.38328466796875,-0.06613339112102985,0.17104951736181973,0.21301855436749756
1772555784003216600,3.393216552734375,-0.10589140101373196,0.16329159671142696,0.24059542034007608
1772555784013147600,3.403147705078125,-0.12905308089256287,0.14319821836203336,0.2760743646740913
1772555784023079700,3.41307958984375,-0.1328507196098566,0.13215411564782262,0.2753187970664352
1772555784033010700,3.4230107421875,-0.08942074320614338,0.11263232664130628,0.2558040223225951
1772555784042942700,3.432942626953125,-0.032393618604540826,0.08147263374589384,0.2178168214946985
1772555784052873700,3.442873779296875,0.022012509843707083,0.042452290477976204,0.15628895140774546
1772555784062805800,3.4528056640625,0.08846271182894706,0.012843991743028162,0.12429631481952964
1772555784072736800,3.46273681640625,0.12715630736052988,0.009807254395633935,0.10279263128079473
1772555784082668800,3.472668701171875,0.12132979316413402,-0.007279562548920512,0.07590352837666868
1772555784092599600,3.482599609375,0.10677870524227619,-0.01642813384011388,0.06638298196792602
1772555784102531600,3.492531494140625,0.0903559782296419,0.00561930118650198,0.054492272361740465
1772555784112462800,3.502462890625,0.0858165812343359,0.017580957137048242,0.04247705959305167
1772555784122395000,3.512394775390625,0.09116612556874752,0.009019172757863998,0.035391996702924367
1772555784132325600,3.52232568359375,0.10490998876094818,-0.01439202490262687,0.018658450175449252
1772555784142257700,3.532257568359375,0.10115209753215312,-0.021813772401213644,0.019379092600196598
1772555784152188700,3.542188720703125,0.10446282951533793,-0.03610533260405063,0.034431188846752045
1772555784162120700,3.55212060546875,0.12552782937586307,-0.055173021167516705,0.042243396967649456
1772555784172051700,3.5620517578125,0.11948679564595222,-0.08542831256911158,0.034905674490705134
1772555784181983700,3.571983642578125,0.12288520591259001,-0.08954349280297756,0.040740079732611775
1772555784191914800,3.581914794921875,0.11244096878767013,-0.08915975418239831,0.04474186271987855
1772555784201846500,3.591846435546875,0.08865209692120551,-0.08721256563737988,0.050405733700469135
1772555784211777800,3.60177783203125,0.07677695021033287,-0.07546243354566395,0.04217069705761969
1772555784221709800,3.611709716796875,0.06958733096718787,-0.06789652833603323,0.022394275702908632
1772555784231640800,3.621640869140625,0.04791618190705776,-0.05558941994868218,0.00398950802758336
1772555784241572600,3.631572509765625,0.02627776607275009,-0.03915836349911988,-0.02491933720111847
1772555784251503600,3.641503662109375,0.008238251513242721,-0.014001929606497286,-0.027090397629886864
1772555784261435600,3.651435546875,-0.00010229133069515228,0.009642419222742319,-0.041782574522867794
1772555784271366700,3.66136669921875,-0.02501461426913738,0.030374972258508205,-0.054937239650264376
1772555784281298700,3.671298583984375,-0.030747604963183402,0.03480265250764787,-0.034544951419532295
1772555784291229700,3.681229736328125,-0.022356208714842795,0.035990620183199644,-0.037725846477970476
1772555784301161700,3.69116162109375,0.006226911690831184,0.04212999972105026,-0.02559606741890311
1772555784311092700,3.7010927734375,0.04315349754989147,0.043687312165647744,-0.019916122086346147
1772555784321024800,3.711024658203125,0.08535480894148349,0.02159669558443129,-0.02977561812587082
1772555784330955800,3.720955810546875,0.11405249563753604,-0.018481997630000115,0.0013811521600931881
1772555784340887800,3.7308876953125,0.08960019142627716,-0.041289968700334426,0.025271657770127055
1772555784350818600,3.740818603515625,0.07739595889151096,-0.062130146829038856,0.060859688501805065
1772555784360750600,3.75075048828125,0.09996844070553779,-0.0973424030508846,0.09218085556924342
1772555784370681900,3.760681884765625,0.12209142518639564,-0.13495361017324028,0.08312602697610855
1772555784380614000,3.77061376953125,0.10834931555986403,-0.15058569826483725,0.060236515102162956
1772555784390544600,3.780544677734375,0.05555939013659954,-0.14802147380001843,0.035098566714301706
1772555784400475600,3.7904755859375,0.02112812822461128,-0.13129274957813322,0.02903166789077222
1772555784410407700,3.80040771484375,0.02262859591543674,-0.13154855097010731,0.013937486068159342
1772555784420338700,3.810338623046875,0.07906359984278678,-0.17256299066469072,0.009849997558817266
1772555784430270700,3.820270751953125,0.15939619670808314,-0.2093241568289697,0.018525836771726607
1772555784440201700,3.83020166015625,0.218144153752923,-0.22833580435626208,0.024540786212310192
1772555784450133800,3.8401337890625,0.2265583463549614,-0.20583682616986332,0.011581570591777562
1772555784460064800,3.850064697265625,0.14036474850177763,-0.18099844525046646,-0.03121514940969646
1772555784469996800,3.859996826171875,0.01077449199259281,-0.18859547625072298,-0.09050948829092084
1772555784479927800,3.869927734375,-0.10104162289500236,-0.19777100861407815,-0.13792992257028816
1772555784489859800,3.87985986328125,-0.15260755948126314,-0.21187449889890847,-0.09531345450654626
1772555784499790600,3.88979052734375,-0.15924772814810276,-0.22858948685638605,-0.04587510453350842
1772555784509722600,3.89972265625,-0.1394336051315069,-0.24840046806782481,-0.027162513018026947
1772555784519654000,3.90965380859375,-0.12800737123191355,-0.274629061236605,-0.018256664441525936
1772555784529585700,3.919585693359375,-0.13992811065018176,-0.27852994113266466,-0.052022594312578434
1772555784539516700,3.9295166015625,-0.19299217683970926,-0.24601941815018652,-0.05111417423076928
1772555784549448700,3.93944873046875,-0.24878888286352155,-0.17596541951932013,-0.026813261188939213
1772555784559379700,3.949379638671875,-0.2839478745281696,-0.1053928038418293,-0.04855579498484731
1772555784569311700,3.959311767578125,-0.2562023739904165,-0.028750585927069184,-0.09332140390649438
1772555784579242800,3.96924267578125,-0.21686346629261968,0.037872634537518025,-0.17077632644362747
1772555784589174800,3.9791748046875,-0.18428338520526885,0.1000467666387558,-0.2466875997353345
1772555784599105500,3.98910546875,-0.1455038649559021,0.15652721714302897,-0.3070874887056649
1772555784609037600,3.99903759765625,-0.11953648000657557,0.19357180335856972,-0.35281266337446865
1772555784618968800,4.00896875,-0.11888123096823691,0.21969788600094614,-0.366597296968475
1772555784628900900,4.01890087890625,-0.10411094733774662,0.23059973070025444,-0.34232816730439664
1772555784638831600,4.02883154296875,-0.0879296278655529,0.22443514365591108,-0.30831491160877045
1772555784648763600,4.038763671875,-0.06930676046013831,0.21967472432106733,-0.2728668738696724
1772555784658694700,4.048694580078125,-0.057523383685946464,0.21476225622966885,-0.24206439691409468
1772555784668626700,4.058626708984375,-0.04270750734806061,0.19333857912458477,-0.18609532999806105
1772555784678557700,4.0685576171875,-0.06212883165478706,0.16652977491505444,-0.12260456234030424
1772555784688489700,4.07848974609375,-0.1102285534352064,0.1622239674799144,-0.0369550813011825
1772555784698420700,4.088420654296875,-0.16442951470017433,0.1806618337072432,0.03199826261140406
1772555784708352800,4.098352783203125,-0.20584289058446884,0.15931187942549585,0.08924750553108751
1772555784718283800,4.10828369140625,-0.20896073034405707,0.15077508335709572,0.10441029561050236
1772555784728215800,4.1182158203125,-0.15714344934523106,0.17089564197435975,0.09727123751081526
1772555784738146800,4.128146728515625,-0.0986170260965824,0.15855441212169824,0.08180157343931496
1772555784748077600,4.13807763671875,-0.03556815698742866,0.12098923609815537,0.08228563062921165
1772555784758009000,4.148009033203125,0.014367548048496246,0.06794687028378248,0.11323102318681776
1772555784767941000,4.157941162109375,0.008848492366075515,0.04222914924658835,0.17314736642390488
1772555784777872100,4.1678720703125,0.012023615270853041,0.014245529104024171,0.2167407897610217
1772555784787803100,4.17780322265625,-0.0033709377378225323,-0.015965703960135576,0.23050993352495133
1772555784797735200,4.187735107421875,0.0005436053574085235,-0.04941694185882806,0.24337168012037871
1772555784807666200,4.197666259765625,0.014127894073724745,-0.08372019347697496,0.2494082568708807
1772555784817598200,4.20759814453125,0.020309797579050062,-0.1293766868237406,0.2437299189735204
1772555784827529200,4.217529296875,0.02809212201833725,-0.14258220535553992,0.21486009058095515
1772555784837461200,4.227461181640625,0.008164601755142211,-0.15240991801731288,0.2086591170489788
1772555784847392300,4.237392333984375,-0.053334699824452395,-0.1632728189457208,0.18542583323866127
1772555784857324000,4.247323974609375,-0.1059545293778181,-0.1734215802554041,0.15826251650303602
1772555784867255300,4.25725537109375,-0.1711322272092104,-0.18481734595149754,0.15799590145610273
1772555784877187300,4.267187255859375,-0.20312895545065401,-0.20827932395115495,0.20552995217777786
1772555784887118000,4.2771181640625,-0.21716332602202892,-0.20961736762188374,0.2315529397718608
1772555784897050000,4.287050048828125,-0.21720248898863792,-0.22263861562795936,0.24052761580087242
1772555784906981000,4.296981201171875,-0.22719021451771257,-0.24170718097425997,0.2556399178020656
1772555784916913200,4.3069130859375,-0.21259470293223856,-0.2121642025604844,0.25347755213640627
1772555784926844200,4.31684423828125,-0.20725918712317942,-0.18021262863501905,0.26220738655887543
1772555784936776200,4.326776123046875,-0.22095044334530828,-0.1412934076540172,0.27751258078366514
1772555784946707200,4.336707275390625,-0.2002022543489933,-0.08218290090709925,0.27048677380010483
1772555784956639200,4.34663916015625,-0.14718728799819947,-0.036113515910506246,0.24565599166527388
1772555784966570200,4.3565703125,-0.10113456187546252,-0.004403349525481462,0.21074834441319107
1772555784976502300,4.366502197265625,-0.037197219493985176,0.03178776166588068,0.17517302703261375
1772555784986433300,4.376433349609375,0.02415244448184967,0.062276788758113974,0.1445054285030812
1772555784996365300,4.386365234375,0.0987000282049179,0.08198847431354224,0.09844451907388865
1772555785006296000,4.396296142578125,0.17131693612635135,0.08347564413137734,0.04883914197087288
1772555785016228000,4.40622802734375,0.21021920597255228,0.09759886202998459,0.01697882652543485
1772555785026159400,4.416159423828125,0.23488427615165708,0.10184212562292813,-0.043705432344228023
1772555785036091100,4.426091064453125,0.2552227153033018,0.08676862126216292,-0.0816330850046128
1772555785046022100,4.436022216796875,0.2465256141066551,0.0927227804262191,-0.0901378784995526
1772555785055954200,4.4459541015625,0.21820845116078852,0.09753361477404832,-0.10784596914760768
1772555785065885200,4.45588525390625,0.15031564915180207,0.1242184272777289,-0.15276501506529747
1772555785075816200,4.465816162109375,0.0716039314866066,0.17361776041463017,-0.19672646799720822
1772555785085748200,4.475748291015625,-0.019677929416298864,0.21909933558590708,-0.23181999321021138
1772555785095680300,4.48568017578125,-0.12810206377804279,0.2719347075860947,-0.2630166571151465
1772555785105611000,4.495611083984375,-0.2220832467675209,0.30881029391027986,-0.2857497363183647
1772555785115542300,4.505542236328125,-0.3175426856160164,0.32712562973648307,-0.2600531311344355
1772555785125474300,4.515474365234375,-0.39192309607863424,0.34389468596875666,-0.21832857040911913
1772555785135405300,4.5254052734375,-0.4521007936656475,0.3404751598488539,-0.1477167186997831
1772555785145337000,4.535337158203125,-0.4812678514391184,0.334591800898686,-0.08813318761363625
1772555785155268000,4.54526806640625,-0.45987902645170686,0.3373834774438292,-0.033473595860972996
1772555785165200100,4.5552001953125,-0.37800153823196886,0.3285599003233015,0.011133899889513849
1772555785175131100,4.565131103515625,-0.2683312032014131,0.28832068278491496,0.014164718952775001
1772555785185063200,4.575063232421875,-0.15462825165390967,0.2325580251611769,-0.002813742246478796
1772555785194994200,4.584994140625,-0.05661503666937351,0.19737952507846057,0.0021601737085729837
1772555785204926200,4.59492626953125,0.010233224722743033,0.19508410761766135,0.04853562897965312
1772555785214857200,4.604857177734375,0.018974749583005903,0.1911264560330659,0.07661865437608212
1772555785224789200,4.614789306640625,0.04159983836710453,0.18783011790141463,0.12163326962273567
1772555785234720300,4.62472021484375,0.07195815175175667,0.1679445370838046,0.1409281545381993
1772555785244652300,4.63465234375,0.10886194125711918,0.1315187403537333,0.17256693618744612
1772555785254583000,4.6445830078125,0.15437281558811664,0.08737572030983864,0.21012111589293925
1772555785264515000,4.65451513671875,0.21518588846921918,0.036494916443526745,0.21455979246012866
1772555785274446300,4.6644462890625,0.29063772755563255,0.0045494069326668975,0.20121859178468585
1772555785284378400,4.67437841796875,0.33487434416711326,-0.03976334365494549,0.16934720695596187
1772555785294309000,4.68430908203125,0.3753729432940483,-0.06595496581420301,0.14074775646999477
1772555785304241200,4.6942412109375,0.4419049783438444,-0.09485928099825977,0.12834489609058947
1772555785314172200,4.704172119140625,0.493836825633049,-0.1481947114750743,0.10557290964908897
1772555785324104200,4.714104248046875,0.4897632925838232,-0.1981555509522557,0.07118859215136616
1772555785334035200,4.72403515625,0.41892450025081635,-0.20506628018878398,0.04620897613037377
1772555785343967200,4.73396728515625,0.32529110778570175,-0.17968414778150618,0.033841004401259124
1772555785353898200,4.743898193359375,0.2544832951128483,-0.15206139684058725,0.00164897278342396
1772555785363830000,4.753830078125,0.2047726310044527,-0.15152933579050004,-0.04248710606303066
1772555785373761300,4.76376123046875,0.12463000375330448,-0.13267170978114007,-0.06527622630242258
1772555785383693300,4.773693359375,0.07809738515913486,-0.12405877973660825,-0.07520685134939849
1772555785393624300,4.783624267578125,0.052044660013914106,-0.14997399610728024,-0.04820288989394903
1772555785403556000,4.79355615234375,0.014976619857549667,-0.191698337636888,-0.05188760628867894
1772555785413487000,4.803487060546875,-0.036625557085871695,-0.2217458315066993,-0.05476845895461738
1772555785423418400,4.81341845703125,-0.036601591688394546,-0.2217247887186706,-0.05525821523293852
1772555785433350100,4.82335009765625,-0.007007832935452461,-0.21215302357934415,-0.05049549434315413
1772555785443281200,4.83328125,0.03266249867379665,-0.2051465788833797,-0.06594192366953938
1772555785453213200,4.843213134765625,0.022096096473932264,-0.1824143033977598,-0.10392028360385447
1772555785463144200,4.853144287109375,-0.025575755283236502,-0.13452047945298254,-0.14084836730025707
1772555785473076200,4.863076171875,-0.10818331134319305,-0.07553666782565414,-0.13637429062612355
1772555785483007200,4.87300732421875,-0.17696400210261343,-0.011160276439785956,-0.13820735127218067
1772555785492939300,4.882939208984375,-0.2551297763228416,0.013770239742472767,-0.14074278803393245
1772555785502870000,4.8928701171875,-0.33229543358981606,0.05259527963399887,-0.10860687051750718
1772555785512802000,4.902802001953125,-0.3996639194637537,0.0957970733050257,-0.08316000231094658
1772555785522733300,4.9127333984375,-0.41220542112886904,0.12391272232942283,-0.06701287736929953
1772555785532665300,4.922665283203125,-0.41207039657235145,0.1319136579554528,-0.05933057923838496
1772555785542596000,4.93259619140625,-0.38754678069055076,0.1402449945796281,0.0019682313330471515
1772555785552528100,4.942528076171875,-0.3494178333044052,0.13204210664071142,0.0650649947045371
1772555785562459100,4.952459228515625,-0.3143120331317186,0.1385572606883943,0.1310806046647951
1772555785572391200,4.96239111328125,-0.28942016845941543,0.12539411999359726,0.16856847766842692
1772555785582322200,4.972322265625,-0.29133564669191836,0.11659385068342089,0.20836908459383993
1772555785592254200,4.982254150390625,-0.3038397389560938,0.1349340286899358,0.21283483183104543
1772555785602185200,4.992185302734375,-0.2905938884139061,0.1726329871609807,0.19264314420633016
1772555785612117200,5.0021171875,-0.2294984914600849,0.2323581917401403,0.1439729655941948
1772555785622048300,5.01204833984375,-0.14538462249040604,0.2784934815797955,0.09776735046468675
1772555785631980300,5.021980224609375,-0.06506663867235184,0.28935068341977893,0.06398680754639208
1772555785641911300,5.031911376953125,0.026305823123455047,0.26832396974302825,0.07009162722751498
1772555785651843300,5.04184326171875,0.10507657749950886,0.25338885093964636,0.08810220795348286
1772555785661774000,5.051774169921875,0.19189561377465725,0.21724727797843515,0.10021664331294595
1772555785671706000,5.0617060546875,0.28669220480024815,0.16835070673190056,0.0976280150592327
1772555785681637400,5.071637451171875,0.38494682732522484,0.11966273673474788,0.08626673615463078
1772555785691569200,5.081569091796875,0.42892625430524345,0.08978979571424424,0.08779014632962644
1772555785701500200,5.091500244140625,0.43805005648136136,0.06553111437894403,0.08331234332844614
1772555785711431200,5.10143115234375,0.45980596121549605,0.03699994335621595,0.07098733395822346
1772555785721363200,5.11136328125,0.48369478632509705,0.016311302527412773,0.06335274742655456
1772555785731294200,5.121294189453125,0.47082361431419845,-0.0015738982532173395,0.0305646496117115
1772555785741226200,5.131226318359375,0.3847445827513933,-0.02304017239101231,0.020971184097230432
1772555785751160600,5.14116064453125,0.299337166839838,-0.002524111650139093,0.02166238123178482
1772555785761092600,5.151092529296875,0.2074994256198406,0.0070344286814332,0.01031893024481833
1772555785771023600,5.161023681640625,0.11204232485890388,-0.00492686194293201,0.0008857698585838079
1772555785780955600,5.17095556640625,0.02123801833987236,-0.015473463463783263,0.025166151569038626
1772555785790886700,5.18088671875,-0.06121463941931724,-0.021762334474921225,0.046135216774418945
1772555785800818700,5.190818603515625,-0.10332359635233879,-0.04327953508235514,0.06366444372422993
1772555785810749400,5.20074951171875,-0.1075099421262741,-0.05977627717927098,0.052066506519541145
1772555785820681500,5.210681396484375,-0.11510697312653063,-0.07719795210137963,0.02615538180209696
1772555785830612700,5.22061279296875,-0.13016074987351894,-0.09137348470911383,0.0010289046563208102
1772555785840544800,5.230544677734375,-0.15025778148472307,-0.08951097877286374,-0.01556647550947964
1772555785850475500,5.2404755859375,-0.1648836882084608,-0.0819645819813013,-0.0449831971950829
1772555785860407600,5.250407470703125,-0.18829495893418788,-0.07169460544474422,-0.04568776526786387
1772555785870338600,5.260338623046875,-0.27416765426993367,-0.09575367255471647,-0.03694302553720772
1772555785880270600,5.2702705078125,-0.3987602486222982,-0.09395129930786789,0.008481193423643708
1772555785890201600,5.28020166015625,-0.47424891258776186,-0.05724354383125901,0.05114983006604015
1772555785900133600,5.290133544921875,-0.47916474168002604,-0.03913454423211515,0.04693002041392028
1772555785910064600,5.300064697265625,-0.4461941999703645,-0.023682781143486497,0.014805537606962025
1772555785919996400,5.309996337890625,-0.35093291404247284,-0.005955985794961452,0.000010594459250569344
1772555785929927700,5.319927734375,-0.234186941537261,-0.0007369359724223614,-0.004095671815797687
1772555785939859700,5.329859619140625,-0.1048696567505598,-0.017815496545284984,-0.015064955728128552
1772555785949790700,5.339790771484375,-0.014831073907017708,-0.050787207298725844,-0.011004647486656903
1772555785959721500,5.349721435546875,0.03447451653182507,-0.06499876106791198,-0.009520473343506456
1772555785969653500,5.359653564453125,0.03845394155681133,-0.04852240417189896,-0.005784209424629807
1772555785979584800,5.369584716796875,0.04480477188825607,-0.06466551052555441,0.0038566023629158733
1772555785989516800,5.379516845703125,0.06916998233795166,-0.0674623016372323,0.006020502398535609
1772555785999447600,5.389447509765625,0.09316928208470344,-0.06952727134302258,0.011022475404292345
1772555786009379600,5.399379638671875,0.09707681091725825,-0.06910955738760531,0.028732684944197534
1772555786019310600,5.409310546875,0.06765723968744278,-0.05755443641133606,0.06461706827394664
1772555786029242600,5.41924267578125,0.0661836600035429,-0.019978958189487455,0.0787626441348344
1772555786039173600,5.429173583984375,0.09117197078764439,0.005250248678401112,0.057176762205362316
1772555786049105700,5.439105712890625,0.09835925194323063,0.018225465585663913,0.01882503891400993
1772555786059036700,5.44903662109375,0.10296353086829185,0.0355947527334094,-0.02499751700386405
1772555786068968400,5.458968505859375,0.11208791756629943,0.04976590142697095,-0.05649864374808967
1772555786078899700,5.468899658203125,0.15300971054136753,0.03117445207312703,-0.09759542796388268
1772555786088831700,5.478831787109375,0.15249007058143615,-0.016958660520240663,-0.1224280367296189
1772555786098762500,5.488762451171875,0.13777473200857637,-0.03587137771770358,-0.12554390372782945
1772555786108694500,5.498694580078125,0.09000526509582996,-0.05719290962256491,-0.13050824813693762
1772555786118625500,5.50862548828125,-0.020716040292382238,-0.0534555497251451,-0.13765015578083692
1772555786128557600,5.5185576171875,-0.13460136266946793,-0.0026635201208293434,-0.14692527606114744
1772555786138488600,5.528488525390625,-0.2271492979854345,0.05454356415756047,-0.11784801546297967
1772555786148420600,5.538420654296875,-0.265588041973114,0.10855777067877352,-0.07770429418832063
1772555786158351600,5.5483515625,-0.2727577874720096,0.12504201862029732,-0.048182723888754844
1772555786168283600,5.55828369140625,-0.22850597329139707,0.1344930799894035,-0.04208396862223744
1772555786178214700,5.568214599609375,-0.1866781713873148,0.14959610270559787,-0.03305127879567444
1772555786188146700,5.578146728515625,-0.1462660815000534,0.14851451801396906,-0.05362316137701273
1772555786198077700,5.58807763671875,-0.1542214244186878,0.13516308820545672,-0.07741064500398934
1772555786208008400,5.598008544921875,-0.16757482698857784,0.13786993601135908,-0.08667093304134905
1772555786217940500,5.6079404296875,-0.18476327767670153,0.1400012489516288,-0.061150122815743085
1772555786227871700,5.617871826171875,-0.19801088178455828,0.146302687183395,-0.04415405289456248
1772555786237803800,5.6278037109375,-0.2290419798642397,0.14887706771604717,0.016135945960506794
1772555786247734500,5.637734619140625,-0.2174865666270256,0.15202742150574922,0.06773534642495214
1772555786257666600,5.64766650390625,-0.17509002492427825,0.15649806411378084,0.10872092535123229
1772555786267597600,5.65759765625,-0.1678080512225628,0.14694405382685363,0.12577807780988515
1772555786277529600,5.667529541015625,-0.16287234838604925,0.14611176772117615,0.13068681957423686
1772555786287460600,5.677460693359375,-0.15253507876694203,0.16238763360902667,0.14687259602583944
1772555786297392600,5.687392578125,-0.12037877604961394,0.16239260204508899,0.16460194865763186
1772555786307323600,5.69732373046875,-0.05027823486328125,0.12015811903625725,0.18237097571268676
1772555786317255700,5.707255615234375,0.022774141865968704,0.03941781815290451,0.19234101945459842
1772555786327186700,5.717186767578125,0.07023907287418842,-0.04261033058390021,0.1865383975904435
1772555786337118700,5.72711865234375,0.07085632798969745,-0.0889585325218737,0.17706738941185177
1772555786347049700,5.7370498046875,0.047522214153409,-0.12308102074563503,0.15558964403197167
1772555786356981500,5.7469814453125,-0.025714286971092223,-0.14524170688837765,0.12175978207923471
1772555786366912500,5.75691259765625,-0.12096329793930052,-0.13529811276197432,0.09125124656893312
1772555786376844500,5.766844482421875,-0.22655191661417484,-0.0945347252190113,0.02221658104844391
1772555786386775800,5.77677587890625,-0.3488210364550352,-0.07097454754188656,-0.030422976118698715
1772555786396707600,5.78670751953125,-0.4361941994816065,-0.03675502868443727,-0.06870097658671438
1772555786406638600,5.796638671875,-0.4931564421534538,0.0037333413094282147,-0.09091901893988251
1772555786416570600,5.806570556640625,-0.5288099393367767,0.035397622726112604,-0.09177987355291843
1772555786426501600,5.816501708984375,-0.5379050999403,0.08509951900616287,-0.08010843272060156
1772555786436432600,5.8264326171875,-0.5524988579601049,0.11891454871594904,-0.07377674548104406
1772555786446364700,5.83636474609375,-0.5607511379987001,0.16730156300514937,-0.051171822702139616
1772555786456295700,5.846295654296875,-0.5312561634451151,0.2341794888831675,-0.018339082027971743
1772555786466227500,5.8562275390625,-0.4367512488424778,0.29009295315444467,0.011344985356926917
1772555786476158700,5.86615869140625,-0.27427345273196696,0.30086729901656506,0.02205751802921295
1772555786486090800,5.8760908203125,-0.12001695699989795,0.30064634974226356,0.029498408619686958
1772555786496021500,5.886021484375,0.00969838719367981,0.3005050415754318,0.06327434842810034
1772555786505953500,5.89595361328125,0.09052373601198196,0.2986876168899238,0.06382942502759396
1772555786515884500,5.905884521484375,0.15489537815749643,0.3105783995613456,0.02374064881056547
1772555786525816600,5.915816650390625,0.2031990980774164,0.32278102466091513,-0.02877681634686887
1772555786535747600,5.92574755859375,0.24780980869829652,0.32600320157781243,-0.05038381412960589
1772555786545679600,5.9356796875,0.29279052167534825,0.335492183804512,-0.0663349781077355
1772555786555610600,5.945610595703125,0.36266017671525475,0.32147637180313465,-0.05254208814203739
1772555786565542700,5.955542724609375,0.4155652529507875,0.30099867031127214,-0.042280185314081606
1772555786575473700,5.9654736328125,0.4554015887767076,0.2944447186231613,-0.02735047333817929
1772555786585405700,5.97540576171875,0.47712066863179203,0.28500790497511624,-0.019838234544545412
1772555786595336700,5.985336669921875,0.48658466254770755,0.2696406783647835,-0.017581505126319823
1772555786605268700,5.995268798828125,0.48571255588829515,0.24543694208711384,-0.02774871540814638
1772555786615199500,6.005199462890625,0.482872364026308,0.1933621791958809,-0.01590692297760397
1772555786625131500,6.015131591796875,0.4688210423201322,0.139039929638803,0.003356872679851949
1772555786635062800,6.025062744140625,0.4667039040356874,0.08530994688645005,0.018750147046893834
1772555786644994800,6.034994873046875,0.46602878125309943,0.033785949745774264,0.04702588200382888
1772555786654925600,6.044925537109375,0.4522492622256279,-0.008741963251680135,0.07810721243340521
1772555786664856600,6.054856689453125,0.45980011599659915,-0.08512684540450573,0.09414682187996805
1772555786674788600,6.06478857421875,0.46664136019349095,-0.14729747037440538,0.12817549434043465
1772555786684719600,6.0747197265625,0.47375616063475606,-0.20185162899121642,0.14167104532737285
1772555786694651600,6.084651611328125,0.4533160146743059,-0.2586960905022919,0.16229790949895978
1772555786704582700,6.094582763671875,0.4152309064298868,-0.3060504007428884,0.19931359841357915
1772555786714514700,6.1045146484375,0.3684545422077179,-0.30832828254699707,0.22249767278730867
1772555786724445700,6.11444580078125,0.31634850739538667,-0.3107904348768294,0.21652773153223095
1772555786734377700,6.124377685546875,0.25552374407649037,-0.3217845609694719,0.20684684346262364
1772555786744308700,6.134308837890625,0.188621122148633,-0.32624080972597,0.22477033042702824
1772555786754237700,6.14423779296875,0.14204291084706783,-0.33083588243126866,0.24310765888933092
1772555786764168400,6.15416845703125,0.07104571308195591,-0.3289370630726218,0.2648490236414596
1772555786774100500,6.1641005859375,-0.01613163511157036,-0.3274306040324271,0.261487072927691
1772555786784031700,6.17403173828125,-0.09504325926303862,-0.28751053544580935,0.2506490507122129
1772555786793963800,6.1839638671875,-0.17355740852952004,-0.24294030296579003,0.2686994885245338
1772555786803894500,6.19389453125,-0.23665070130228996,-0.20635551628172397,0.2661921818787232
1772555786813826600,6.20382666015625,-0.2924228574067354,-0.18702990743443368,0.29628526845593006
1772555786823757600,6.213757568359375,-0.33030922820866104,-0.15152955498620868,0.30417901738043873
1772555786833689600,6.223689697265625,-0.34409166984558104,-0.1296514851771295,0.3025601840069517
1772555786843620600,6.23362060546875,-0.33374270978868004,-0.11771613271161913,0.2633639727154746
1772555786853552600,6.243552734375,-0.30945407170653344,-0.0974612801901996,0.22389983120281248
1772555786863483600,6.253483642578125,-0.24461656561493872,-0.057305941542983053,0.20982786856740712
1772555786873415400,6.26341552734375,-0.17093407428860663,-0.032568536780029536,0.1644488404551521
1772555786883346400,6.273346435546875,-0.11125146674215793,-0.05389613309949636,0.11175189054496586
1772555786893277700,6.283277587890625,-0.04246200815439224,-0.039615678812563414,0.07319492700509726
1772555786903209700,6.293209716796875,-0.001603343543410301,-0.028950930804759262,0.03683510818332433
1772555786913140500,6.303140380859375,0.003593640577793121,-0.04384074916169047,0.002418532383814454
1772555786923072500,6.313072509765625,-0.006535539248585701,-0.05220438062027096,-0.009853066298738122
1772555786933003800,6.323003662109375,-0.03567512449324131,-0.028922873754054307,-0.007661620669066905
1772555786942935600,6.332935546875,-0.07445639830827712,-0.012988807041198015,-0.018450433447957038
1772555786952866600,6.342866455078125,-0.07726619503200054,-0.025694267096370457,-0.05096161401756107
1772555786962798600,6.352798583984375,-0.060277650830149646,-0.03702434714511037,-0.09646280720476061
1772555786972729600,6.3627294921875,-0.05627601397335529,-0.03998860377818346,-0.14894929270204155
1772555786982661400,6.372661376953125,-0.04627250635325909,-0.03213204505890608,-0.1608081093326211
1772555786992592600,6.382592529296875,-0.019453473010659215,-0.040508828260004515,-0.17996161301601676
1772555787002524700,6.392524658203125,-0.030725977653265,-0.05071326527968049,-0.16904486300852148
1772555787012455400,6.402455322265625,-0.05645546219348907,-0.05212240142524242,-0.1022435825632885
1772555787022387500,6.412387451171875,-0.06912672771811484,-0.06562500320747494,-0.011948175414465367
1772555787032318700,6.422318603515625,-0.04741700021326541,-0.055916971402615305,0.026104418799839914
1772555787042250800,6.432250732421875,-0.02959785040616989,-0.050227673719823354,0.06646346332561225
1772555787052181500,6.442181396484375,-0.019852116939425467,-0.020404197864234447,0.0576707928000018
1772555787062113500,6.452113525390625,-0.042213586351275444,0.039579292324930425,-0.06116199591662735
1772555787072044500,6.46204443359375,-0.07311608961522578,0.10218187897130847,-0.19445004749782382
1772555787081976600,6.4719765625,-0.03842003928720951,0.151905694822222,-0.22181162675190716
1772555787091907600,6.481907470703125,0.020673370194435117,0.1662871252655983,-0.2046887886459008
1772555787101838600,6.491838623046875,0.059601359003782266,0.13678396740555762,-0.12347056805249303
1772555787111770600,6.5017705078125,0.11510521956086157,0.11938304301053285,-0.03371127707436681
1772555787121701400,6.511701416015625,0.12220073077976704,0.0887653480373323,0.049879116010479625
1772555787131633400,6.52163330078125,0.050988428959250445,0.02565554252117872,0.09608516953140496
1772555787141564700,6.531564697265625,-0.05923544830083847,0.0009102467127144337,0.14633863527961075
1772555787151496700,6.54149658203125,-0.1408119077473879,0.017829525070637463,0.17744181221481412
1772555787161427500,6.551427490234375,-0.189296244931221,0.04889847094267606,0.22223865652494132
1772555787171359500,6.561359375,-0.18851064751148222,0.06653568831160664,0.2130412045907229
1772555787181290800,6.571290771484375,-0.1407329972922802,0.0969461702749133,0.13589235232807695
1772555787191222800,6.581222900390625,-0.07903904992341995,0.09647928341552614,0.03834712018147111
1772555787201153500,6.591153564453125,-0.03823416132628917,0.08293152731731533,0.0069199354562908405
1772555787211085600,6.60108544921875,0.021437340304255485,0.09865151288807392,0.0008397752923890948
1772555787221016600,6.6110166015625,0.09708207161426544,0.10156082446351647,0.016980945417284964
1772555787230948600,6.620948486328125,0.15708149002492428,0.06857201644480228,0.004696779514104127
1772555787240879600,6.630879638671875,0.11636194162368774,0.03987549879252911,-0.024025493633933363
1772555787250811600,6.640811767578125,0.018125439277291298,0.05098623700216412,-0.009038425447605549
1772555787260742700,6.65074267578125,-0.06611702450811863,0.06302607275545596,-0.0017607625948265193
1772555787270674400,6.66067431640625,-0.09322188905477523,0.05595788793489337,0.02059818606637418
1772555787280605400,6.67060546875,-0.10237550184726714,0.026279958029836414,0.038318551674112675
1772555787290537500,6.680537353515625,-0.11336217528581619,-0.0271203543767333,0.04377911863494664
1772555787300468700,6.69046875,-0.08871931693851948,-0.06310746742859483,0.06782032129466534
1772555787310399500,6.7003994140625,-0.09546177693605422,-0.0955075157739222,0.0743502345200628
1772555787320331500,6.71033154296875,-0.08907003007233143,-0.11048778889328241,0.054717788213305175
1772555787330262800,6.7202626953125,-0.05458557666838169,-0.10046908370405434,0.05155552479010075
1772555787340194600,6.730194580078125,-0.02835340330302715,-0.0996370167940855,0.032732458637468514
1772555787350125600,6.74012548828125,-0.06343640712201595,-0.10456614375934004,-0.01138787465058267
1772555787360057600,6.7500576171875,-0.0973755016028881,-0.0834174111381173,-0.05929748068638146
1772555787369988600,6.759988525390625,-0.11773673710823059,-0.0471934205904603,-0.10046228863708674
1772555787379920400,6.76992041015625,-0.13830898501574992,-0.03678293960466981,-0.12727701113075018
1772555787389851600,6.7798515625,-0.16872048989236355,-0.038213118538260454,-0.12663779991175977
1772555787399783700,6.78978369140625,-0.17640110752284527,-0.015909224532544612,-0.09305515418574213
1772555787409714400,6.79971435546875,-0.180129772657156,0.00003039513826370239,-0.052147645464353264
1772555787419646500,6.809646484375,-0.16475976956784724,-0.0012244272284209728,-0.010858991938270628
1772555787429577500,6.819577392578125,-0.1280149700164795,-0.015276771847903728,-0.009311287572234869
1772555787439509500,6.829509521484375,-0.11653729819059372,-0.018084376614540813,0.009005180765129626
1772555787449440500,6.8394404296875,-0.14464227969050406,0.016239917791634795,0.03217113496027887
1772555787459372500,6.84937255859375,-0.15560148060023785,0.045707565946877,0.06009991964306682
1772555787469303600,6.859303466796875,-0.15473346559405327,0.05718962168693542,0.09396306281089782
1772555787479235600,6.869235595703125,-0.12192249836027622,0.05252542926818132,0.15984521911721675
1772555787489166600,6.87916650390625,-0.08683657193183898,0.05090075067579746,0.19461820713896302
1772555787499098600,6.8890986328125,-0.08414660219550132,0.05741217839643359,0.15677523708734661
1772555787509029600,6.899029541015625,-0.0478968926846981,0.08374810439720749,0.09990516621097922
1772555787518960400,6.90896044921875,-0.0039022681355476378,0.11138649129867553,0.03324866453129798
1772555787528892400,6.918892333984375,0.06464812099933624,0.11255042051151394,-0.017014847686886787
1772555787538823700,6.92882373046875,0.11850655243694781,0.12988047162741423,-0.013770276275090872
1772555787548755700,6.938755615234375,0.1460217513501644,0.1339626263745129,0.0002544862177222967
1772555787558686500,6.9486865234375,0.17141162867248058,0.1210028992973268,0.022334873665869236
1772555787568618500,6.958618408203125,0.19086685524880884,0.123427934487164,0.021747611829824744
1772555787578549500,6.968549560546875,0.18492928189337252,0.1357739135801792,0.018394611607491968
1772555787588481800,6.978481689453125,0.18552958587408064,0.13080021682083606,0.019821466072835026
1772555787598412500,6.98841259765625,0.17651976546645162,0.12381503410860896,0.005107515739463269
1772555787608344600,6.998344482421875,0.16455869403779505,0.12959595559760928,-0.0076597575055435295
1772555787618275600,7.008275634765625,0.15021511138677596,0.1349001994855702,-0.024527305676229297
1772555787628207600,7.01820751953125,0.1257581310003996,0.12671791594326495,-0.0195350503468886
1772555787638138600,7.028138671875,0.08437631929814815,0.10860431323423982,-0.0077288041537627574
1772555787648070700,7.038070556640625,0.025520225703716277,0.08453808573111891,0.001173318095691502
1772555787658001700,7.048001708984375,-0.049396191331744194,0.07070069903656839,0.014068382438831031
1772555787667933400,7.057933349609375,-0.12630173635780811,0.07236410220414399,0.03956011270042509
1772555787677864400,7.067864501953125,-0.19359364986419678,0.07620967171639204,0.06511069700978696
1772555787687796500,7.07779638671875,-0.2274152554452419,0.057114510624110694,0.0755930376553908
1772555787697727700,7.087727783203125,-0.21036066026985645,0.037378421279788014,0.08774378643725067
1772555787707658500,7.097658447265625,-0.1615992597103119,0.015376286699622868,0.08435472852084785
1772555787717590500,7.107590576171875,-0.0928051249474287,-0.007870879505574703,0.08798439026009292
1772555787727521500,7.117521484375,-0.030367081212997436,-0.0316407544106245,0.08362769288793205
1772555787737453600,7.12745361328125,0.014449381113052367,-0.05721329482346773,0.051650546129792925
1772555787747384600,7.137384521484375,0.04596154070794582,-0.07482932327389717,0.03646236588079482
1772555787757316600,7.147316650390625,0.04841244099140167,-0.08504486620947718,0.04191982756908983
1772555787767247600,7.15724755859375,0.032682372418045995,-0.09212269564121961,0.05457184040397405
1772555787777179400,7.167179443359375,-0.016179565906524657,-0.10138532176613807,0.05852700777053833
1772555787787110700,7.177110595703125,-0.06696808837950229,-0.08215615903064608,0.07401990658715367
1772555787797042700,7.187042724609375,-0.07986614839732646,-0.07178089548870921,0.05240552921555936
1772555787806973400,7.196973388671875,-0.07918751848340035,-0.057029901080578566,0.01214431904107332
1772555787816905500,7.206905517578125,-0.07598316948413848,-0.03784267779067158,-0.02600227359961718
1772555787826836500,7.21683642578125,-0.07187105799019336,-0.01106295354515314,-0.06347498556673527
1772555787836768500,7.2267685546875,-0.07542378203570842,0.015644143855571745,-0.06288637202382087
1772555787846699500,7.236699462890625,-0.09131167151927948,0.028875527480989694,-0.0734773606756702
1772555787856631600,7.246631591796875,-0.0838689542979002,0.03813669230118394,-0.07066347229871899
1772555787866562600,7.2565625,-0.05504442635178566,0.050801089693605896,-0.06689374450165778
1772555787876493600,7.26649365234375,-0.04457797739505768,0.04186915682777762,-0.041093423214927316
1772555787886425600,7.276425537109375,-0.055255438753962514,0.036605098819732666,-0.021187895587831733
1772555787896356600,7.286356689453125,-0.0791805042207241,0.05422010435685515,0.004206036855094134
1772555787906288600,7.29628857421875,-0.07637538367211819,0.050138095740228886,0.004130414335615932
1772555787916219400,7.306219482421875,-0.06593757628798484,0.05177431863993406,0.0015338585037738084
1772555787926151400,7.3161513671875,-0.04158697888553142,0.09009937312006949,0.02052439017780125
1772555787936082700,7.326082763671875,-0.049830491095781325,0.10380655756369232,0.011619527981989085
1772555787946014700,7.3360146484375,-0.009816460615396498,0.0997214802071452,0.018122078276425597
1772555787955945500,7.345945556640625,0.03286474324762821,0.09698810972049832,0.03437657258268446
1772555787965877500,7.35587744140625,0.034247137516736983,0.07555354589521884,0.03469857107866555
1772555787975808500,7.36580859375,0.056878071519732475,0.0607242255538702,0.04817249475568533
1772555787985740500,7.375740478515625,0.08231880224645137,0.036904520157724614,0.04517795258220285
1772555787995671600,7.385671630859375,0.058037762948870655,0.018616145403683185,0.07315686001703142
1772555788005603600,7.395603515625,0.02184533658325672,0.033047260207682845,0.08719060953389852
1772555788015534600,7.40553466796875,0.0064794251471757885,0.04848126844391226,0.08539959793128073
1772555788025466600,7.415466552734375,0.02941664862036705,0.026860388266295193,0.04023370111305266
1772555788035397600,7.425397705078125,0.07996551711857318,0.007616904744505882,-0.0061008376257494085
1772555788045329700,7.43532958984375,0.08793138143122195,0.0020880583204329014,-0.016725034427456556
1772555788055260700,7.4452607421875,0.03507715860009193,-0.018587942222505805,0.010512808849103748
1772555788065191400,7.45519140625,-0.041835985210537906,-0.017328297550231218,0.034511451008729634
1772555788075123500,7.46512353515625,-0.0910620806723833,-0.005075695829093456,0.05208711091615259
1772555788085054700,7.4750546875,-0.09223053992986678,-0.007542962725460529,0.0645337739046663
1772555788094986800,7.48498681640625,-0.10385258866250514,-0.022604630517959592,0.06543631223496049
1772555788104917500,7.49491748046875,-0.13241349723637102,-0.026339579262584446,0.07262615067381412
1772555788114849500,7.504849609375,-0.14833762707710266,-0.020203268464654683,0.060939950663782654
1772555788124780500,7.514780517578125,-0.1853746875733137,-0.006035919163376093,0.04639529248271137
1772555788134712600,7.524712646484375,-0.19381050748527048,0.0030826223157346248,0.03221669113505631
1772555788144643600,7.5346435546875,-0.18689385996460914,-0.00001987374424934387,0.0020907252015545962
1772555788154575600,7.54457568359375,-0.16438509103655813,0.008982786270231007,-0.028898360367305576
1772555788164506600,7.554506591796875,-0.1278232468366623,0.004551087433099747,-0.03832713683936745
1772555788174438400,7.5644384765625,-0.09722235686779021,0.009517769929766655,-0.033635508424416184
1772555788184369700,7.57436962890625,-0.07645955482423306,0.03134250211641192,-0.044879736820608376
1772555788194301700,7.5843017578125,-0.03407704164683819,0.06996727019548415,-0.05097692118454724
1772555788204232700,7.594232666015625,-0.020851649370789527,0.07145064062103629,-0.061378232483193275
1772555788214164500,7.60416455078125,-0.04041559701859951,0.06055778294578194,-0.045043256819248194
1772555788224095500,7.614095458984375,-0.03497077561616897,0.07856777914986014,-0.009626162207685411
1772555788234027500,7.624027587890625,-0.03469897293746471,0.08610460439547896,0.014780805024504661
1772555788243958500,7.63395849609375,-0.013556816187500953,0.08300298511832951,0.015938158366084098
1772555788253889500,7.6438896484375,0.029783143845200536,0.07904182640239596,0.021544636603631078
1772555788263821600,7.653821533203125,0.095161917206645,0.06989508174210786,0.017797522497177122
1772555788273752600,7.663752685546875,0.17406944970488547,0.04954319858700037,-0.0013463000424206255
1772555788283684600,7.6736845703125,0.22545359998345374,0.014167787692695855,0.026508798349648713
1772555788293615600,7.68361572265625,0.21060089876651764,-0.0176623518101871,0.05835545059591531
1772555788303547600,7.693547607421875,0.17674071474075317,-0.01003492567166686,0.06500208553615958
1772555788313478400,7.703478515625,0.12731471279263495,0.004527706557512283,0.06705879887025804
1772555788323410400,7.713410400390625,0.08928162699639797,0.014237638058513403,0.05565795514024794
1772555788333341700,7.723341796875,0.06039689329564571,-0.0016267244189977644,0.01995082807354629
1772555788343273700,7.733273681640625,0.06323065541684628,0.0036224282808601854,-0.007759308889880776
1772555788353204500,7.74320458984375,0.0988829835563898,0.014514263042807578,0.005185366748645902
1772555788363136500,7.753136474609375,0.09522738365828991,-0.005364888034015893,0.033144436971843244
1772555788373067500,7.763067626953125,0.0998982980787754,-0.05103285262286663,0.040647469545714555
1772555788382999600,7.77299951171875,0.09971183559596537,-0.07339651399180293,0.08156820307485758
1772555788392930600,7.7829306640625,0.09077215781509876,-0.07698737809062003,0.1054705452531576
1772555788402862600,7.792862548828125,0.06315291400551795,-0.08397343758568167,0.12322210971675812
1772555788412793600,7.802793701171875,0.03837561562359333,-0.07691986581236124,0.11751761446483433
1772555788422724600,7.812724609375,-0.013225392276048659,-0.05680968245863914,0.08128763256780802
1772555788432656600,7.82265673828125,-0.04584697441756725,-0.0671922525241971,0.06781907918564975
1772555788442587600,7.832587646484375,-0.08272446043789386,-0.055303661809861654,0.1011404801595956
1772555788452519700,7.842519775390625,-0.17212825250923633,-0.015537176349759102,0.10097045735493301
1772555788462450400,7.852450439453125,-0.19445289704203605,0.014480506903678178,0.07757697801422327
1772555788472382500,7.862382568359375,-0.15038579177856445,0.0400773049749434,0.02301858161371201
1772555788482313700,7.872313720703125,-0.11758826854825019,0.044358051034063095,-0.07599833052065223
1772555788492245800,7.882245849609375,-0.10670154835283756,0.05915171554014086,-0.13985654325131325
1772555788502176500,7.892176513671875,-0.13403496095836162,0.08141454688310623,-0.12150401721987873
1772555788512108500,7.902108642578125,-0.16645839017927647,0.10839710022434591,-0.06848141555190086
1772555788522039600,7.91203955078125,-0.20734861897230147,0.08878259143307804,-0.028286877405457198
1772555788531971600,7.9219716796875,-0.22184417731463907,0.0754844261817634,0.016251425566338
1772555788541902600,7.931902587890625,-0.24980828903913496,0.05582490920498967,0.04708122892025858
1772555788551834600,7.941834716796875,-0.18911212053596974,0.11689634076133369,0.08912819000035524
1772555788561765600,7.951765625,-0.04717033197581768,0.18854834917336702,0.16049075047913938
1772555788571697400,7.961697509765625,0.1262900459200144,0.04640826156213879,0.04655450163241476
1772555788581628700,7.971628662109375,0.29240765983760353,-0.1238977439559996,-0.22353698923978954
1772555788591559700,7.9815595703125,0.2881009025543928,-0.03536488950029015,-0.1010978831268847
1772555788601491700,7.99149169921875,0.12943769629597662,0.11260843430906534,-0.03009874913301319
1772555788611422500,8.00142236328125,0.0792108993589878,0.034543197853863235,0.18970478919949382
1772555788621354500,8.0113544921875,-0.1081634375989437,-0.13616305902823805,0.4501855346288532
1772555788631285800,8.02128564453125,-0.22869477386176584,-0.09144494251012801,0.613138839296624
1772555788641217500,8.031217529296875,-0.1524532457023859,0.11064078749790787,0.5839060228105634
1772555788651148500,8.0411484375,-0.07829962973296642,0.07772489858493209,0.3707399497311562
