time,seconds_elapsed,z,y,x
1772555413445429500,0.068429443359375,-0.06713124364614487,0.22244098782539368,-0.5323818922042847
1772555413455361500,0.078361572265625,-0.07300005853176117,0.24537721276283264,-0.3540310263633728
1772555413465293600,0.08829345703125,-0.06888094544410706,0.26040083169937134,-0.1634589433670044
1772555413475225600,0.0982255859375,-0.05696968734264374,0.24466769397258759,-0.0025582071393728256
1772555413485157400,0.108157470703125,-0.04878891631960869,0.21618036925792694,0.0945819839835167
1772555413495089400,0.11808935546875,-0.04813644289970398,0.18410925567150116,0.1289074718952179
1772555413505021700,0.128021728515625,-0.05311161279678345,0.13339567184448242,0.11843261122703552
1772555413514952700,0.13795263671875,-0.05602005124092102,0.054576240479946136,0.08882412314414978
1772555413524884700,0.147884765625,-0.050147466361522675,-0.04214435815811157,0.06148933619260788
1772555413534816500,0.15781640625,-0.051167190074920654,-0.1265479177236557,0.03632592782378197
1772555413544748500,0.16774853515625,-0.04914706200361252,-0.18456193804740906,0.029664171859622
1772555413554680600,0.1776806640625,-0.04845624044537544,-0.24143055081367493,0.030215179547667503
1772555413564612600,0.187612548828125,-0.04001113772392273,-0.30260905623435974,0.042923346161842346
1772555413574544600,0.197544677734375,-0.03392714634537697,-0.3399643898010254,0.05419331043958664
1772555413584476700,0.2074765625,-0.03182664141058922,-0.342002272605896,0.07579761743545532
1772555413594408400,0.217408447265625,-0.02207946963608265,-0.3342849612236023,0.1162497028708458
1772555413604340500,0.227340576171875,-0.008967445231974125,-0.32847800850868225,0.16068275272846222
1772555413614272500,0.2372724609375,0.010082145221531391,-0.3114619851112366,0.18843048810958862
1772555413624204500,0.24720458984375,0.024155693128705025,-0.2852436900138855,0.19900406897068024
1772555413634136600,0.257136474609375,0.03380272909998894,-0.2340254932641983,0.20482468605041504
1772555413644068400,0.267068359375,0.042928971350193024,-0.16709387302398682,0.214498370885849
1772555413654000600,0.277000732421875,0.046540483832359314,-0.10011563450098038,0.22015757858753204
1772555413663932700,0.2869326171875,0.05395440757274628,-0.03413186967372894,0.2135159969329834
1772555413673864700,0.29686474609375,0.05920350179076195,0.02077399007976055,0.18541938066482544
1772555413683796700,0.306796630859375,0.05979283154010773,0.053603895008563995,0.14299029111862183
1772555413693728800,0.316728759765625,0.05946499854326248,0.07180633395910263,0.0781034454703331
1772555413703659500,0.326659423828125,0.058876365423202515,0.07202929258346558,0.012561894953250885
1772555413713591600,0.336591552734375,0.053037919104099274,0.06013002619147301,-0.04458048567175865
1772555413723523600,0.346523681640625,0.05146096274256706,0.027238205075263977,-0.07370888441801071
1772555413733455600,0.35645556640625,0.05209612846374512,-0.017552435398101807,-0.07865091413259506
1772555413743387600,0.3663876953125,0.056462403386831284,-0.055578723549842834,-0.07143240422010422
1772555413753319400,0.3763193359375,0.053046632558107376,-0.06239508092403412,-0.06979615986347198
1772555413763251500,0.38625146484375,0.041309427469968796,-0.05228472128510475,-0.07599131017923355
1772555413773183500,0.39618359375,0.038714177906513214,-0.052360355854034424,-0.0721004381775856
1772555413783115500,0.406115478515625,0.03603712096810341,-0.07692992687225342,-0.06312205642461777
1772555413793047600,0.416047607421875,0.034393418580293655,-0.12228835374116898,-0.05027496814727783
1772555413802979600,0.4259794921875,0.02574511617422104,-0.16693748533725739,-0.039457034319639206
1772555413812911600,0.43591162109375,0.02009735256433487,-0.20480896532535553,-0.031101632863283157
1772555413822843600,0.44584375,0.016569580882787704,-0.22987699508666992,-0.02650981768965721
1772555413832775700,0.455775634765625,0.011174284853041172,-0.21869145333766937,-0.011739925481379032
1772555413842707700,0.465707763671875,0.006341349333524704,-0.19477161765098572,0.004647469148039818
1772555413852639700,0.4756396484375,0.005100050009787083,-0.15524710714817047,0.017626650631427765
1772555413862571800,0.48557177734375,-0.00044150417670607567,-0.11660151928663254,0.032838042825460434
1772555413872503600,0.495503662109375,-0.000596766360104084,-0.09515534341335297,0.048782654106616974
1772555413882435600,0.505435546875,0.005483350716531277,-0.08871183544397354,0.05867179110646248
1772555413892367600,0.51536767578125,0.009025887586176395,-0.0926988497376442,0.07691337913274765
1772555413902299600,0.525299560546875,0.013404004275798798,-0.09177128970623016,0.07698141783475876
1772555413912230400,0.53523046875,0.016625365242362022,-0.0899779200553894,0.07652708142995834
1772555413922162400,0.545162353515625,0.024224355816841125,-0.09530556201934814,0.056279003620147705
1772555413932094500,0.555094482421875,0.028670500963926315,-0.0784408301115036,0.025759976357221603
1772555413942026500,0.565026611328125,0.025853049010038376,-0.0536825954914093,-0.017528356984257698
1772555413951958800,0.574958740234375,0.025533735752105713,-0.03284629434347153,-0.0545329786837101
1772555413961890800,0.584890869140625,0.02076645940542221,-0.023880157619714737,-0.08162020891904831
1772555413971822600,0.594822509765625,0.019963782280683517,-0.015039528720080853,-0.09941917657852173
1772555413981754600,0.604754638671875,0.015048118308186531,0.005176236853003502,-0.10378075391054153
1772555413991686700,0.614686767578125,0.00957159511744976,0.016089072450995445,-0.1014275848865509
1772555414001618700,0.62461865234375,0.006698260549455881,0.018747592344880104,-0.09825418889522552
1772555414011550700,0.63455078125,0.002936278935521841,0.02204085700213909,-0.09766163676977158
1772555414021482800,0.644482666015625,-0.005904228426516056,0.032006509602069855,-0.09665301442146301
1772555414031414500,0.65441455078125,-0.009131712839007378,0.04891545698046684,-0.08888110518455505
1772555414041346600,0.6643466796875,-0.015980660915374756,0.06799282878637314,-0.07811161875724792
1772555414051278600,0.674278564453125,-0.01835939660668373,0.08303195983171463,-0.06534815579652786
1772555414061210600,0.684210693359375,-0.018518315628170967,0.08351504802703857,-0.06100713834166527
1772555414071142700,0.694142578125,-0.025124019011855125,0.06892971694469452,-0.06394167244434357
1772555414081074700,0.70407470703125,-0.018133293837308884,0.023003265261650085,-0.05180267244577408
1772555414091006500,0.71400634765625,-0.010792557150125504,-0.012275627814233303,-0.03290008381009102
1772555414100938500,0.7239384765625,-0.00018470222130417824,-0.028066929429769516,-0.019946103915572166
1772555414110870500,0.73387060546875,0.0005255625583231449,-0.03026590123772621,-0.012696713209152222
1772555414120801800,0.7438017578125,0.007050403393805027,-0.021352410316467285,-0.009210947901010513
1772555414130733600,0.753733642578125,0.006420565769076347,-0.0018735174089670181,-0.008419988676905632
1772555414140665600,0.76366552734375,0.0035603800788521767,0.017974581569433212,-0.014920329675078392
1772555414150597600,0.77359765625,-0.000870055053383112,0.03371279686689377,-0.01828603260219097
1772555414160529700,0.78352978515625,0.0022560120560228825,0.04802815616130829,-0.0228586308658123
1772555414170461700,0.793461669921875,0.0006871437653899193,0.06044834107160568,-0.03547375649213791
1772555414180393700,0.803393798828125,0.00568570289760828,0.056001633405685425,-0.03663042560219765
1772555414190325500,0.813325439453125,0.00965141598135233,0.03960241377353668,-0.03742138296365738
1772555414200257500,0.823257568359375,0.014881938695907593,0.0365554615855217,-0.04080178961157799
1772555414210189600,0.833189453125,0.01998109184205532,0.03429790586233139,-0.03149164468050003
1772555414220121600,0.84312158203125,0.025740832090377808,0.03384893015027046,-0.01537979207932949
1772555414230053600,0.8530537109375,0.02809666469693184,0.023140359669923782,0.0056210970506072044
1772555414239985700,0.862985595703125,0.03387194499373436,0.014946278184652328,0.02751995250582695
1772555414249917400,0.87291748046875,0.0357460118830204,0.011366989463567734,0.037187494337558746
1772555414259849500,0.882849365234375,0.037767134606838226,0.026806998997926712,0.027659287676215172
1772555414269781500,0.892781494140625,0.037027839571237564,0.04435589909553528,0.010987899266183376
1772555414279713500,0.902713623046875,0.03572577238082886,0.05875126272439957,-0.007090873084962368
1772555414289645600,0.9126455078125,0.03493934124708176,0.07223963737487793,-0.025315947830677032
1772555414299577600,0.92257763671875,0.0368640311062336,0.07741250842809677,-0.03574715554714203
1772555414309509600,0.932509521484375,0.03562726080417633,0.07503829896450043,-0.0374598354101181
1772555414319441700,0.942441650390625,0.03632466867566109,0.06500458717346191,-0.025089247152209282
1772555414329372700,0.95237255859375,0.0365891233086586,0.05228425934910774,-0.016274183988571167
1772555414339304700,0.9623046875,0.03646424412727356,0.03699999302625656,-0.003753291442990303
1772555414349236500,0.972236572265625,0.03245379030704498,0.018404467031359673,0.00010855775326490402
1772555414359168500,0.98216845703125,0.02725130319595337,0.008248817175626755,0.001374863088130951
1772555414369100500,0.9921005859375,0.020666105672717094,0.006365163251757622,-0.002207621932029724
1772555414379032600,1.002032470703125,0.012014366686344147,-0.004782350733876228,0.00010675564408302307
1772555414388964000,1.011964111328125,0.011604772880673409,-0.02663305401802063,0.0021659117192029953
1772555414398896000,1.021896240234375,0.012120772153139114,-0.042402733117341995,0.0037246649153530598
1772555414408828200,1.031828125,0.010099966078996658,-0.049082204699516296,0.007698900066316128
1772555414418760000,1.041760009765625,0.010001596994698048,-0.043238572776317596,0.014235260896384716
1772555414428692200,1.051692138671875,0.007533379830420017,-0.022162048146128654,0.016345283016562462
1772555414438624300,1.061624267578125,0.0041671437211334705,-0.012034623883664608,0.018912866711616516
1772555414448556300,1.071556396484375,-0.001540010329335928,-0.012306532822549343,0.019075319170951843
1772555414458488300,1.08148828125,-0.0013706563040614128,-0.015160766430199146,0.015744315460324287
1772555414468420000,1.091420166015625,-0.0013709226623177528,-0.01731020398437977,0.01576189324259758
1772555414478352100,1.10135205078125,-0.0033967893105000257,-0.01452080812305212,0.013516048900783062
1772555414488284200,1.1112841796875,0.0025356686674058437,-0.0013813041150569916,0.017047401517629623
1772555414498216200,1.12121630859375,0.004723841790109873,0.02411237545311451,0.01659758761525154
1772555414508148200,1.131148193359375,-0.00199504685588181,0.039785876870155334,0.014812735840678215
1772555414518080300,1.141080322265625,0.0030363420955836773,0.051088832318782806,0.01637228950858116
1772555414528012000,1.151011962890625,0.0003979490138590336,0.0549490824341774,0.015681996941566467
1772555414537944000,1.160944091796875,-0.0046511380933225155,0.04429803043603897,0.021147336810827255
1772555414547875000,1.170875,-0.003746462520211935,0.02871002070605755,0.024870701134204865
1772555414557807000,1.18080712890625,-0.0027981107123196125,0.03304457664489746,0.028047852218151093
1772555414567739100,1.1907392578125,-0.003561638994142413,0.04550044983625412,0.031202901154756546
1772555414577671200,1.200671142578125,-0.004126568324863911,0.05711079761385918,0.02872595191001892
1772555414587603200,1.210603271484375,0.002400306984782219,0.07011128962039948,0.017240537330508232
1772555414597535200,1.22053515625,0.008924495428800583,0.08018982410430908,0.005497316364198923
1772555414607467300,1.23046728515625,0.010693632066249847,0.07565579563379288,-0.0006378078833222389
1772555414617399300,1.2403994140625,0.019117984920740128,0.054364144802093506,-0.006002606824040413
1772555414627331300,1.250331298828125,0.023497553542256355,0.022924993187189102,-0.0035165464505553246
1772555414637263000,1.26026318359375,0.026010878384113312,-0.0013907933607697487,-0.007781941443681717
1772555414647195100,1.270195068359375,0.027936343103647232,-0.011933715082705021,-0.009587831795215607
1772555414657127200,1.280127197265625,0.031922053545713425,-0.019682835787534714,-0.009759831242263317
1772555414667059200,1.29005908203125,0.03406483307480812,-0.015275570563971996,-0.016280580312013626
1772555414676991200,1.2999912109375,0.034262124449014664,-0.00942252017557621,-0.02414482645690441
1772555414686923000,1.309923095703125,0.0347026102244854,-0.007292257621884346,-0.03780258446931839
1772555414696855000,1.31985498046875,0.03260723501443863,-0.0042604925110936165,-0.05511007830500603
1772555414706787000,1.329787109375,0.02496795728802681,-0.002629040740430355,-0.06430703401565552
1772555414716719000,1.339718994140625,0.01576489768922329,-0.004230787977576256,-0.0676167830824852
1772555414726651100,1.349651123046875,0.010616473853588104,0.008953724056482315,-0.06221456080675125
1772555414736583200,1.359583251953125,0.008510857820510864,0.025757411494851112,-0.0464884378015995
1772555414746515000,1.369514892578125,0.0069662234745919704,0.03278815746307373,-0.030182700604200363
1772555414756446200,1.3794462890625,0.003627127967774868,0.03532866761088371,-0.024951228871941566
1772555414766378200,1.389378173828125,0.0013690339401364326,0.03922513872385025,-0.03074413351714611
1772555414776310300,1.399310302734375,0.0005526780150830746,0.04648260027170181,-0.039613064378499985
1772555414786242300,1.4092421875,0.004942366387695074,0.041322994977235794,-0.0472203865647316
1772555414796174000,1.419174072265625,0.009039930999279022,0.03110758773982525,-0.04978647828102112
1772555414806106000,1.429106201171875,0.010718788020312786,0.023439282551407814,-0.050195008516311646
1772555414816038100,1.4390380859375,0.014124074950814247,0.023098479956388474,-0.04726187512278557
1772555414825970200,1.44897021484375,0.012460663914680481,0.03479987755417824,-0.04792393743991852
1772555414835902200,1.458902099609375,0.009605247527360916,0.04647645354270935,-0.052209097892045975
1772555414845834200,1.468834228515625,0.008165275678038597,0.043786659836769104,-0.04803619161248207
1772555414855766000,1.47876611328125,0.004450384061783552,0.03240794688463211,-0.045475199818611145
1772555414865698000,1.488697998046875,0.006500219460576773,0.01772034913301468,-0.033381782472133636
1772555414875630000,1.498630126953125,0.003695692401379347,0.006905321031808853,-0.017450973391532898
1772555414885562000,1.50856201171875,0.003741499502211809,-0.003922027535736561,0.0026031630113720894
1772555414895494100,1.518494140625,-0.00007556099444627762,-0.024159055203199387,0.020480215549468994
1772555414905426000,1.528426025390625,0.0014648111537098885,-0.03444391489028931,0.026848364621400833
1772555414915358000,1.53835791015625,0.001266744453459978,-0.026705332100391388,0.023359835147857666
1772555414925290000,1.5482900390625,-0.006068666465580463,-0.012263010255992413,0.01802285946905613
1772555414935222300,1.55822216796875,-0.008116467855870724,0.003273976966738701,0.013242797926068306
1772555414945154300,1.568154296875,-0.010667510330677032,0.022752869874238968,0.0111865708604455
1772555414955086300,1.57808642578125,-0.009271431714296341,0.03788908198475838,0.013210983946919441
1772555414965017000,1.58801708984375,-0.01269945316016674,0.04188169538974762,0.015752438455820084
1772555414974949000,1.59794921875,-0.009825998917222023,0.0429755374789238,0.024539463222026825
1772555414984881200,1.607881103515625,-0.010665427893400192,0.03926841914653778,0.03375879302620888
1772555414994813200,1.617813232421875,-0.005646991077810526,0.029469171538949013,0.042301908135414124
1772555415004745200,1.6277451171875,-0.007876855321228504,0.019490839913487434,0.04470248147845268
1772555415014677000,1.637677001953125,-0.009665628895163536,0.012927670031785965,0.03986082598567009
1772555415024609000,1.647609130859375,-0.0092941178008914,0.0028851572424173355,0.029738150537014008
1772555415034541000,1.657541015625,-0.0075798649340868,0.0048669129610061646,0.01428872812539339
1772555415044473000,1.66747314453125,-0.010547958314418793,0.0180189348757267,0.0028917305171489716
1772555415054405000,1.677405029296875,-0.011625254526734352,0.030147479847073555,-0.007146334275603294
1772555415064337200,1.687337158203125,-0.009957583621144295,0.024024872109293938,-0.002046912908554077
1772555415074269200,1.697269287109375,-0.009038841351866722,0.0149143747985363,0.0035346350632607937
1772555415084201200,1.707201171875,-0.010045249946415424,-0.0016691284254193306,0.006669175811111927
1772555415094133200,1.71713330078125,-0.012429941445589066,-0.01751028187572956,0.0007669767364859581
1772555415104065300,1.727065185546875,-0.009446402080357075,-0.02970702573657036,-0.005799844861030579
1772555415113997300,1.736997314453125,-0.014760958030819893,-0.034644436091184616,-0.01686750538647175
1772555415123929000,1.74692919921875,-0.011816300451755524,-0.03732383996248245,-0.027265019714832306
1772555415133861000,1.756861083984375,-0.009693301282823086,-0.036602407693862915,-0.03525787964463234
1772555415143793200,1.766793212890625,-0.006164879072457552,-0.03044677898287773,-0.049069300293922424
1772555415153725200,1.77672509765625,-0.010550912469625473,-0.04047434777021408,-0.053038422018289566
1772555415163656200,1.78665625,-0.00313773681409657,-0.04574607312679291,-0.05047672614455223
1772555415173588000,1.796587890625,-0.0009646937251091003,-0.05038759484887123,-0.04537513107061386
1772555415183520000,1.80652001953125,0.0025354987010359764,-0.0539248026907444,-0.03762213513255119
1772555415193452000,1.8164521484375,0.006440345663577318,-0.0513383224606514,-0.02587851881980896
1772555415203384000,1.826384033203125,0.006691747810691595,-0.05658688396215439,-0.01630312204360962
1772555415213316000,1.836316162109375,0.003198916558176279,-0.0604214146733284,-0.007848368026316166
1772555415223248100,1.846248046875,0.001047082245349884,-0.05856146663427353,-0.003906888887286186
1772555415233180200,1.85618017578125,-0.006723247934132814,-0.055391158908605576,-0.001619512215256691
1772555415243112200,1.8661123046875,-0.007082242053002119,-0.053889136761426926,0.006078887730836868
1772555415253044200,1.876044189453125,-0.010114516131579876,-0.050472814589738846,0.019794819876551628
1772555415262976300,1.885976318359375,-0.0077637434005737305,-0.04099728912115097,0.031686101108789444
1772555415272908300,1.895908203125,-0.011953647248446941,-0.017370162531733513,0.03690020740032196
1772555415282840300,1.90584033203125,-0.017254669219255447,-0.006520177237689495,0.042761825025081635
1772555415292772000,1.915772216796875,-0.018666410818696022,-0.00998122151941061,0.04879601672291756
1772555415302704000,1.9257041015625,-0.021411597728729248,-0.0032897628843784332,0.052034154534339905
1772555415312636200,1.93563623046875,-0.022815711796283722,0.013711962848901749,0.04939953237771988
1772555415322568200,1.945568115234375,-0.02347218245267868,0.0312853679060936,0.04116397351026535
1772555415332500200,1.955500244140625,-0.02449009008705616,0.03746407479047775,0.03609820455312729
1772555415342432000,1.965431884765625,-0.016220975667238235,0.04171953722834587,0.027648527175188065
1772555415352364000,1.975364013671875,-0.016394952312111855,0.03795862942934036,0.017681319266557693
1772555415362295000,1.985294921875,-0.016280170530080795,0.02427797205746174,0.01464771293103695
1772555415372227000,1.99522705078125,-0.015924008563160896,-0.002598155289888382,0.016313567757606506
1772555415382159400,2.005159423828125,-0.012940735556185246,-0.02166772074997425,0.020440135151147842
1772555415392091600,2.015091552734375,-0.011959627270698547,-0.03331563621759415,0.02746371552348137
1772555415402023700,2.025023681640625,-0.006149142514914274,-0.049663178622722626,0.03379697725176811
1772555415411955700,2.034955810546875,-0.0028127580881118774,-0.0602845698595047,0.037162523716688156
1772555415421888000,2.044887939453125,-0.0014204573817551136,-0.060922928154468536,0.03617342561483383
1772555415431820000,2.054820068359375,-0.0023982736747711897,-0.05663561075925827,0.04669419676065445
1772555415441752000,2.064751953125,-0.004146905150264502,-0.050877589732408524,0.04511813819408417
1772555415451683800,2.074683837890625,-0.007168333977460861,-0.04504656791687012,0.04180202633142471
1772555415461615900,2.084615966796875,-0.0037951741833239794,-0.038774557411670685,0.03364236652851105
1772555415471548000,2.0945478515625,-0.0010700584389269352,-0.03635736554861069,0.023315738886594772
1772555415481480000,2.10447998046875,-0.0034389402717351913,-0.03521300479769707,0.012713695876300335
1772555415491412000,2.114411865234375,0.0011632684618234634,-0.028282396495342255,0.010041746310889721
1772555415501344000,2.124343994140625,0.0012210588902235031,-0.013833414763212204,0.005731952376663685
1772555415511275800,2.13427587890625,-0.0018277277704328299,-0.0011807363480329514,0.006299205590039492
1772555415521207800,2.144207763671875,0.002718821167945862,0.0023647304624319077,0.006411857437342405
1772555415531139800,2.154139892578125,0.004364193882793188,-0.013245442882180214,0.01282057911157608
1772555415541072000,2.16407177734375,0.005888320971280336,-0.03176639601588249,0.014367343857884407
1772555415551004000,2.17400390625,0.006833695340901613,-0.03755961358547211,0.010413681156933308
1772555415560935700,2.183935791015625,0.0035841059871017933,-0.0284942165017128,0.0011338964104652405
1772555415570867000,2.193866943359375,0.008113174699246883,-0.007932567037642002,-0.00799853727221489
1772555415580799000,2.203799072265625,0.010961690917611122,0.007179806008934975,-0.015551794320344925
1772555415590731000,2.21373095703125,0.011499407701194286,0.013506826013326645,-0.014247609302401543
1772555415600663000,2.2236630859375,0.012082907371222973,0.01870771311223507,-0.007711678743362427
1772555415610594800,2.2335947265625,0.020316869020462036,0.01618836261332035,0.004551379010081291
1772555415620526800,2.24352685546875,0.019468650221824646,0.004251541569828987,0.01988346315920353
1772555415630459000,2.253458984375,0.025665437802672386,-0.003185885027050972,0.03361218795180321
1772555415640391000,2.263390869140625,0.02377353049814701,-0.005647711455821991,0.03204385191202164
1772555415650323000,2.273322998046875,0.022053636610507965,-0.00911693461239338,0.022570975124835968
1772555415660255000,2.2832548828125,0.0198003351688385,-0.012607806362211704,0.015504542738199234
1772555415670186800,2.293186767578125,0.015239915810525417,-0.006762867793440819,-0.0003305058926343918
1772555415680118800,2.303118896484375,0.009679234586656094,-0.00011881440877914429,-0.013636190444231033
1772555415690050800,2.31305078125,0.009584715589880943,0.004826311022043228,-0.02392222359776497
1772555415699982800,2.32298291015625,0.009767942130565643,0.00550461933016777,-0.02478056028485298
1772555415709915000,2.332914794921875,0.007990402169525623,0.009797915816307068,-0.01431766152381897
1772555415719847000,2.342846923828125,0.006266271695494652,0.00800374336540699,-0.001996014267206192
1772555415729778700,2.35277880859375,0.005154402460902929,-0.0018778927624225616,0.009928408078849316
1772555415739710700,2.362710693359375,0.0026797926984727383,-0.014716725796461105,0.009378732182085514
1772555415749642800,2.372642822265625,-0.0013924706727266312,-0.024528533220291138,0.005234841722995043
1772555415759574800,2.38257470703125,-0.006206134334206581,-0.02136070281267166,-0.00009760633111000061
1772555415769505800,2.392505859375,-0.007366715930402279,-0.008915318176150322,-0.007984397932887077
1772555415779437800,2.402437744140625,-0.006695599295198917,-0.0009801629930734634,-0.015302764251828194
1772555415789369900,2.412369873046875,-0.007730066776275635,0.006956186145544052,-0.021165283396840096
1772555415799302000,2.422302001953125,-0.009074430912733078,0.009903507307171822,-0.025493452325463295
1772555415809234000,2.43223388671875,-0.008044538088142872,0.008487837389111519,-0.026144277304410934
1772555415819166000,2.442166015625,-0.008475171402096748,0.014165164902806282,-0.02437806874513626
1772555415829097700,2.45209765625,-0.009257850237190723,0.02761722542345524,-0.02048809826374054
1772555415839029800,2.46202978515625,-0.010899955406785011,0.036276496946811676,-0.017195366322994232
1772555415848961800,2.4719619140625,-0.00764121487736702,0.0356079563498497,-0.022319477051496506
1772555415858893800,2.481893798828125,-0.006357837468385696,0.03426305949687958,-0.02908976748585701
1772555415868825900,2.491825927734375,-0.005873239133507013,0.04303133487701416,-0.039547812193632126
1772555415878758000,2.5017578125,-0.002213523257523775,0.033086828887462616,-0.04102373495697975
1772555415888689700,2.511689697265625,0.0011502187699079514,0.009190654382109642,-0.034241948276758194
1772555415898621700,2.52162158203125,0.008200138807296753,-0.01578473672270775,-0.016851238906383514
1772555415908553700,2.5315537109375,0.009258212521672249,-0.029705587774515152,-0.010313060134649277
1772555415918485800,2.54148583984375,0.005981991998851299,-0.035388506948947906,-0.006154002621769905
1772555415928418000,2.55141796875,0.002068888396024704,-0.023392070084810257,-0.007987050339579582
1772555415938350000,2.56135009765625,0.0017381240613758564,-0.004731566645205021,-0.009047254920005798
1772555415948281900,2.57128173828125,-0.0029175172094255686,0.010064315050840378,-0.015758464112877846
1772555415958214000,2.5812138671875,-0.004926339723169804,0.034666866064071655,-0.01831536553800106
1772555415968145000,2.591144775390625,-0.002418054034933448,0.046911291778087616,-0.024194687604904175
1772555415978077000,2.601076904296875,-0.0030928989872336388,0.05502115190029144,-0.024723589420318604
1772555415988008700,2.6110087890625,-0.00264769047498703,0.052705563604831696,-0.022368231788277626
1772555415997940700,2.620940673828125,0.002151592168956995,0.048314549028873444,-0.01861157827079296
1772555416007872800,2.630872802734375,0.006873764097690582,0.047381699085235596,-0.009199853986501694
1772555416017804800,2.6408046875,0.007978709414601326,0.05140946805477142,-0.0009099654853343964
1772555416027736800,2.65073681640625,0.013476538471877575,0.05001343786716461,0.011989321559667587
1772555416037668900,2.6606689453125,0.01489174272865057,0.03828221559524536,0.02824605628848076
1772555416047600600,2.6706005859375,0.017822913825511932,0.029081149026751518,0.03788585588335991
1772555416057532700,2.68053271484375,0.021042410284280777,0.03202660381793976,0.03998575732111931
1772555416067464700,2.690464599609375,0.024623829871416092,0.051585614681243896,0.04252324625849724
1772555416077397000,2.70039697265625,0.02340862900018692,0.0723838359117508,0.037755921483039856
1772555416087329000,2.7103291015625,0.026693977415561676,0.08244258910417557,0.028615746647119522
1772555416097261000,2.720260986328125,0.028788022696971893,0.08295178413391113,0.022904597222805023
1772555416107192800,2.73019287109375,0.030581030994653702,0.09435370564460754,0.01426786556839943
1772555416117124900,2.740124755859375,0.03293899446725845,0.10364280641078949,0.014864146709442139
1772555416127057000,2.750056884765625,0.03203126788139343,0.10567023605108261,0.014468408189713955
1772555416136989000,2.759989013671875,0.030947092920541763,0.11318887770175934,0.012731228023767471
1772555416146921000,2.7699208984375,0.032176192849874496,0.11748488992452621,0.01585596427321434
1772555416156853000,2.77985302734375,0.03008374571800232,0.14072710275650024,0.03885369002819061
1772555416166784800,2.78978466796875,0.04011468589305878,0.14471030235290527,0.06732318550348282
1772555416176715800,2.7997158203125,0.04742559790611267,0.15638744831085205,0.08518154174089432
1772555416186647800,2.809647705078125,0.057364802807569504,0.15545476973056793,0.09754486382007599
1772555416196579800,2.819579833984375,0.05812274292111397,0.15851154923439026,0.09581141173839569
1772555416206511600,2.82951171875,0.059185970574617386,0.15621498227119446,0.0977894514799118
1772555416216444000,2.83944384765625,0.05858356133103371,0.15931063890457153,0.09213022887706757
1772555416226376000,2.8493759765625,0.04168706759810448,0.15872663259506226,0.09472314268350601
1772555416236308000,2.859307861328125,0.03062509372830391,0.15241068601608276,0.09786087274551392
1772555416246240000,2.869239990234375,0.033489443361759186,0.15015526115894318,0.10604091733694077
1772555416256172000,2.879172119140625,0.03622797131538391,0.11959389597177505,0.10949557274580002
1772555416266103800,2.889103759765625,0.04048866778612137,0.06267749518156052,0.09892497211694717
1772555416276035800,2.899035888671875,0.05020254850387573,-0.01241751853376627,0.06727995723485947
1772555416285968000,2.9089677734375,0.06294307857751846,-0.07737061381340027,0.015196504071354866
1772555416295900000,2.91889990234375,0.05928363278508186,-0.12489552050828934,-0.05216202884912491
1772555416305832000,2.92883203125,0.01756976917386055,-0.17327749729156494,-0.1277083158493042
1772555416315764000,2.938763916015625,-0.02816549502313137,-0.20679602026939392,-0.18169938027858734
1772555416325695700,2.94869580078125,-0.03628716617822647,0.033446747809648514,-0.11169055104255676
1772555416335627800,2.958627685546875,-0.07496824860572815,0.21844510734081268,0.044449787586927414
1772555416345559800,2.968559814453125,-0.1017172634601593,0.18383949995040894,0.2213403284549713
1772555416355491800,2.978491943359375,-0.16022370755672455,0.15429066121578217,0.3490825891494751
1772555416365423900,2.988423828125,-0.2180110663175583,0.20716996490955353,0.40020811557769775
1772555416375356000,2.99835595703125,-0.24417582154273987,0.24879169464111328,0.4144434928894043
1772555416385287700,3.00828759765625,-0.2168019562959671,0.2382124960422516,0.39877402782440186
1772555416395218400,3.018218505859375,-0.15841640532016754,0.20503456890583038,0.3642413318157196
1772555416405150500,3.028150390625,-0.0885525494813919,0.16576902568340302,0.2982385754585266
1772555416415082500,3.03808251953125,-0.022946644574403763,0.1265566498041153,0.20883893966674805
1772555416425014300,3.04801416015625,0.02383376657962799,0.07508870214223862,0.10555702447891235
1772555416434946300,3.0579462890625,0.05240762233734131,0.019343147054314613,0.001602664589881897
1772555416444878300,3.06787841796875,0.06807204335927963,-0.03758126497268677,-0.08204566687345505
1772555416454810400,3.077810302734375,0.07172642648220062,-0.0930546447634697,-0.13880480825901031
1772555416464742400,3.087742431640625,0.06654041260480881,-0.13801869750022888,-0.16533143818378448
1772555416474674400,3.09767431640625,0.05085651949048042,-0.14978080987930298,-0.17769622802734375
1772555416484606200,3.107606201171875,0.03502102941274643,-0.12042350322008133,-0.16902340948581696
1772555416494538200,3.117538330078125,0.01884365640580654,-0.06827081739902496,-0.14879962801933289
1772555416504470300,3.12747021484375,0.010901333764195442,-0.004587763920426369,-0.1117570623755455
1772555416514402300,3.13740234375,0.006326023954898119,0.058873500674963,-0.0713137611746788
1772555416524334300,3.147334228515625,0.0008875830098986626,0.1234586238861084,-0.025650400668382645
1772555416534266000,3.15726611328125,0.0002446956932544708,0.17963933944702148,0.022606078535318375
1772555416544198400,3.167198486328125,0.0022100359201431274,0.21510466933250427,0.0557626336812973
1772555416554130400,3.17713037109375,0.012956689111888409,0.2148631066083908,0.08136147260665894
1772555416564062500,3.1870625,0.027364172041416168,0.1744060069322586,0.08961773663759232
1772555416573994500,3.196994384765625,0.0352465994656086,0.10576196759939194,0.07717278599739075
1772555416583926500,3.206926513671875,0.036073923110961914,0.024236729368567467,0.04823553189635277
1772555416593857300,3.216857177734375,0.031859736889600754,-0.042558543384075165,0.007822063751518726
1772555416603789300,3.226789306640625,0.019399458542466164,-0.09960905462503433,-0.0325932502746582
1772555416613721300,3.236721435546875,0.012424638494849205,-0.13230042159557343,-0.06351707130670547
1772555416623653400,3.2466533203125,0.0077067031525075436,-0.15031473338603973,-0.07229316979646683
1772555416633585400,3.25658544921875,0.004088266286998987,-0.1410842090845108,-0.07035492360591888
1772555416643517200,3.26651708984375,0.006492640823125839,-0.11788201332092285,-0.05765661224722862
1772555416653449200,3.27644921875,0.010876203887164593,-0.08108565211296082,-0.04553204029798508
1772555416663381200,3.28638134765625,0.013830957934260368,-0.05480097234249115,-0.032605867832899094
1772555416673313300,3.296313232421875,0.009303582832217216,-0.023738661780953407,-0.020585689693689346
1772555416683245300,3.306245361328125,0.0017098463140428066,0.012918464839458466,-0.005396910011768341
1772555416693177300,3.31617724609375,-0.01727529615163803,0.0578361377120018,0.004559318535029888
1772555416703109400,3.326109375,-0.043773483484983444,0.0992589220404625,0.024901486933231354
1772555416713041400,3.33604150390625,-0.07365841418504715,0.13898369669914246,0.04613327234983444
1772555416722973400,3.345973388671875,-0.10165847092866898,0.18643029034137726,0.06442372500896454
1772555416732905500,3.355905517578125,-0.13052022457122803,0.2352636158466339,0.08152174949645996
1772555416742837500,3.36583740234375,-0.15258482098579407,0.27723464369773865,0.10045573860406876
1772555416752769300,3.375769287109375,-0.16255144774913788,0.2973809242248535,0.12151388078927994
1772555416762701300,3.385701416015625,-0.15703393518924713,0.2911299169063568,0.14252549409866333
1772555416772633300,3.39563330078125,-0.1478297859430313,0.2485358566045761,0.160186767578125
1772555416782565400,3.4055654296875,-0.13283997774124146,0.1723986715078354,0.16640707850456238
1772555416792497400,3.415497314453125,-0.11852708458900452,0.07177858054637909,0.15395092964172363
1772555416802428200,3.42542822265625,-0.10866888612508774,-0.022989682853221893,0.1224951446056366
1772555416812360200,3.435360107421875,-0.10979913175106049,-0.10664889216423035,0.08660931885242462
1772555416822292200,3.445292236328125,-0.11544619500637054,-0.16182436048984528,0.04594191908836365
1772555416832224300,3.455224365234375,-0.12423276156187057,-0.18339861929416656,0.01496748998761177
1772555416842156300,3.46515625,-0.1345958113670349,-0.18815945088863373,-0.0045154159888625145
1772555416852088600,3.475088623046875,-0.14206145703792572,-0.18048182129859924,-0.014299868606030941
1772555416862020400,3.485020263671875,-0.137746661901474,-0.15928924083709717,-0.00488431379199028
1772555416871952400,3.494952392578125,-0.13287706673145294,-0.12665167450904846,0.0017365701496601105
1772555416881884400,3.504884521484375,-0.12520559132099152,-0.08695687353610992,0.008631989359855652
1772555416891816400,3.51481640625,-0.11489249765872955,-0.044836316257715225,0.017569825053215027
1772555416901748500,3.52474853515625,-0.10304825752973557,-0.014075360260903835,0.020265456289052963
1772555416911680500,3.534680419921875,-0.08718620240688324,0.00818999856710434,0.015654193237423897
1772555416921612300,3.5446123046875,-0.06938718259334564,0.027771225199103355,0.004154980648308992
1772555416931544300,3.55454443359375,-0.05997663736343384,0.04007689654827118,-0.01723632775247097
1772555416941476400,3.564476318359375,-0.05384640395641327,0.045421212911605835,-0.04143192619085312
1772555416951408400,3.574408447265625,-0.05028176307678223,0.043125033378601074,-0.060311075299978256
1772555416961340400,3.58434033203125,-0.05060575157403946,0.024413924664258957,-0.06984277069568634
1772555416971272200,3.594272216796875,-0.05626976117491722,0.00046065449714660645,-0.06788615137338638
1772555416981204200,3.604204345703125,-0.060917314141988754,-0.024823855608701706,-0.05909981578588486
1772555416991136300,3.61413623046875,-0.0638800859451294,-0.03132622689008713,-0.04187316074967384
1772555417001068300,3.624068359375,-0.058404915034770966,-0.030949538573622704,-0.011838067322969437
1772555417011000300,3.634000244140625,-0.0529630146920681,-0.021800249814987183,0.01799626089632511
1772555417020932400,3.643932373046875,-0.05024217814207077,-0.01488674059510231,0.04921931400895119
1772555417030863400,3.65386328125,-0.05246831476688385,-0.020831715315580368,0.0760463997721672
1772555417040795400,3.66379541015625,-0.062072157859802246,-0.029485611245036125,0.09358431398868561
1772555417050727400,3.6737275390625,-0.07207685708999634,-0.04174280911684036,0.09290947020053864
1772555417060659500,3.683659423828125,-0.08261913061141968,-0.05125585198402405,0.09126070141792297
1772555417070591500,3.693591552734375,-0.09083178639411926,-0.05825783312320709,0.08717966079711914
1772555417080523300,3.703523193359375,-0.09560053795576096,-0.06936894357204437,0.09066803753376007
1772555417090455300,3.713455322265625,-0.0938364565372467,-0.0805174708366394,0.1055026426911354
1772555417100387300,3.72338720703125,-0.09311016649007797,-0.08595530688762665,0.11804698407649994
1772555417110319400,3.7333193359375,-0.08868478983640671,-0.07233057916164398,0.12822185456752777
1772555417120251400,3.74325146484375,-0.07964781671762466,-0.05097309499979019,0.13354185223579407
1772555417130183400,3.753183349609375,-0.0698321983218193,-0.03748205676674843,0.13204409182071686
1772555417140115200,3.763115234375,-0.0635145753622055,-0.027748767286539078,0.12703728675842285
1772555417150047200,3.773047119140625,-0.055455584079027176,-0.00748157873749733,0.12018204480409622
1772555417159979300,3.782979248046875,-0.043295226991176605,0.007002426311373711,0.10715742409229279
1772555417169911300,3.792911376953125,-0.03789779916405678,0.008149182423949242,0.09193426370620728
1772555417179843300,3.80284326171875,-0.025170553475618362,0.005030112341046333,0.07457616925239563
1772555417189775400,3.812775390625,-0.012076588347554207,0.011699466034770012,0.0611751414835453
1772555417199707400,3.822707275390625,0.002462964039295912,0.02491581253707409,0.04122677072882652
1772555417209639400,3.832639404296875,0.014593662694096565,0.04232409596443176,0.023018473759293556
1772555417219571500,3.842571533203125,0.02225591614842415,0.05546969920396805,0.0042013199999928474
1772555417229503500,3.85250341796875,0.028781194239854813,0.06626295298337936,-0.00784309208393097
1772555417239434200,3.862434326171875,0.03284803405404091,0.07278584688901901,-0.013150566257536411
1772555417249366300,3.8723662109375,0.03705130144953728,0.06947953253984451,-0.010692735202610493
1772555417259298300,3.88229833984375,0.04194618761539459,0.061577729880809784,-0.0025460319593548775
1772555417269230300,3.892230224609375,0.04571828991174698,0.05175066739320755,0.008425924926996231
1772555417279162400,3.902162353515625,0.050161704421043396,0.04619154706597328,0.020169362425804138
1772555417289094400,3.912094482421875,0.05283285304903984,0.038574907928705215,0.028029948472976685
1772555417299026200,3.922026123046875,0.05614294484257698,0.026876866817474365,0.03253735229372978
1772555417308958200,3.931958251953125,0.06468876451253891,0.010455017909407616,0.02775724232196808
1772555417318890200,3.94189013671875,0.06416244804859161,0.00005828589200973511,0.01475017610937357
1772555417328822300,3.951822265625,0.06293393671512604,-0.019378527998924255,0.008039010688662529
1772555417338754300,3.96175439453125,0.05579407140612602,-0.04546422138810158,0.0031155673786997795
1772555417348686300,3.971686279296875,0.05092101916670799,-0.06715833395719528,0.0019483044743537903
1772555417358618400,3.981618408203125,0.04966214299201965,-0.08007413148880005,0.003867644350975752
1772555417368550400,3.99155029296875,0.04872657731175423,-0.07215575128793716,0.0028628334403038025
1772555417378482400,4.001482421875,0.051427360624074936,-0.06542783975601196,0.013667752966284752
1772555417388414500,4.01141455078125,0.053351759910583496,-0.06481344997882843,0.014876294881105423
1772555417398346500,4.021346435546875,0.05507748946547508,-0.058330781757831573,0.018311772495508194
1772555417408278500,4.031278564453125,0.055751800537109375,-0.04469592869281769,0.011612591333687305
1772555417418210600,4.04121044921875,0.05541573464870453,-0.0408531092107296,0.009523646906018257
1772555417428142600,4.051142578125,0.05840832740068436,-0.040292780846357346,0.0030652154237031937
1772555417438074600,4.06107470703125,0.06367398053407669,-0.03595437854528427,-0.011290263384580612
1772555417448006400,4.07100634765625,0.06135249882936478,-0.028829090297222137,-0.03210259974002838
1772555417457938400,4.0809384765625,0.05874672159552574,-0.017584651708602905,-0.04469403252005577
1772555417467869400,4.090869384765625,0.05438312888145447,-0.01623656041920185,-0.05118708312511444
1772555417477801500,4.100801513671875,0.045824553817510605,-0.006505758501589298,-0.052381210029125214
1772555417487733200,4.110733154296875,0.041361093521118164,0.004065392538905144,-0.04917502775788307
1772555417497665300,4.120665283203125,0.03311933949589729,0.011324957013130188,-0.0484137199819088
1772555417507597600,4.13059765625,0.024987639859318733,0.017366336658596992,-0.04866991564631462
1772555417517529600,4.140529541015625,0.011755120940506458,0.022275352850556374,-0.051016759127378464
1772555417527461600,4.150461669921875,-0.0037031983956694603,0.03518209606409073,-0.051980286836624146
1772555417537393700,4.1603935546875,-0.01998111605644226,0.04679669067263603,-0.05401933193206787
1772555417547325400,4.170325439453125,-0.031562939286231995,0.058656539767980576,-0.0466114804148674
1772555417557257500,4.180257568359375,-0.03851369023323059,0.05734937638044357,-0.038620591163635254
1772555417567189500,4.190189453125,-0.05019058659672737,0.040160275995731354,-0.029529094696044922
1772555417577121500,4.20012158203125,-0.061591144651174545,0.012107949703931808,-0.02645108476281166
1772555417587053600,4.210053466796875,-0.06931138783693314,-0.005292345769703388,-0.02880612015724182
1772555417596985600,4.219985595703125,-0.07588888704776764,-0.014624472707509995,-0.037352509796619415
1772555417606917400,4.22991748046875,-0.07302172482013702,-0.025683248415589333,-0.04707890748977661
1772555417616849400,4.239849365234375,-0.06764402985572815,-0.020088914781808853,-0.05915543809533119
1772555417626781400,4.249781494140625,-0.06522347778081894,-0.014695214107632637,-0.07088799774646759
1772555417636713500,4.25971337890625,-0.06445278227329254,-0.02355440892279148,-0.07625533640384674
1772555417646645500,4.2696455078125,-0.06635348498821259,-0.038259584456682205,-0.07373012602329254
1772555417656577500,4.27957763671875,-0.07424423098564148,-0.05012740194797516,-0.0673627182841301
1772555417666509300,4.28950927734375,-0.07568047940731049,-0.048550546169281006,-0.057433120906353
1772555417676441300,4.29944140625,-0.07773399353027344,-0.04622258245944977,-0.04854731634259224
1772555417686372600,4.30937255859375,-0.06844408810138702,-0.031157612800598145,-0.040278464555740356
1772555417696304600,4.3193046875,-0.06419896334409714,-0.008917752653360367,-0.030081704258918762
1772555417706236400,4.329236328125,-0.060387443751096725,0.00911744125187397,-0.01816645637154579
1772555417716168400,4.33916845703125,-0.05807945132255554,0.02232472412288189,-0.012982777319848537
1772555417726100500,4.3491005859375,-0.05753296986222267,0.03874337673187256,-0.014577745459973812
1772555417736032500,4.359032470703125,-0.06178289279341698,0.04351196438074112,-0.013474183157086372
1772555417745964500,4.368964599609375,-0.06844106316566467,0.038388580083847046,-0.0059920307248830795
1772555417755896600,4.378896484375,-0.07061836868524551,0.03604862093925476,-0.0010620318353176117
1772555417765828400,4.388828369140625,-0.06968279927968979,0.028308941051363945,-0.002347273752093315
1772555417775760400,4.398760498046875,-0.07091228663921356,0.016653485596179962,-0.0015386352315545082
1772555417785692400,4.4086923828125,-0.06682193279266357,0.012642499059438705,-0.0028957827016711235
1772555417795624400,4.41862451171875,-0.05153422802686691,0.01594659872353077,-0.01046813651919365
1772555417805556500,4.428556396484375,-0.0395774319767952,0.013429909944534302,-0.0196219552308321
1772555417815488500,4.438488525390625,-0.03218556195497513,-0.0018284488469362259,-0.026617787778377533
1772555417825420300,4.448420166015625,-0.020958738401532173,-0.010666415095329285,-0.02810649573802948
1772555417835352300,4.458352294921875,-0.01906791888177395,-0.020473383367061615,-0.01462907437235117
1772555417845284400,4.468284423828125,-0.016042834147810936,-0.036965541541576385,-0.000689823180437088
1772555417855216400,4.47821630859375,-0.013366551138460636,-0.0455193817615509,0.010160902515053749
1772555417865148700,4.488148681640625,-0.009783800691366196,-0.03846599906682968,0.0035410826094448566
1772555417875080700,4.498080810546875,-0.012184930965304375,-0.02858849987387657,-0.00556974858045578
1772555417885012500,4.508012451171875,-0.013325829058885574,-0.02009434625506401,-0.01838274858891964
1772555417894944500,4.517944580078125,-0.012803945690393448,-0.008493002504110336,-0.027387768030166626
1772555417904876500,4.52787646484375,-0.012775450944900513,-0.004456714726984501,-0.03426884487271309
1772555417914807600,4.5378076171875,-0.009494048543274403,-0.012535597197711468,-0.026625875383615494
1772555417924739300,4.5477392578125,-0.008073252625763416,-0.021277956664562225,-0.01393564511090517
1772555417934671400,4.55767138671875,-0.0015507591888308525,-0.0158009584993124,-0.0008354028686881065
1772555417944603400,4.567603271484375,0.003074885345995426,0.0007617734372615814,0.0063471426256000996
1772555417954535400,4.577535400390625,0.0008999062702059746,0.023573270067572594,0.0018237754702568054
1772555417964467500,4.587467529296875,0.002630694769322872,0.04978995770215988,-0.008403562009334564
1772555417974399500,4.5973994140625,-0.00034441985189914703,0.061518363654613495,-0.019301969558000565
1772555417984331300,4.607331298828125,-0.004291757009923458,0.05546579509973526,-0.025934573262929916
1772555417994263300,4.61726318359375,-0.0021975201088935137,0.04024505987763405,-0.024575773626565933
1772555418004195300,4.6271953125,-0.0010433061979711056,0.0318976491689682,-0.019293926656246185
1772555418014127600,4.637127685546875,-0.0020612869411706924,0.03352555260062218,-0.010824506171047688
1772555418024059600,4.6470595703125,0.005662412848323584,0.04081942141056061,-0.006199127994477749
1772555418033991700,4.65699169921875,0.00749188382178545,0.05068535357713699,-0.0012947926297783852
1772555418043923500,4.66692333984375,0.013561227358877659,0.054419368505477905,0.0016221683472394943
1772555418053855500,4.67685546875,0.016335370019078255,0.04801314324140549,0.0043217516504228115
1772555418063787500,4.68678759765625,0.024480648338794708,0.029284464195370674,0.002775786444544792
1772555418073719600,4.696719482421875,0.02492084540426731,0.008110566064715385,0.005612160544842482
1772555418083651600,4.706651611328125,0.021678445860743523,-0.007738703861832619,-0.00010697823017835617
1772555418093583600,4.71658349609375,0.02232462540268898,-0.013284575194120407,-0.009493866935372353
1772555418103515400,4.726515380859375,0.023249540477991104,-0.008372640237212181,-0.007936449721455574
1772555418113447400,4.736447509765625,0.025868568569421768,-0.0004721628502011299,-0.006691597402095795
1772555418123379500,4.74637939453125,0.028808165341615677,-0.001988566480576992,0.007718500681221485
1772555418133311500,4.7563115234375,0.023507408797740936,-0.009785478934645653,0.021647484973073006
1772555418143242200,4.7662421875,0.01889587938785553,-0.018512390553951263,0.0260654017329216
1772555418153174500,4.776174560546875,0.01714986190199852,-0.01463359035551548,0.026087336242198944
1772555418163106600,4.7861064453125,0.01661003939807415,-0.007226807065308094,0.01354384794831276
1772555418173038600,4.79603857421875,0.016707438975572586,0.004070354625582695,0.004113384522497654
1772555418182970600,4.805970703125,0.023392237722873688,0.01107553206384182,-0.00674379151314497
1772555418192902700,4.815902587890625,0.030532706528902054,0.010756243020296097,-0.01442049816250801
1772555418202834400,4.82583447265625,0.03389494866132736,0.005500495433807373,-0.014519302174448967
1772555418212766500,4.835766357421875,0.039202842861413956,0.002117367461323738,-0.011183982715010643
1772555418222698500,4.845698486328125,0.04484555125236511,0.003942165523767471,-0.0030730580911040306
1772555418232630500,4.855630615234375,0.05119740590453148,0.0044151656329631805,0.008337688632309437
1772555418242562600,4.8655625,0.05542171001434326,0.0027885064482688904,0.01620439998805523
1772555418252494600,4.87549462890625,0.050042275339365005,0.003742855042219162,0.015607638284564018
1772555418262426400,4.88542626953125,0.04900737106800079,0.004375621676445007,0.0038910615257918835
1772555418272358400,4.8953583984375,0.04884922504425049,0.006117131561040878,-0.01190862338989973
1772555418282290400,4.90529052734375,0.04962100833654404,0.008399726822972298,-0.024454239755868912
1772555418292222500,4.915222412109375,0.054489899426698685,0.003923933953046799,-0.03341224417090416
1772555418302154500,4.925154541015625,0.061701469123363495,0.004201700910925865,-0.03204630687832832
1772555418312086500,4.93508642578125,0.07389138638973236,0.014453165233135223,-0.030950458720326424
1772555418322018300,4.945018310546875,0.08367637544870377,0.024680769070982933,-0.028130704537034035
1772555418331950300,4.954950439453125,0.08813554793596268,0.018896395340561867,-0.020004969090223312
1772555418341882400,4.96488232421875,0.0879208967089653,0.012268584221601486,-0.009721173904836178
1772555418351814400,4.974814453125,0.07870866358280182,-0.0001618117094039917,-0.0062940847128629684
1772555418361746400,4.984746337890625,0.06191582977771759,-0.01034520659595728,-0.003828529268503189
1772555418371678500,4.994678466796875,0.04929409548640251,-0.0202049370855093,-0.012992561794817448
1772555418381609500,5.004609375,0.037710145115852356,-0.029757428914308548,-0.020463526248931885
1772555418391542000,5.0145419921875,0.0401281975209713,-0.03810764104127884,-0.031910959631204605
1772555418401474000,5.02447412109375,0.033184535801410675,-0.04799436032772064,-0.04553942009806633
1772555418411406000,5.034406005859375,0.026691408827900887,-0.050396502017974854,-0.05859711021184921
1772555418421338000,5.044338134765625,0.02394116297364235,-0.044595867395401,-0.06343021243810654
1772555418431270100,5.054270263671875,0.019224535673856735,-0.04095013439655304,-0.0539545863866806
1772555418441202000,5.064201904296875,0.012166094966232777,-0.02686920017004013,-0.04395255073904991
1772555418451134000,5.074134033203125,0.01209915243089199,-0.005641592666506767,-0.033995866775512695
1772555418461066000,5.08406591796875,0.004696096759289503,0.015287922695279121,-0.023323779925704002
1772555418470998000,5.093998046875,-0.0068518538028001785,0.03729797899723053,-0.01467393059283495
1772555418480930000,5.103929931640625,-0.02057592198252678,0.05721575766801834,-0.006830654107034206
1772555418490862000,5.113862060546875,-0.041432514786720276,0.06339661777019501,0.003953499253839254
1772555418500793900,5.1237939453125,-0.05381062254309654,0.06380514800548553,0.016902852803468704
1772555418510726000,5.133725830078125,-0.06174122542142868,0.06738460063934326,0.02569996565580368
1772555418520658000,5.143657958984375,-0.06684970110654831,0.06633585691452026,0.033840715885162354
1772555418530590000,5.15358984375,-0.06343784928321838,0.06069999188184738,0.0308624766767025
1772555418540522000,5.16352197265625,-0.055986858904361725,0.053005851805210114,0.027595043182373047
1772555418550454000,5.1734541015625,-0.049367621541023254,0.04438542574644089,0.019674869254231453
1772555418560386000,5.183385986328125,-0.038309644907712936,0.027390995994210243,0.009207847528159618
1772555418570318000,5.193318115234375,-0.028752310201525688,0.008952690288424492,0.0035280282609164715
1772555418580250000,5.20325,-0.020960966125130653,-0.010489184409379959,0.0019354578107595444
1772555418590182100,5.21318212890625,-0.02064269408583641,-0.026844266802072525,0.006207447499036789
1772555418600114200,5.2231142578125,-0.020957479253411293,-0.04196223244071007,0.01373700238764286
1772555418610045000,5.233044921875,-0.020539242774248123,-0.04674576595425606,0.024404551833868027
1772555418619977000,5.24297705078125,-0.016628390178084373,-0.05492912605404854,0.035595156252384186
1772555418629909000,5.252908935546875,-0.013408871367573738,-0.05640275031328201,0.043861500918865204
1772555418639841000,5.262841064453125,-0.0031924524810165167,-0.055381692945957184,0.045800015330314636
1772555418649773000,5.27277294921875,0.009196960367262363,-0.05185536667704582,0.0391831174492836
1772555418659704800,5.282704833984375,0.02508404850959778,-0.05417311564087868,0.024257168173789978
1772555418669636900,5.292636962890625,0.03711918741464615,-0.06050653010606766,0.00043708179146051407
1772555418679569000,5.30256884765625,0.048837095499038696,-0.05818212404847145,-0.025047238916158676
1772555418689501000,5.3125009765625,0.052867792546749115,-0.04547276720404625,-0.04866838827729225
1772555418699433200,5.32243310546875,0.048774510622024536,-0.03579377382993698,-0.05533960461616516
1772555418709365200,5.332365234375,0.04326261579990387,-0.025537047535181046,-0.04311472550034523
1772555418719297000,5.342297119140625,0.036908846348524094,-0.011005510576069355,-0.0204261913895607
1772555418729229000,5.35222900390625,0.028544608503580093,0.0006994996219873428,0.001496925950050354
1772555418739161000,5.3621611328125,0.017669856548309326,0.009061293676495552,0.021233879029750824
1772555418749093000,5.372093017578125,0.0059052444994449615,0.013355793431401253,0.030438046902418137
1772555418759025200,5.382025146484375,-0.0027399088721722364,0.007239310070872307,0.026018265634775162
1772555418768957000,5.39195703125,-0.006527770776301622,-0.001431768760085106,0.017893321812152863
1772555418778889000,5.401888916015625,-0.010244212113320827,-0.016474634408950806,0.003758861683309078
1772555418788821000,5.411821044921875,-0.010923681780695915,-0.03682691231369972,-0.009500053711235523
1772555418798753000,5.4217529296875,-0.021864213049411774,-0.05174008011817932,-0.023915477097034454
1772555418808685000,5.43168505859375,-0.032885074615478516,-0.050469063222408295,-0.04266870766878128
1772555418818617000,5.4416171875,-0.04416649043560028,-0.037718646228313446,-0.053770095109939575
1772555418828548900,5.451548828125,-0.056472234427928925,-0.01869170553982258,-0.049464207142591476
1772555418838481000,5.46148095703125,-0.06962372362613678,0.0009608250111341476,-0.03409590572118759
1772555418848412200,5.471412109375,-0.07473175972700119,0.019314905628561974,-0.006870361976325512
1772555418858344200,5.48134423828125,-0.08299128711223602,0.027389077469706535,0.017085570842027664
1772555418868276200,5.491276123046875,-0.08855944871902466,0.02152389846742153,0.031237807124853134
1772555418878208000,5.5012080078125,-0.0924798920750618,0.013721100986003876,0.03585892170667648
1772555418888140000,5.51114013671875,-0.09273642301559448,0.0010601747781038284,0.02551274560391903
1772555418898072000,5.521072021484375,-0.08191573619842529,-0.021165234968066216,0.010733799077570438
1772555418908004000,5.531004150390625,-0.0670657604932785,-0.04000336304306984,-0.00794727262109518
1772555418917936000,5.54093603515625,-0.05282077193260193,-0.0560758039355278,-0.02782803773880005
1772555418927868200,5.5508681640625,-0.04189561307430267,-0.05705905333161354,-0.03957677632570267
1772555418937800000,5.560800048828125,-0.035057950764894485,-0.04843813553452492,-0.04688635468482971
1772555418947732000,5.57073193359375,-0.02141605131328106,-0.031522274017333984,-0.04782882332801819
1772555418957664000,5.5806640625,-0.018246890977025032,-0.022366061806678772,-0.0378507561981678
1772555418967596000,5.590595947265625,-0.016808444634079933,-0.011682244017720222,-0.02457844838500023
1772555418977528000,5.600528076171875,-0.011784391477704048,0.004893271252512932,-0.015541809611022472
1772555418987459800,5.6104599609375,-0.0009945216588675976,0.02056223899126053,-0.010452711954712868
1772555418997392000,5.620391845703125,0.006644223816692829,0.03465355560183525,-0.00920315645635128
1772555419007324000,5.630323974609375,0.0167301706969738,0.04337264597415924,-0.01789155974984169
1772555419017256000,5.640255859375,0.023980095982551575,0.04225332289934158,-0.02505786344408989
1772555419027188000,5.65018798828125,0.02785785123705864,0.032286450266838074,-0.033069510012865067
1772555419037120000,5.6601201171875,0.029195290058851242,0.009794719517230988,-0.03747571259737015
1772555419047052000,5.670052001953125,0.03009062260389328,-0.009161004796624184,-0.035988107323646545
1772555419056984000,5.679984130859375,0.039270803332328796,-0.010407896712422371,-0.035750553011894226
1772555419066916000,5.689916015625,0.0433746874332428,-0.004621495492756367,-0.027689721435308456
1772555419076848000,5.69984814453125,0.053657416254282,0.0028289631009101868,-0.020596656948328018
1772555419086779100,5.709779052734375,0.055161088705062866,0.010630518198013306,-0.011266636662185192
1772555419096711000,5.7197109375,0.05035647749900818,0.011348506435751915,-0.008401076309382915
1772555419106643000,5.729642822265625,0.04496275261044502,0.014239467680454254,-0.008904571644961834
1772555419116575000,5.739574951171875,0.03786676004528999,0.011727839708328247,-0.011571726761758327
1772555419126507000,5.749507080078125,0.025008123368024826,0.007181953638792038,-0.010583529248833656
1772555419136439000,5.75943896484375,0.0117969810962677,0.0085833091288805,-0.01084904745221138
1772555419146371000,5.76937109375,-0.004089284222573042,-0.002124294638633728,-0.00991331972181797
1772555419156302800,5.779302734375,-0.013148825615644455,-0.015689637511968613,-0.008627278730273247
1772555419166235000,5.78923486328125,-0.017975272610783577,-0.025881823152303696,-0.004691926762461662
1772555419176167000,5.7991669921875,-0.01944373920559883,-0.03462924063205719,-0.002847687341272831
1772555419186099000,5.809098876953125,-0.019218726083636284,-0.03499503806233406,-0.007596142590045929
1772555419196031000,5.819031005859375,-0.01637367159128189,-0.026722993701696396,-0.013638854026794434
1772555419205963000,5.828962890625,-0.01582259126007557,-0.013796884566545486,-0.012747524306178093
1772555419215895000,5.83889501953125,-0.011672054417431355,-0.003630533814430237,-0.008550114929676056
1772555419225827000,5.8488271484375,-0.009556584991514683,0.0015273168683052063,-0.004409344866871834
1772555419235759000,5.858759033203125,-0.005224953405559063,0.00443761982023716,-0.012262207455933094
1772555419245691100,5.868691162109375,-0.00334028247743845,0.00015753880143165588,-0.020140130072832108
1772555419255623200,5.878623046875,-0.0011612842790782452,-0.016956467181444168,-0.028872903436422348
1772555419265555000,5.888554931640625,0.004266310948878527,-0.019003160297870636,-0.041859984397888184
1772555419275487000,5.898487060546875,0.00938437320291996,-0.005217839032411575,-0.05164363235235214
1772555419285419000,5.9084189453125,0.009137837216258049,0.02325432188808918,-0.0634848102927208
1772555419295351000,5.91835107421875,0.005443500820547342,0.05350596457719803,-0.06809980422258377
1772555419305283000,5.928282958984375,0.0017163343727588654,0.0762309730052948,-0.06591326743364334
1772555419315215000,5.938215087890625,-0.003394804196432233,0.08491287380456924,-0.04941312223672867
1772555419325145900,5.948145751953125,-0.007866663858294487,0.08052189648151398,-0.03783529996871948
1772555419335078000,5.958077880859375,-0.012009210884571075,0.0774262398481369,-0.024395126849412918
1772555419345010000,5.968010009765625,-0.015474272891879082,0.0644674152135849,-0.019122639670968056
1772555419354942200,5.977942138671875,-0.01727403700351715,0.043627914041280746,-0.013056490570306778
1772555419364874200,5.987874267578125,-0.017793765291571617,0.02275356464087963,-0.013313224539160728
1772555419374806000,5.997805908203125,-0.02166626788675785,0.0017707832157611847,-0.005525875836610794
1772555419384738000,6.007738037109375,-0.025736860930919647,-0.008949169889092445,-0.0005632909014821053
1772555419394670300,6.01767041015625,-0.0223208237439394,-0.009680740535259247,0.0010718898847699165
1772555419404602400,6.027602294921875,-0.020966947078704834,-0.004720528610050678,0.008676579222083092
1772555419414534400,6.037534423828125,-0.01558709517121315,-0.003454994410276413,0.010246778838336468
1772555419424466200,6.047466064453125,-0.0112834507599473,-0.0042086150497198105,0.00972067005932331
1772555419434398200,6.057398193359375,-0.004478808026760817,-0.0035596024245023727,0.006154431030154228
1772555419444330200,6.067330322265625,-0.0028420528396964073,-0.00862723309546709,0.0029406361281871796
1772555419454262300,6.07726220703125,-0.004279893822968006,-0.01310320757329464,-0.006693082861602306
1772555419464194300,6.0871943359375,-0.009260730817914009,-0.008524972945451736,-0.013612711802124977
1772555419474126300,6.097126220703125,-0.016878703609108925,-0.0029813377186656,-0.011912282556295395
1772555419484058000,6.10705810546875,-0.02008839324116707,-0.00435320008546114,-0.010071288794279099
1772555419493990100,6.116990234375,-0.018611136823892593,-0.005335906520485878,0.0005789576098322868
1772555419503922200,6.126922119140625,-0.018991872668266296,-0.001106160692870617,0.002581370063126087
1772555419513854200,6.136854248046875,-0.012255674228072166,0.009870857000350952,0.0015193009749054909
1772555419523786200,6.1467861328125,-0.011668398045003414,0.013793783262372017,0.0013823192566633224
1772555419533718000,6.156718017578125,-0.009668097831308842,0.018408242613077164,-0.005583178251981735
1772555419543650000,6.166650146484375,-0.0076665389351546764,0.018471121788024902,-0.014291658997535706
1772555419553582000,6.17658203125,-0.00452880235388875,0.016440462321043015,-0.01522163487970829
1772555419563514000,6.18651416015625,-0.009623914025723934,0.006183391436934471,-0.012683202512562275
1772555419573446400,6.1964462890625,-0.009719254449009895,-0.005633587017655373,-0.0069640642032027245
1772555419583377200,6.206377197265625,-0.006752784363925457,-0.011233871802687645,-0.003748578019440174
1772555419593309200,6.21630908203125,-0.0029332784470170736,-0.009691368788480759,-0.003740055486559868
1772555419603241200,6.2262412109375,0.004307106602936983,-0.001579313538968563,-0.012253863736987114
1772555419613173200,6.23617333984375,0.006983050610870123,0.007023230195045471,-0.023255648091435432
1772555419623105300,6.246105224609375,0.008794797584414482,0.012765316292643547,-0.030856600031256676
1772555419633037300,6.256037353515625,0.0106480922549963,0.021538568660616875,-0.03912225365638733
1772555419642969000,6.265968994140625,0.012691269628703594,0.021792342886328697,-0.04214106872677803
1772555419652901000,6.275901123046875,0.014381046406924725,0.015209807083010674,-0.03704111650586128
1772555419662833200,6.285833251953125,0.016509540379047394,0.010950462892651558,-0.031559549272060394
1772555419672765200,6.29576513671875,0.015194738283753395,0.009709695354104042,-0.02563135325908661
1772555419682697200,6.305697265625,0.016352802515029907,0.0030153710395097733,-0.016229480504989624
1772555419692629200,6.315629150390625,0.015667568892240524,-0.0012691216543316841,-0.01389335747808218
1772555419702561000,6.32556103515625,0.014215131290256977,0.0027755089104175568,-0.013048430904746056
1772555419712493000,6.3354931640625,0.011256891302764416,0.017041796818375587,-0.015499338507652283
1772555419722425300,6.34542529296875,0.012397401966154575,0.017843326553702354,-0.008885612711310387
1772555419732357400,6.355357421875,0.0124235013499856,0.011604605242609978,0.002083149738609791
1772555419742289400,6.365289306640625,0.014607389457523823,0.0016839560121297836,0.013505402021110058
1772555419752221200,6.37522119140625,0.01564309373497963,-0.002770712599158287,0.020193930715322495
1772555419762153200,6.3851533203125,0.013127108104526997,-0.013287696056067944,0.027396496385335922
1772555419772085200,6.395085205078125,0.015043252147734165,-0.028802206739783287,0.02281665802001953
1772555419782017300,6.405017333984375,0.009405776858329773,-0.03234754502773285,0.021492164582014084
1772555419791949300,6.41494921875,0.011992771178483963,-0.029620200395584106,0.019162699580192566
1772555419801881300,6.42488134765625,0.015176314860582352,-0.027329372242093086,0.016156936064362526
1772555419811813000,6.434813232421875,0.0245469119399786,-0.02314687892794609,0.008535235188901424
1772555419821744000,6.444744140625,0.03368409723043442,-0.028244715183973312,0.004935831297188997
1772555419831676200,6.45467626953125,0.039078861474990845,-0.03456998988986015,-0.0006741173565387726
1772555419841608200,6.464608154296875,0.0417775884270668,-0.029604054987430573,-0.003386395052075386
1772555419851540200,6.474540283203125,0.04403381794691086,-0.025510510429739952,-0.0006337510421872139
1772555419861472300,6.48447216796875,0.04037950187921524,-0.033677347004413605,0.005329784471541643
1772555419871404300,6.494404296875,0.03194926679134369,-0.031983040273189545,0.012652944773435593
1772555419881336300,6.50433642578125,0.013628896325826645,-0.028190145269036293,0.020266998559236526
1772555419891268400,6.514268310546875,-0.001953525235876441,-0.03256891667842865,0.030857324600219727
1772555419901200400,6.524200439453125,-0.015739548951387405,-0.038401342928409576,0.03286929801106453
1772555419911132400,6.53413232421875,-0.02438417077064514,-0.04034092277288437,0.029283616691827774
1772555419921064200,6.544064208984375,-0.030596451833844185,-0.03090803697705269,0.022283442318439484
1772555419930996200,6.553996337890625,-0.028425175696611404,-0.022160619497299194,0.015427133068442345
1772555419940928300,6.56392822265625,-0.020062126219272614,-0.018670780584216118,0.014870056882500648
1772555419950860300,6.5738603515625,-0.013818610459566116,-0.015997765585780144,0.005976696964353323
1772555419960792300,6.583792236328125,-0.00824335590004921,-0.007002665661275387,-0.0008493140339851379
1772555419970724000,6.59372412109375,-0.009526466019451618,0.010126253589987755,-0.012179466895759106
1772555419980656000,6.60365625,-0.004910432733595371,0.027157533913850784,-0.019409306347370148
1772555419990588200,6.613588134765625,-0.009859651327133179,0.03368041291832924,-0.019346989691257477
1772555420000520200,6.623520263671875,-0.016632845625281334,0.0334361270070076,-0.01814109832048416
1772555420010452200,6.6334521484375,-0.028971802443265915,0.032979659736156464,-0.012967376969754696
1772555420020384300,6.64338427734375,-0.03783605992794037,0.02976785972714424,-0.0064317695796489716
1772555420030316000,6.65331591796875,-0.045523807406425476,0.03131488710641861,0.0007470473647117615
1772555420040248000,6.663248046875,-0.046791959553956985,0.0358782596886158,0.0008345972746610641
1772555420050180000,6.67318017578125,-0.04447074607014656,0.026839759200811386,0.007474124431610107
1772555420060111400,6.683111328125,-0.03731919080018997,0.02170080691576004,0.007589456159621477
1772555420070043400,6.69304345703125,-0.03446801006793976,0.02403879538178444,0.0050791604444384575
1772555420079975200,6.70297509765625,-0.026993123814463615,0.028355568647384644,0.006903071887791157
1772555420089907200,6.7129072265625,-0.02082311175763607,0.029325224459171295,0.00710414070636034
1772555420099839200,6.722839111328125,-0.021211957558989525,0.027577467262744904,0.0073736379854381084
1772555420109771300,6.732771240234375,-0.022823169827461243,0.018077973276376724,0.007775775156915188
1772555420119703300,6.742703369140625,-0.03239018842577934,-0.0004394799470901489,0.009368873201310635
1772555420129635300,6.75263525390625,-0.03675723820924759,-0.01521629560738802,0.008431972935795784
1772555420139567000,6.762567138671875,-0.03561721369624138,-0.01937456987798214,0.0044346521608531475
1772555420149499100,6.7724990234375,-0.030062660574913025,-0.017886394634842873,0.0032705841585993767
1772555420159431200,6.78243115234375,-0.025470182299613953,-0.01314886100590229,0.0015829354524612427
1772555420169363200,6.79236328125,-0.0206940695643425,-0.012076405808329582,0.000042562372982501984
1772555420179295200,6.802295166015625,-0.01684388890862465,-0.008752668276429176,0.003618144430220127
1772555420189227300,6.812227294921875,-0.013337038457393646,0.00021286308765411377,-0.003935911692678928
1772555420199159000,6.822158935546875,-0.0107091274112463,0.005485542118549347,-0.011316046118736267
1772555420209091000,6.832091064453125,-0.014536622911691666,0.002245008945465088,-0.01837528683245182
1772555420219023000,6.842023193359375,-0.017366571351885796,-0.017107954248785973,-0.02302759885787964
1772555420228955400,6.851955322265625,-0.01258033886551857,-0.02582128345966339,-0.017487425357103348
1772555420238887400,6.861887451171875,-0.007698036730289459,-0.029067646712064743,-0.015344587154686451
1772555420248819200,6.871819091796875,-0.0052697667852044106,-0.022039830684661865,-0.005041350610554218
1772555420258751200,6.881751220703125,0.01408066600561142,-0.010002481751143932,0.008466899394989014
1772555420268683300,6.891683349609375,0.041422273963689804,-0.03310007601976395,0.006547825876623392
1772555420278615300,6.901615234375,0.0690193772315979,-0.11446483433246613,-0.026547174900770187
1772555420288547300,6.91154736328125,0.08636827021837234,-0.20671699941158295,-0.06722988933324814
1772555420298479400,6.921479248046875,0.09167905151844025,-0.2709437906742096,-0.08555801212787628
1772555420308411100,6.9314111328125,0.10611765086650848,-0.29208049178123474,-0.09581783413887024
1772555420318342100,6.941342041015625,0.12168437242507935,-0.2817584276199341,-0.10690975189208984
1772555420328274200,6.951274169921875,0.11332152038812637,-0.2583644390106201,-0.11838238686323166
1772555420338206200,6.961206298828125,0.08845255523920059,-0.2323388308286667,-0.12852805852890015
1772555420348138200,6.97113818359375,0.06027951464056969,-0.19134558737277985,-0.1164703369140625
1772555420358070000,6.981070068359375,0.04583825543522835,-0.13173553347587585,-0.08849873393774033
1772555420368002300,6.991002197265625,0.04451945796608925,-0.05488736927509308,-0.041076626628637314
1772555420377934300,7.000934326171875,0.04164876416325569,0.008819736540317535,0.002698073163628578
1772555420387866400,7.010866455078125,0.03152848780155182,0.04689681529998779,0.042267587035894394
1772555420397798400,7.02079833984375,0.032406143844127655,0.05703010782599449,0.06281600892543793
1772555420407730400,7.03073046875,0.029346171766519547,0.048089344054460526,0.06772634387016296
1772555420417662200,7.040662109375,0.02936505526304245,0.020581139251589775,0.05755303427577019
1772555420427594200,7.05059423828125,0.03458138927817345,-0.01407617423683405,0.03820063918828964
1772555420437526300,7.0605263671875,0.04755868390202522,-0.03731857240200043,0.006789708975702524
1772555420447458300,7.070458251953125,0.06397467106580734,-0.05603952705860138,-0.03129589185118675
1772555420457390300,7.080390380859375,0.07563459128141403,-0.08196143805980682,-0.06541211158037186
1772555420467322000,7.090322021484375,0.06924833357334137,-0.11603391915559769,-0.08438366651535034
1772555420477254100,7.100254150390625,0.05565161630511284,-0.1382416933774948,-0.0831921175122261
1772555420487186200,7.110186279296875,0.03990061581134796,-0.13872770965099335,-0.06633537262678146
1772555420497118200,7.1201181640625,0.025435537099838257,-0.10728274285793304,-0.036114346235990524
1772555420507050200,7.13005029296875,0.009514627046883106,-0.07131941616535187,0.00485598761588335
1772555420516982300,7.139982177734375,0.005411107093095779,-0.040165260434150696,0.04826844856142998
1772555420526914000,7.1499140625,0.008508630096912384,-0.004945754073560238,0.07503055781126022
1772555420536846000,7.15984619140625,0.008768239058554173,0.022676773369312286,0.08165577054023743
1772555420546778000,7.169778076171875,0.008594335056841373,0.045775432139635086,0.07242579013109207
1772555420556710100,7.179710205078125,0.0075202579610049725,0.06528185307979584,0.057479701936244965
1772555420566642200,7.18964208984375,0.001813636627048254,0.07681094110012054,0.04012308269739151
1772555420576573200,7.1995732421875,-0.012073853053152561,0.09146350622177124,0.0268235020339489
1772555420586505200,7.209505126953125,-0.024705758318305016,0.11024358868598938,0.026511646807193756
1772555420596437200,7.219437255859375,-0.03155131638050079,0.1343224197626114,0.032590147107839584
1772555420606369300,7.229369384765625,-0.03363843634724617,0.15007741749286652,0.04293173551559448
1772555420616301300,7.23930126953125,-0.019822925329208374,0.15254150331020355,0.05346345528960228
1772555420626233300,7.2492333984375,-0.009896524250507355,0.1462356597185135,0.053970787674188614
1772555420636165000,7.2591650390625,0.00010892283171415329,0.12762093544006348,0.05667940899729729
1772555420646097200,7.26909716796875,0.00549037242308259,0.10543227940797806,0.057750001549720764
1772555420656029200,7.279029296875,0.01519662607461214,0.07361001521348953,0.05756755173206329
1772555420665961200,7.288961181640625,0.022969592362642288,0.05511835962533951,0.05004492402076721
1772555420675893200,7.298893310546875,0.02960352972149849,0.04878911375999451,0.03920198231935501
1772555420685825000,7.308824951171875,0.03365286439657211,0.0378672257065773,0.01567082479596138
1772555420695757000,7.318757080078125,0.030943123623728752,0.02683044970035553,-0.004532023333013058
1772555420705689000,7.328689208984375,0.033000148832798004,0.02670954167842865,-0.026189647614955902
1772555420715621000,7.33862109375,0.040354590862989426,0.034009307622909546,-0.04744487255811691
1772555420725553200,7.34855322265625,0.044741347432136536,0.04324221983551979,-0.05825917422771454
1772555420735485400,7.3584853515625,0.04887096583843231,0.0403716154396534,-0.05430983379483223
1772555420745417200,7.368417236328125,0.048530615866184235,0.039763081818819046,-0.03728983551263809
1772555420755349200,7.378349365234375,0.04375828057527542,0.045324698090553284,-0.014642700552940369
1772555420765281300,7.38828125,0.03850226476788521,0.05998380482196808,0.00006460677832365036
1772555420775213300,7.39821337890625,0.034992944449186325,0.07353051006793976,0.002531161531805992
1772555420785145300,7.408145263671875,0.03215028718113899,0.06696422398090363,0.0016035828739404678
1772555420795077400,7.418077392578125,0.02123873308300972,0.03930988907814026,-0.0011254092678427696
1772555420805009200,7.428009033203125,0.015779785811901093,0.01073416881263256,-0.0076810456812381744
1772555420814941200,7.437941162109375,0.016578154638409615,-0.01347405556589365,-0.016486426815390587
1772555420824872200,7.4478720703125,0.020900463685393333,-0.027625294402241707,-0.019296327605843544
1772555420834804200,7.45780419921875,0.019283778965473175,-0.02845856174826622,-0.022087059915065765
1772555420844736300,7.467736328125,0.02063480019569397,-0.01708340086042881,-0.01978316158056259
1772555420854668000,7.47766796875,0.026698093861341476,-0.0016871653497219086,-0.015897929668426514
1772555420864600000,7.48760009765625,0.02165752835571766,0.01347101479768753,-0.012458990328013897
1772555420874532000,7.497531982421875,0.014102187938988209,0.036165501922369,-0.017577417194843292
1772555420884464400,7.50746435546875,0.011506139300763607,0.057646822184324265,-0.020193971693515778
1772555420894396400,7.517396484375,0.01491975411772728,0.06635063886642456,-0.026951752603054047
1772555420904328200,7.527328125,0.02003648690879345,0.05153600871562958,-0.024759970605373383
1772555420914260200,7.53726025390625,0.024338312447071075,0.026050280779600143,-0.02140917256474495
1772555420924192300,7.547192138671875,0.026429694145917892,0.012667898088693619,-0.010603395290672779
1772555420934124300,7.557124267578125,0.02486261911690235,-0.00935616996139288,-0.0034587299451231956
1772555420944056300,7.567056396484375,0.014040330424904823,-0.03057224303483963,0.011533002369105816
1772555420953988400,7.57698828125,0.005726860836148262,-0.03650783374905586,0.01975083351135254
1772555420963920100,7.586920166015625,-0.0052991583943367004,-0.03184836730360985,0.01951966993510723
1772555420973852200,7.59685205078125,-0.021279359236359596,-0.02785506471991539,0.002633053809404373
1772555420983784200,7.6067841796875,-0.04048074781894684,-0.03975673019886017,-0.02463958039879799
1772555420993716200,7.61671630859375,-0.054717499762773514,-0.049408748745918274,-0.05618180334568024
1772555421003648300,7.626648193359375,-0.0603594072163105,-0.0552234947681427,-0.08193936944007874
1772555421013580300,7.636580322265625,-0.03316788002848625,-0.06392906606197357,-0.09020502120256424
1772555421023512000,7.646511962890625,-0.007812721654772758,-0.05367136746644974,-0.0870121642947197
1772555421033444000,7.656444091796875,0.006515786051750183,-0.028486523777246475,-0.07833435386419296
1772555421043376000,7.666376220703125,0.0092705599963665,0.007940726354718208,-0.06112048402428627
1772555421053308200,7.67630810546875,-0.004339209757745266,0.04307486116886139,-0.04208364710211754
1772555421063240200,7.686240234375,-0.01679348200559616,0.07416593283414841,-0.022746700793504715
1772555421073172200,7.696172119140625,-0.03617248311638832,0.09474354982376099,-0.003226102329790592
1772555421083103200,7.706103271484375,-0.059791259467601776,0.10225552320480347,0.018983062356710434
1772555421093035300,7.71603515625,-0.08088673651218414,0.09738260507583618,0.031402837485075
1772555421102967300,7.72596728515625,-0.10004764795303345,0.0929524376988411,0.039994195103645325
1772555421112899300,7.7358994140625,-0.11343204975128174,0.07584170997142792,0.04054010659456253
1772555421122831000,7.7458310546875,-0.11744356900453568,0.054659195244312286,0.027447475120425224
1772555421132763100,7.75576318359375,-0.12061551213264465,0.018860919401049614,0.006253659725189209
1772555421142695200,7.765695068359375,-0.11261803656816483,-0.0031652869656682014,-0.019150232896208763
1772555421152627200,7.775627197265625,-0.10088160634040833,-0.019750405102968216,-0.04209776595234871
1772555421162559200,7.785559326171875,-0.08311992138624191,-0.03680315613746643,-0.042920418083667755
1772555421172491300,7.7954912109375,-0.06824447214603424,-0.05426935851573944,-0.04198314994573593
1772555421182423000,7.805423095703125,-0.07085517048835754,-0.0669151172041893,-0.030507322400808334
1772555421192355000,7.81535498046875,-0.078865185379982,-0.0674029290676117,-0.017164364457130432
1772555421202287000,7.825287109375,-0.09256155788898468,-0.0623202919960022,-0.014464187435805798
1772555421212219100,7.83521923828125,-0.0946398600935936,-0.0696142315864563,-0.017318816855549812
1772555421222151200,7.845151123046875,-0.09820450097322464,-0.08133986592292786,-0.03741715848445892
1772555421232083200,7.855083251953125,-0.08385526388883591,-0.07904790341854095,-0.0611342117190361
1772555421242015200,7.86501513671875,-0.07544367015361786,-0.0697726458311081,-0.07653873413801193
1772555421251947300,7.874947265625,-0.07603836059570312,-0.0655563622713089,-0.07027856260538101
1772555421261879300,7.88487939453125,-0.08537647128105164,-0.0630551129579544,-0.05307267606258392
1772555421271811300,7.894811279296875,-0.10178156197071075,-0.05522716045379639,-0.03409050405025482
1772555421281743400,7.904743408203125,-0.11200197786092758,-0.02341197431087494,-0.01584332436323166
1772555421291675400,7.91467529296875,-0.11139223724603653,0.014222955331206322,-0.009969835169613361
1772555421301607200,7.924607177734375,-0.10189460217952728,0.03952910751104355,0.0014106500893831253
1772555421311539200,7.934539306640625,-0.08764524012804031,0.05942804366350174,0.0026882821694016457
1772555421321471200,7.94447119140625,-0.06572715193033218,0.07884249091148376,0.003664064686745405
1772555421331402200,7.95440234375,-0.036440033465623856,0.10237676650285721,-0.0003067357465624809
1772555421341334000,7.964333984375,-0.013368270359933376,0.0949137955904007,0.0016110064461827278
1772555421351266000,7.97426611328125,0.002609848976135254,0.048999253660440445,0.006980272475630045
1772555421361198000,7.984197998046875,0.017606373876333237,0.006760982796549797,0.025018662214279175
1772555421371130000,7.994130126953125,0.028561651706695557,0.005956580862402916,0.03139570355415344
1772555421381062100,8.004062255859376,0.04044121503829956,0.03376371040940285,0.019444234669208527
