time,seconds_elapsed,z,y,x
1772556210104735200,0.0687353515625,0.23182405531406403,-1.2318934202194214,-1.9688626527786255
1772556210114666000,0.078666015625,0.16527193784713745,-1.2857694625854492,-2.114856719970703
1772556210124597000,0.088596923828125,0.08673983812332153,-1.3606387376785278,-2.13227915763855
1772556210134528300,0.0985283203125,-0.006730455439537764,-1.3053267002105713,-2.0751404762268066
1772556210144459000,0.108458984375,0.04424000158905983,-1.120894432067871,-1.9774760007858276
1772556210154390000,0.11839013671875,0.14733681082725525,-1.387070655822754,-1.8642791509628296
1772556210164321300,0.1283212890625,0.2243998497724533,-1.530845284461975,-1.7633708715438843
1772556210174252000,0.138251953125,0.2772476077079773,-1.6395541429519653,-1.657514214515686
1772556210184183000,0.14818310546875,0.288824200630188,-1.7900017499923706,-1.5428529977798462
1772556210194114300,0.1581142578125,0.2397913783788681,-1.8528356552124023,-1.4290006160736084
1772556210204045000,0.168045166015625,0.14163191616535187,-1.7375377416610718,-1.3235735893249512
1772556210213976000,0.17797607421875,-0.005358872003853321,-1.5007696151733398,-1.2266435623168945
1772556210223907000,0.187906982421875,-0.18491436541080475,-1.2293145656585693,-1.130329966545105
1772556210233838000,0.197838134765625,-0.37725478410720825,-1.0488486289978027,-1.0217899084091187
1772556210243769000,0.20776904296875,-0.6021100878715515,-1.025485634803772,-0.903210461139679
1772556210253700000,0.2177001953125,-0.9638219475746155,-0.7536745667457581,-0.6808682084083557
1772556210263631000,0.227631103515625,-1.53325355052948,0.23799465596675873,-0.07671306282281876
1772556210273562000,0.23756201171875,-1.9185065031051636,0.48510754108428955,0.6427393555641174
1772556210283493000,0.2474931640625,-2.2048165798187256,0.7256554961204529,1.5211970806121826
1772556210293424000,0.257424072265625,-2.3521885871887207,0.7988128066062927,2.439310312271118
1772556210303355000,0.26735498046875,-2.1976606845855713,1.2117464542388916,3.226382255554199
1772556210313286100,0.2772861328125,-1.4925447702407837,2.9224300384521484,3.176969051361084
1772556210323217200,0.287217041015625,-0.6315910220146179,4.699061393737793,2.5648193359375
1772556210333148000,0.29714794921875,0.02050873264670372,5.082777500152588,2.37620210647583
1772556210343079200,0.3070791015625,0.4589759111404419,4.827930450439453,2.362536907196045
1772556210353011200,0.31701123046875,0.8909124135971069,4.818655490875244,2.0552730560302734
1772556210362942000,0.32694189453125,1.351222276687622,5.035943984985352,1.4844019412994385
1772556210372873000,0.336873046875,1.6556020975112915,4.644387245178223,0.610200047492981
1772556210382804200,0.34680419921875,1.9947444200515747,2.340026378631592,-0.35746055841445923
1772556210392735000,0.35673486328125,1.6273263692855835,0.08496438711881638,-1.2197047472000122
1772556210402666000,0.366666015625,0.983008861541748,-0.47881612181663513,-2.0399820804595947
1772556210412597200,0.37659716796875,0.46217021346092224,0.5415588021278381,-2.5147488117218018
1772556210422528000,0.386528076171875,0.16471779346466064,1.6192876100540161,-2.7160723209381104
1772556210432459000,0.396458984375,-0.16272452473640442,2.147104263305664,-2.938735246658325
1772556210442390300,0.406390380859375,-0.6503350734710693,2.863645553588867,-3.1325278282165527
1772556210452321000,0.416321044921875,-0.9766740202903748,3.15679931640625,-3.2192864418029785
1772556210462252000,0.426251953125,-1.1303634643554688,2.652679443359375,-3.0958008766174316
1772556210472183000,0.43618310546875,-1.1749745607376099,1.6436080932617188,-2.7502803802490234
1772556210482114000,0.446114013671875,-1.133814811706543,0.4124338626861572,-2.32951283454895
1772556210492045000,0.456045166015625,-1.024708867073059,-0.502837598323822,-1.933420181274414
1772556210501976000,0.46597607421875,-0.8646513223648071,-0.8476834297180176,-1.6616935729980469
1772556210511907000,0.475906982421875,-0.8027288317680359,-0.8138319849967957,-1.5835849046707153
1772556210521838000,0.485838134765625,-0.9167112708091736,-0.5733895897865295,-1.5880966186523438
1772556210531769000,0.49576904296875,-1.0952386856079102,-0.3311649560928345,-1.6312695741653442
1772556210541700000,0.5057001953125,-1.2562272548675537,-0.11653807759284973,-1.7309919595718384
1772556210551630800,0.515630859375,-1.252703070640564,0.5711031556129456,-1.8360002040863037
1772556210561562000,0.52556201171875,-1.036219835281372,0.7384810447692871,-1.8749265670776367
1772556210571493000,0.5354931640625,-0.6374418139457703,0.5165398716926575,-1.7944234609603882
1772556210581423900,0.545423828125,-0.1952826827764511,0.27844691276550293,-1.4896929264068604
1772556210591355100,0.555355224609375,0.23931750655174255,0.005033206194639206,-0.9668405055999756
1772556210601286100,0.5652861328125,0.46420690417289734,-0.2901603579521179,-0.3506176769733429
1772556210611217000,0.575216796875,0.4298361539840698,-0.3814351558685303,0.2855931520462036
1772556210621148200,0.585148193359375,0.29987218976020813,-0.07236771285533905,0.8566461205482483
1772556210631080200,0.595080078125,0.1624714583158493,0.6078425049781799,1.243725061416626
1772556210641011000,0.605010986328125,0.017224721610546112,1.2738107442855835,1.446048617362976
1772556210650942200,0.614942138671875,0.010884265415370464,1.6562228202819824,1.4153255224227905
1772556210660873200,0.624873291015625,-0.03440847620368004,1.6313732862472534,1.2336336374282837
1772556210670804000,0.634803955078125,-0.14540822803974152,1.1783759593963623,0.983668863773346
1772556210680735200,0.6447353515625,-0.2320011407136917,0.3705485165119171,0.6879621744155884
1772556210690666200,0.654666259765625,-0.32978734374046326,-0.6832398176193237,0.33378228545188904
1772556210700597000,0.664596923828125,-0.47426724433898926,-1.683046579360962,-0.004475438967347145
1772556210710528300,0.6745283203125,-0.6901875734329224,-2.4426932334899902,-0.278064101934433
1772556210720459000,0.684458984375,-0.9301542639732361,-2.8754961490631104,-0.4694158434867859
1772556210730390000,0.69439013671875,-1.1763473749160767,-2.9190001487731934,-0.5901275873184204
1772556210740321300,0.7043212890625,-1.4610921144485474,-2.5592260360717773,-0.6199992895126343
1772556210750252000,0.714251953125,-1.7236627340316772,-1.9888103008270264,-0.4916141927242279
1772556210760183000,0.72418310546875,-1.8221818208694458,-1.3779999017715454,-0.20779544115066528
1772556210770114300,0.7341142578125,-1.72258460521698,-0.698861300945282,0.14662788808345795
1772556210780045000,0.744045166015625,-1.4492942094802856,-0.05098343640565872,0.53322833776474
1772556210789976000,0.75397607421875,-1.1242413520812988,0.5705544352531433,0.9052460789680481
1772556210799907300,0.7639072265625,-0.8827746510505676,1.0320019721984863,1.2059037685394287
1772556210809838000,0.773838134765625,-0.7561810612678528,1.2965384721755981,1.4062024354934692
1772556210819769000,0.78376904296875,-0.686735212802887,1.4817644357681274,1.4829463958740234
1772556210829700000,0.7937001953125,-0.6015921235084534,1.5350383520126343,1.4403259754180908
1772556210839631000,0.803631103515625,-0.5093814134597778,1.400017261505127,1.288283348083496
1772556210849562000,0.81356201171875,-0.43927502632141113,1.1888328790664673,1.1028984785079956
1772556210859493000,0.8234931640625,-0.4452875852584839,1.0313533544540405,0.9923979640007019
1772556210869424000,0.833424072265625,-0.5231759548187256,0.6406130194664001,1.0598859786987305
1772556210879355100,0.843355224609375,-0.6378244757652283,-0.072564035654068,1.2865121364593506
1772556210889286100,0.8532861328125,-0.8463516235351562,-0.6178278923034668,1.6153430938720703
1772556210899218200,0.86321826171875,-1.1276867389678955,-0.8062933087348938,1.9342246055603027
1772556210909149200,0.873149169921875,-1.3865289688110352,-0.7619963884353638,2.106031894683838
1772556210919080000,0.883079833984375,-1.5184544324874878,-0.5486384630203247,2.0273847579956055
1772556210929011200,0.89301123046875,-1.4484941959381104,-0.242835134267807,1.8185980319976807
1772556210938942200,0.902942138671875,-1.2409242391586304,-0.10462354123592377,1.6761711835861206
1772556210948873000,0.912873046875,-0.9927917122840881,-0.2510233521461487,1.611301064491272
1772556210958804200,0.92280419921875,-0.7518530488014221,-0.389029324054718,1.5252255201339722
1772556210968735000,0.93273486328125,-0.5721402764320374,-0.34266793727874756,1.3852918148040771
1772556210978666000,0.942666015625,-0.47025981545448303,-0.22535182535648346,1.2433326244354248
1772556210988597200,0.95259716796875,-0.4109480381011963,-0.1580774486064911,1.1183403730392456
1772556210998528000,0.962528076171875,-0.3078877329826355,-0.19555096328258514,0.96135014295578
1772556211008459000,0.972458984375,-0.13179340958595276,-0.33087578415870667,0.7346863746643066
1772556211018390300,0.982390380859375,0.09303203225135803,-0.48014959692955017,0.4752446711063385
1772556211028321000,0.992321044921875,0.3105148375034332,-0.6023359894752502,0.23209458589553833
1772556211038252000,1.002251953125,0.5122040510177612,-0.6428622007369995,0.0352567657828331
1772556211048183300,1.012183349609375,0.6955174207687378,-0.5451270937919617,-0.09392039477825165
1772556211058114000,1.022114013671875,0.8524846434593201,-0.35373029112815857,-0.13427495956420898
1772556211068045000,1.032045166015625,0.9441346526145935,-0.1694832295179367,-0.06764320284128189
1772556211077976000,1.04197607421875,0.9477840065956116,-0.1468263417482376,0.090047687292099
1772556211087907000,1.051906982421875,0.8245677947998047,-0.3680332899093628,0.30287685990333557
1772556211097838000,1.061838134765625,0.6077141761779785,-0.7558302283287048,0.49319714307785034
1772556211107769000,1.07176904296875,0.3793236315250397,-1.170965313911438,0.6130804419517517
1772556211117700000,1.0817001953125,0.19488224387168884,-1.4987562894821167,0.6991527080535889
1772556211127631000,1.091631103515625,0.059254903346300125,-1.5593879222869873,0.8219281435012817
1772556211137562000,1.10156201171875,-0.0017072595655918121,-1.277714729309082,0.9792366623878479
1772556211147493000,1.1114931640625,-0.07709468901157379,-0.7643765211105347,1.1072474718093872
1772556211157425200,1.121425048828125,-0.13960152864456177,-0.21230703592300415,1.1942249536514282
1772556211167356000,1.13135595703125,-0.18238414824008942,0.21782037615776062,1.281131625175476
1772556211177287200,1.141287109375,-0.18505071103572845,0.4201507866382599,1.3585600852966309
1772556211187218200,1.15121826171875,-0.17112025618553162,0.39821380376815796,1.3119680881500244
1772556211197149000,1.16114892578125,-0.1987026184797287,0.2543618083000183,1.030348539352417
1772556211207080200,1.171080078125,-0.261719673871994,0.09099602699279785,0.5213785171508789
1772556211217011000,1.181010986328125,-0.3398154675960541,0.014997979626059532,-0.14434537291526794
1772556211226942000,1.19094189453125,-0.38569721579551697,0.018260618671774864,-0.8923327326774597
1772556211236873200,1.200873291015625,-0.3603767156600952,0.11875788122415543,-1.6442350149154663
1772556211246804000,1.210803955078125,-0.30215203762054443,0.30555784702301025,-2.2851405143737793
1772556211256735000,1.22073486328125,-0.37035027146339417,0.912943422794342,-2.417290687561035
1772556211266666200,1.230666259765625,-0.5230823159217834,0.9546802043914795,-2.1945409774780273
1772556211276597000,1.240596923828125,-0.6144849061965942,0.7626500129699707,-1.731325387954712
1772556211286528000,1.250528076171875,-0.6537699699401855,0.5832235217094421,-1.2592054605484009
1772556211296459300,1.260459228515625,-0.6401174068450928,0.6329843401908875,-0.9240384101867676
1772556211306390000,1.27039013671875,-0.5583410859107971,0.9350624084472656,-0.6719222664833069
1772556211316321000,1.280321044921875,-0.45312488079071045,1.2354756593704224,-0.35540327429771423
1772556211326252000,1.290251953125,-0.3736412525177002,1.4022473096847534,-0.008361187763512135
1772556211336183000,1.30018310546875,-0.32521873712539673,1.4263325929641724,0.17741893231868744
1772556211346114000,1.310114013671875,-0.2892306447029114,1.2029247283935547,0.07239770889282227
1772556211356045000,1.320045166015625,-0.25530388951301575,0.6743735074996948,-0.26505547761917114
1772556211365976000,1.32997607421875,-0.22029265761375427,-0.012827755883336067,-0.6685140132904053
1772556211375907000,1.339906982421875,-0.2216973602771759,-0.6580033302307129,-1.0243107080459595
1772556211385838000,1.349838134765625,-0.30587828159332275,-1.0912401676177979,-1.2672604322433472
1772556211395770000,1.35977001953125,-0.45812007784843445,-1.2195992469787598,-1.4673548936843872
1772556211405701000,1.369701171875,-0.5658246874809265,-0.9835139513015747,-1.7351146936416626
1772556211415632100,1.379632080078125,-0.5609124302864075,-0.4234727919101715,-1.9793741703033447
1772556211425563100,1.389563232421875,-0.46978139877319336,0.20363746583461761,-2.032106637954712
1772556211435494100,1.399494140625,-0.30126407742500305,0.6882485747337341,-1.9450643062591553
1772556211445425200,1.409425048828125,-0.10738196969032288,0.9657976627349854,-1.8521054983139038
1772556211455356200,1.419356201171875,0.03747626021504402,0.9081369638442993,-1.6758912801742554
1772556211465286100,1.4292861328125,0.04386172071099281,0.48390498757362366,-1.194252848625183
1772556211475217400,1.439217529296875,-0.028258714824914932,-0.08698700368404388,-0.4297839403152466
1772556211485148200,1.449148193359375,-0.1025899350643158,-0.4684549868106842,0.4046030640602112
1772556211495079200,1.4590791015625,-0.12728755176067352,-0.5280929207801819,1.1921207904815674
1772556211505010400,1.469010498046875,-0.016037462279200554,-0.23195604979991913,1.9182918071746826
1772556211514941200,1.478941162109375,0.21745891869068146,0.2131938636302948,2.554468870162964
1772556211524872200,1.4888720703125,0.4959898591041565,0.46791112422943115,3.009852409362793
1772556211534803500,1.498803466796875,0.80042964220047,0.39209890365600586,3.31939435005188
1772556211544734200,1.508734130859375,1.007262945175171,-0.02656412497162819,3.554542303085327
1772556211554665200,1.518665283203125,0.9934372305870056,-0.5770871043205261,3.6730191707611084
1772556211564596500,1.528596435546875,0.8534987568855286,-1.1022166013717651,3.696671962738037
1772556211574527200,1.53852734375,0.7244653105735779,-1.4177578687667847,3.7218616008758545
1772556211584458200,1.548458251953125,0.5276680588722229,-1.572836995124817,3.692861795425415
1772556211594389200,1.55838916015625,0.36167240142822266,-1.560113549232483,3.4565229415893555
1772556211604320300,1.5683203125,0.16096696257591248,-1.468051791191101,3.181490898132324
1772556211614251300,1.578251220703125,-0.08870638906955719,-1.5912420749664307,3.009718418121338
1772556211624182300,1.588182373046875,-0.32522836327552795,-1.901150107383728,2.8784241676330566
1772556211634114300,1.5981142578125,-0.4776080846786499,-2.139986276626587,2.7199795246124268
1772556211644045300,1.60804541015625,-0.4764613211154938,-2.0507450103759766,2.469863176345825
1772556211653976300,1.617976318359375,-0.37713417410850525,-1.5902730226516724,2.09152889251709
1772556211663907300,1.6279072265625,-0.20771104097366333,-0.8932110667228699,1.5772994756698608
1772556211673838300,1.63783837890625,0.02707277610898018,-0.23951125144958496,0.8276582360267639
1772556211683769300,1.647769287109375,0.22399435937404633,0.28352639079093933,-0.19779406487941742
1772556211693700400,1.657700439453125,0.31066662073135376,0.6312342286109924,-1.3362573385238647
1772556211703631400,1.66763134765625,0.2557471692562103,0.8772754073143005,-2.509859800338745
1772556211713562400,1.677562255859375,0.12559551000595093,1.0874723196029663,-3.725151300430298
1772556211723493400,1.687493408203125,-0.01532619446516037,1.138095736503601,-4.866752624511719
1772556211733424000,1.697424072265625,-0.10496792197227478,1.0234683752059937,-5.811634540557861
1772556211743355400,1.70735546875,-0.15489420294761658,1.0650118589401245,-6.3709235191345215
1772556211753286400,1.717286376953125,-0.30876973271369934,0.7668492197990417,-6.16105318069458
1772556211763217200,1.727217041015625,-0.3208732604980469,0.4372912645339966,-5.705262660980225
1772556211773148400,1.7371484375,-0.21514035761356354,0.370907723903656,-5.381889820098877
1772556211783079400,1.747079345703125,0.006344637367874384,0.49625363945961,-5.16574764251709
1772556211793010200,1.75701025390625,0.24339409172534943,0.8509859442710876,-4.948689937591553
1772556211802941400,1.76694140625,0.3878553807735443,1.0963144302368164,-4.459573745727539
1772556211812872400,1.77687255859375,0.40163540840148926,1.1602329015731812,-3.5353541374206543
1772556211822803200,1.78680322265625,0.2191966325044632,1.1430193185806274,-2.29644513130188
1772556211832734500,1.796734375,-0.06161416321992874,1.0808427333831787,-1.2534401416778564
1772556211842665200,1.806665283203125,-0.23218616843223572,0.9013612866401672,-0.7902250289916992
1772556211852596200,1.81659619140625,-0.14089328050613403,0.5714457631111145,-0.9964916706085205
1772556211862527500,1.826527587890625,0.22770126163959503,0.2116769254207611,-1.6750400066375732
1772556211872458200,1.836458251953125,0.753203272819519,-0.21974599361419678,-2.2589173316955566
1772556211882390300,1.846390380859375,1.210831642150879,-0.6896823048591614,-2.302367925643921
1772556211892321300,1.8563212890625,1.481042742729187,-0.8854494094848633,-1.8372561931610107
1772556211902252300,1.866252197265625,1.4898873567581177,-0.6452088356018066,-1.1817339658737183
1772556211912183300,1.876183349609375,1.2866477966308594,-0.13212421536445618,-0.7518838047981262
1772556211922114300,1.8861142578125,0.9884583950042725,0.4202476143836975,-0.591850996017456
1772556211932045300,1.89604541015625,0.6783796548843384,0.8850084543228149,-0.5413381457328796
1772556211941976300,1.905976318359375,0.5240451693534851,1.0924721956253052,-0.5233247876167297
1772556211951907300,1.9159072265625,0.6487864255905151,0.9494012594223022,-0.5131076574325562
1772556211961838300,1.92583837890625,0.9152580499649048,0.5811958312988281,-0.3560815453529358
1772556211971769300,1.935769287109375,1.1788090467453003,0.20086130499839783,0.030545197427272797
1772556211981700000,1.9457001953125,1.3392879962921143,-0.07120189070701599,0.6179364919662476
1772556211991631400,1.95563134765625,1.4290926456451416,-0.20218110084533691,1.2511190176010132
1772556212001562400,1.965562255859375,1.5141716003417969,-0.2962002754211426,1.8649065494537354
1772556212011493000,1.9754931640625,1.6252105236053467,-0.4735003411769867,2.5407967567443848
1772556212021424400,1.98542431640625,1.6919405460357666,-0.6664820313453674,3.265197992324829
1772556212031355400,1.99535546875,1.649880051612854,-0.7488658428192139,3.9108810424804688
1772556212041286100,2.0052861328125,1.5053566694259644,-0.7194701433181763,4.4114251136779785
1772556212051217400,2.015217529296875,1.3307605981826782,-0.633497953414917,4.821757793426514
1772556212061148400,2.0251484375,1.2784260511398315,-0.49508175253868103,5.137056827545166
1772556212071079200,2.0350791015625,1.4476053714752197,-0.3767227232456207,5.392413139343262
1772556212081010400,2.045010498046875,1.7260487079620361,-0.375808447599411,5.668125152587891
1772556212090941200,2.054941162109375,1.969164252281189,-0.4900738596916199,5.986296653747559
1772556212100873200,2.064873291015625,2.0298383235931396,-0.6887922883033752,6.297474384307861
1772556212110804200,2.07480419921875,1.8368467092514038,-1.136612892150879,6.367574214935303
1772556212120735500,2.084735595703125,1.4607350826263428,-1.5904887914657593,5.872826099395752
1772556212130666200,2.094666259765625,0.9625731706619263,-1.7652219533920288,5.0804948806762695
1772556212140597200,2.10459716796875,0.5685712695121765,-1.6558599472045898,4.038880825042725
1772556212150528300,2.1145283203125,0.16307775676250458,-1.4235098361968994,2.660282611846924
1772556212160459300,2.124459228515625,-0.1799270063638687,-1.214476227760315,1.2614918947219849
1772556212170390300,2.134390380859375,-0.41471201181411743,-1.1301178932189941,0.07049737870693207
1772556212180321300,2.1443212890625,-0.5535469055175781,-1.0903294086456299,-0.9344922304153442
1772556212190252300,2.154252197265625,-0.6162976026535034,-1.0042150020599365,-1.8154520988464355
1772556212200183300,2.164183349609375,-0.6303356885910034,-0.7746603488922119,-2.600648880004883
1772556212210114300,2.1741142578125,-0.5955725908279419,-0.3096849024295807,-3.330583333969116
1772556212220045300,2.18404541015625,-0.5479797720909119,0.37494030594825745,-4.055850505828857
1772556212229976300,2.193976318359375,-0.52894526720047,1.1508958339691162,-4.791446208953857
1772556212239907300,2.2039072265625,-0.5591002702713013,1.8313050270080566,-5.510809898376465
1772556212249838300,2.21383837890625,-0.5999194979667664,2.2977426052093506,-6.238099575042725
1772556212259769000,2.22376904296875,-0.7278364300727844,2.4721271991729736,-6.927812576293945
1772556212269700400,2.233700439453125,-0.955511212348938,2.4717154502868652,-7.552361965179443
1772556212279631400,2.24363134765625,-1.251544713973999,2.4350833892822266,-8.050167083740234
1772556212289562000,2.25356201171875,-1.576927661895752,2.4630980491638184,-8.3961820602417
1772556212299493400,2.263493408203125,-1.859574794769287,2.562868595123291,-8.542805671691895
1772556212309424400,2.27342431640625,-1.9822981357574463,2.538057565689087,-8.263358116149902
1772556212319355100,2.283355224609375,-1.894442081451416,2.3951218128204346,-7.53029727935791
1772556212329287200,2.293287109375,-1.64224112033844,2.0154917240142822,-6.506564617156982
1772556212339218400,2.303218505859375,-1.283876657485962,1.4355827569961548,-5.423672199249268
1772556212349149200,2.313149169921875,-0.8440456986427307,0.7285837531089783,-4.5512003898620605
1772556212359080200,2.323080078125,-0.4034419655799866,0.03245050832629204,-3.9462337493896484
1772556212369011500,2.333011474609375,-0.036406658589839935,-0.490129292011261,-3.571850538253784
1772556212378942200,2.342942138671875,0.33147895336151123,-0.788783073425293,-3.3438425064086914
1772556212388873200,2.352873291015625,0.8212494254112244,-0.8967018127441406,-3.138998508453369
1772556212398804200,2.36280419921875,1.3978219032287598,-0.9227400422096252,-2.7576770782470703
1772556212408735200,2.3727353515625,1.9929255247116089,-0.8593159317970276,-2.1128270626068115
1772556212418666200,2.382666259765625,2.5266759395599365,-0.6613383889198303,-1.2668921947479248
1772556212428597200,2.39259716796875,3.014864206314087,-0.3935033082962036,-0.4375958740711212
1772556212438528300,2.4025283203125,3.3882102966308594,-0.12844127416610718,0.2683045268058777
1772556212448459300,2.412459228515625,3.5880794525146484,-0.05824637785553932,0.8514156341552734
1772556212458390300,2.422390380859375,3.6267685890197754,-0.3348337411880493,1.3619990348815918
1772556212468322300,2.432322265625,3.598724365234375,-0.8839825391769409,1.8319039344787598
1772556212478253300,2.44225341796875,3.5019075870513916,-1.4256681203842163,2.282255172729492
1772556212488184300,2.452184326171875,3.3611176013946533,-1.805942177772522,2.692060947418213
1772556212498115300,2.462115234375,3.246563196182251,-1.9632426500320435,3.086603879928589
1772556212508046300,2.47204638671875,3.113327980041504,-1.98634934425354,3.6325745582580566
1772556212517977300,2.481977294921875,2.9600276947021484,-1.9479708671569824,4.331449508666992
1772556212527908400,2.491908447265625,2.7391116619110107,-1.922082781791687,5.037680625915527
1772556212537839400,2.50183935546875,2.445864200592041,-2.0010576248168945,5.64302921295166
1772556212547771100,2.511771240234375,2.1501636505126953,-2.103264331817627,6.087602615356445
1772556212557702400,2.521702392578125,1.934417486190796,-2.1012516021728516,6.3743157386779785
1772556212567633400,2.53163330078125,1.80120849609375,-2.1099655628204346,6.627156734466553
1772556212577564200,2.541564208984375,1.6414433717727661,-2.075490713119507,6.795960903167725
1772556212587495400,2.551495361328125,1.3515704870224,-1.973246455192566,6.8254265785217285
1772556212597426400,2.561426513671875,0.8964099884033203,-1.8661359548568726,6.765238285064697
1772556212607357200,2.571357177734375,0.46552595496177673,-1.6326452493667603,6.568312168121338
1772556212617288400,2.581288330078125,0.1343728005886078,-1.2698949575424194,6.092581272125244
1772556212627219200,2.59121923828125,-0.1604979783296585,-1.069377064704895,5.260655879974365
1772556212637150200,2.601150146484375,-0.5465998649597168,-1.1133993864059448,4.193929195404053
1772556212647081500,2.61108154296875,-0.9726584553718567,-1.224838137626648,2.962423801422119
1772556212657012200,2.62101220703125,-1.3666969537734985,-1.152292251586914,1.666917085647583
1772556212666943200,2.630943115234375,-1.713209867477417,-0.8931637406349182,0.5040837526321411
1772556212676874500,2.64087451171875,-1.9776968955993652,-0.5215275883674622,-0.4490498900413513
1772556212686805200,2.65080517578125,-2.1559669971466064,-0.15575501322746277,-1.2191603183746338
1772556212696736300,2.660736328125,-2.286139726638794,0.11304795742034912,-1.9263699054718018
1772556212706667300,2.670667236328125,-2.408233642578125,0.3789408206939697,-2.625526189804077
1772556212716598300,2.680598388671875,-2.5310380458831787,0.5977434515953064,-3.300196886062622
1772556212726529300,2.690529296875,-2.6789848804473877,0.7045598030090332,-3.9206125736236572
1772556212736460300,2.700460205078125,-2.8232221603393555,0.6949151754379272,-4.497859001159668
1772556212746391300,2.710391357421875,-2.9502944946289062,0.5631935000419617,-5.020156383514404
1772556212756323300,2.7203232421875,-2.9781436920166016,0.42125946283340454,-5.4425435066223145
1772556212766254000,2.730254150390625,-2.871197462081909,0.2921520471572876,-5.676546096801758
1772556212776185300,2.740185302734375,-2.610846996307373,0.18372784554958344,-5.724067211151123
1772556212786116400,2.750116455078125,-2.1662704944610596,0.15585124492645264,-5.655281066894531
1772556212796047000,2.760047119140625,-1.6938470602035522,0.18546639382839203,-5.346433639526367
1772556212805978400,2.769978271484375,-1.3495073318481445,0.2812567353248596,-4.755292892456055
1772556212815909400,2.779909423828125,-1.0851601362228394,0.44710642099380493,-3.9541900157928467
1772556212825840000,2.789840087890625,-0.7889837622642517,0.6833102107048035,-3.0805599689483643
1772556212835771400,2.799771484375,-0.3889426589012146,1.0009711980819702,-2.2929022312164307
1772556212845702400,2.809702392578125,0.14512339234352112,1.246273159980774,-1.7495090961456299
1772556212855633200,2.819633056640625,0.7984367609024048,1.3810794353485107,-1.5444211959838867
1772556212865564400,2.829564453125,1.3982497453689575,1.4017118215560913,-1.5818299055099487
1772556212875495200,2.8394951171875,1.8379658460617065,1.3447513580322266,-1.7054988145828247
1772556212885426200,2.84942626953125,2.18267822265625,1.3204923868179321,-1.8599027395248413
1772556212895357400,2.859357421875,2.4425108432769775,1.4246782064437866,-2.0221478939056396
1772556212905288200,2.8692880859375,2.6561896800994873,1.563069224357605,-2.229654312133789
1772556212915219200,2.87921923828125,2.967970132827759,1.555838942527771,-2.4313735961914062
1772556212925150500,2.889150390625,3.479773998260498,1.3303048610687256,-2.5714690685272217
1772556212935081200,2.899081298828125,4.131811141967773,0.9481329321861267,-2.5706632137298584
1772556212945012200,2.90901220703125,4.653987407684326,0.667517900466919,-2.25654935836792
1772556212954944300,2.9189443359375,4.905541896820068,0.5726867318153381,-1.641521692276001
1772556212964875300,2.928875244140625,4.927799224853516,0.6068330407142639,-0.7976186871528625
1772556212974806300,2.93880615234375,4.84790563583374,0.6418421864509583,0.13009536266326904
1772556212984737300,2.9487373046875,4.719583988189697,0.5784556269645691,0.9370359182357788
1772556212994668300,2.958668212890625,4.576997756958008,0.2425367534160614,1.705850601196289
1772556213004599300,2.968599365234375,4.357038497924805,-0.217230886220932,2.553924798965454
1772556213014530300,2.9785302734375,4.027797698974609,-0.5474786162376404,3.442997694015503
1772556213024461300,2.98846142578125,3.627181053161621,-0.7032469511032104,4.271833419799805
1772556213034392300,2.998392333984375,3.197181463241577,-0.8149497509002686,4.8973307609558105
1772556213044323300,3.0083232421875,2.824988842010498,-0.8671773076057434,5.2355637550354
1772556213054254300,3.01825439453125,2.4930875301361084,-0.7447727918624878,5.355903148651123
1772556213064185300,3.028185302734375,2.1399810314178467,-0.44638511538505554,5.371763706207275
1772556213074116400,3.038116455078125,1.8151627779006958,-0.027175884693861008,5.390615940093994
1772556213084047400,3.04804736328125,1.578894853591919,0.3121550977230072,5.429325103759766
1772556213093978400,3.057978271484375,1.3665024042129517,0.16851750016212463,5.3592658042907715
1772556213103909400,3.067909423828125,1.1112751960754395,-0.557813286781311,4.951632499694824
1772556213113840400,3.07784033203125,0.8175274729728699,-1.519116759300232,4.226880073547363
1772556213123771100,3.087771240234375,0.4746473431587219,-2.4302690029144287,3.450591802597046
1772556213133702400,3.097702392578125,0.10926030576229095,-3.2057013511657715,2.8058671951293945
1772556213143633400,3.10763330078125,-0.26114514470100403,-3.6302037239074707,2.30071759223938
1772556213153564200,3.117564208984375,-0.5840219855308533,-3.444833278656006,1.9277924299240112
1772556213163496200,3.12749609375,-0.8387256860733032,-2.686607599258423,1.5642054080963135
1772556213173427500,3.137427490234375,-1.025720477104187,-1.8536770343780518,1.1255664825439453
1772556213183358200,3.147358154296875,-1.2057557106018066,-1.455702781677246,0.5930008292198181
1772556213193289200,3.157289306640625,-1.4237124919891357,-1.5226666927337646,-0.007210111245512962
1772556213203220500,3.167220458984375,-1.6638838052749634,-1.7358812093734741,-0.6591284275054932
1772556213213151200,3.177151123046875,-1.9117625951766968,-1.8650949001312256,-1.3212640285491943
1772556213223082200,3.187082275390625,-2.119602918624878,-1.8750925064086914,-1.9385987520217896
1772556213233013500,3.197013427734375,-2.2733724117279053,-1.805870532989502,-2.56455659866333
1772556213242944300,3.2069443359375,-2.3234047889709473,-1.7971971035003662,-3.2724905014038086
1772556213252875300,3.216875244140625,-2.2397003173828125,-1.8607107400894165,-4.055418968200684
1772556213262806500,3.226806640625,-2.0302133560180664,-1.9157052040100098,-4.771203517913818
1772556213272737300,3.2367373046875,-1.7421913146972656,-1.9374147653579712,-5.242462158203125
1772556213282668300,3.246668212890625,-1.4628794193267822,-2.0154454708099365,-5.343922138214111
1772556213292599300,3.256599365234375,-1.1855477094650269,-2.0981194972991943,-5.095638751983643
1772556213302530300,3.2665302734375,-0.8305959105491638,-1.9677934646606445,-4.575923442840576
1772556213312461300,3.27646142578125,-0.4047413170337677,-1.5923436880111694,-3.8540232181549072
1772556213322392300,3.286392333984375,0.06799420714378357,-1.1905937194824219,-3.021915912628174
1772556213332323300,3.2963232421875,0.5204868316650391,-0.8261669874191284,-2.2050135135650635
1772556213342254300,3.30625439453125,0.888471782207489,-0.47000014781951904,-1.3933367729187012
1772556213352186000,3.31618603515625,1.1906836032867432,-0.1319134384393692,-0.5755010843276978
1772556213362117400,3.326117431640625,1.4176955223083496,0.1052587628364563,0.2655654847621918
1772556213372048400,3.33604833984375,1.5538322925567627,0.1338118463754654,1.0761710405349731
1772556213381979100,3.345979248046875,1.5957196950912476,0.013430330902338028,1.7005815505981445
1772556213391910400,3.355910400390625,1.59554922580719,-0.23847249150276184,1.9815874099731445
1772556213401841400,3.36584130859375,1.531650185585022,-0.5983315110206604,1.8935606479644775
1772556213411772200,3.375772216796875,1.4393147230148315,-0.9121813178062439,1.5422042608261108
1772556213421703400,3.385703369140625,1.4034874439239502,-1.0817874670028687,1.100607991218567
1772556213431634200,3.39563427734375,1.393858790397644,-1.0330144166946411,0.6210730075836182
1772556213441565200,3.405565185546875,1.3346662521362305,-0.8152111172676086,0.07189774513244629
1772556213451496400,3.415496337890625,1.2452013492584229,-0.7359219193458557,-0.4841471016407013
1772556213461427200,3.42542724609375,1.1311286687850952,-0.8726447224617004,-0.9241431951522827
1772556213471357700,3.435357666015625,1.0881026983261108,-1.0116856098175049,-1.1397136449813843
1772556213481289000,3.4452890625,1.0337755680084229,-0.943183958530426,-1.1649584770202637
1772556213491219700,3.4552197265625,0.8425770998001099,-0.6820644736289978,-1.018024206161499
1772556213501150700,3.465150634765625,0.49031180143356323,-0.4006103575229645,-0.6165781021118164
1772556213511082000,3.47508203125,0.06586463749408722,-0.09541771560907364,-0.05083748698234558
1772556213521012700,3.4850126953125,-0.30326658487319946,0.14101125299930573,0.48723170161247253
1772556213530943700,3.49494384765625,-0.5507658123970032,0.13712170720100403,0.9208172559738159
1772556213540876000,3.5048759765625,-0.6964128017425537,-0.03212336450815201,1.165114164352417
1772556213550806800,3.514806884765625,-0.7738072276115417,-0.28062903881073,1.2968424558639526
1772556213560737800,3.52473779296875,-0.8718669414520264,-0.5421527028083801,1.4307873249053955
1772556213570669000,3.5346689453125,-1.0062522888183594,-0.7794445753097534,1.652143955230713
1772556213580599800,3.544599853515625,-1.1664882898330688,-0.9395378232002258,2.0153446197509766
1772556213590530800,3.55453076171875,-1.3166040182113647,-0.98164963722229,2.515096426010132
1772556213600462000,3.564462158203125,-1.383639931678772,-0.865341305732727,3.084930181503296
1772556213610392800,3.574392822265625,-1.3356313705444336,-0.6404996514320374,3.6612327098846436
1772556213620323800,3.58432373046875,-1.1759229898452759,-0.40240228176116943,4.128352642059326
1772556213630254800,3.5942548828125,-0.9065759181976318,-0.23629403114318848,4.388226509094238
1772556213640185900,3.604185791015625,-0.6436228156089783,-0.19531305134296417,4.403805732727051
1772556213650116900,3.614116943359375,-0.5328084230422974,-0.33090072870254517,4.243007183074951
1772556213660048000,3.6240478515625,-0.6188106536865234,-0.5813254117965698,3.9649128913879395
1772556213669979000,3.633978759765625,-0.855256199836731,-0.8555694818496704,3.6251602172851562
1772556213679910000,3.643909912109375,-1.1493850946426392,-1.1467009782791138,3.2843611240386963
1772556213689841000,3.6538408203125,-1.394469141960144,-1.4362730979919434,2.979062080383301
1772556213699772000,3.66377197265625,-1.567579984664917,-1.5984655618667603,2.8234410285949707
1772556213709702700,3.67370263671875,-1.5754528045654297,-1.5515419244766235,2.660266876220703
1772556213719634000,3.683634033203125,-1.4882380962371826,-1.2959306240081787,2.373382329940796
1772556213729566000,3.69356591796875,-1.2362937927246094,-0.9836446046829224,1.9685176610946655
1772556213739497000,3.7034970703125,-0.9022714495658875,-0.7043079733848572,1.3473479747772217
1772556213749427700,3.713427734375,-0.5478315949440002,-0.5500268340110779,0.49917566776275635
1772556213759359000,3.72335888671875,-0.3140965402126312,-0.5052955150604248,-0.4527866244316101
1772556213769289700,3.733289794921875,-0.284228652715683,-0.616168737411499,-1.3343279361724854
1772556213779220700,3.743220703125,-0.4858528673648834,-0.9907957315444946,-1.9667807817459106
1772556213789152000,3.753152099609375,-0.8088868856430054,-1.3967677354812622,-2.4167184829711914
1772556213799082800,3.763082763671875,-1.0400171279907227,-1.4613127708435059,-2.7686381340026855
1772556213809013800,3.773013671875,-1.0305391550064087,-0.979394793510437,-3.035000801086426
1772556213818945000,3.782945068359375,-0.7931117415428162,-0.08304649591445923,-3.149862766265869
1772556213828875800,3.792875732421875,-0.5057893991470337,0.8657203316688538,-3.113318681716919
1772556213838806800,3.802806884765625,-0.3317001461982727,1.6351767778396606,-2.9619178771972656
1772556213848738000,3.812738037109375,-0.32216283679008484,2.0347678661346436,-2.746652603149414
1772556213858668800,3.822668701171875,-0.39775097370147705,2.1142539978027344,-2.508457899093628
1772556213868599800,3.832599853515625,-0.46005910634994507,2.114182472229004,-2.335707426071167
1772556213878530800,3.84253076171875,-0.4861067533493042,2.228412628173828,-2.2559139728546143
1772556213888461800,3.8524619140625,-0.4382319152355194,2.6019883155822754,-2.358074188232422
1772556213898392800,3.862392822265625,-0.3149819076061249,3.1515462398529053,-2.6453142166137695
1772556213908324900,3.872324951171875,-0.07312293350696564,3.343832015991211,-2.832145929336548
1772556213918255900,3.882255859375,0.17396461963653564,2.812527894973755,-2.6396126747131348
1772556213928187000,3.892186767578125,0.4544881582260132,1.835158109664917,-2.338865041732788
1772556213938117600,3.90211767578125,0.7219071984291077,1.1662393808364868,-2.3076531887054443
1772556213948049000,3.912048828125,0.7335694432258606,0.6920348405838013,-2.3116891384124756
1772556213957980000,3.92197998046875,0.45880648493766785,-0.006557171232998371,-1.8744696378707886
1772556213967910700,3.93191064453125,0.10796350240707397,-0.4408170282840729,-0.8850456476211548
1772556213977842000,3.941842041015625,-0.23694069683551788,-0.35038620233535767,0.4711681306362152
1772556213987773000,3.95177294921875,-0.4563095271587372,-0.04562923312187195,1.8348101377487183
1772556213997703700,3.96170361328125,-0.5127450227737427,0.07870679348707199,2.990168571472168
1772556214007635000,3.971635009765625,-0.43871310353279114,-0.017856229096651077,3.773266077041626
1772556214017565700,3.981565673828125,-0.3135905861854553,-0.27705222368240356,4.053308486938477
1772556214027496700,3.99149658203125,-0.24534738063812256,-0.6155698895454407,3.9283652305603027
1772556214037428000,4.001427978515625,-0.23421704769134521,-0.888355016708374,3.5755209922790527
1772556214047358700,4.011358642578125,-0.22503262758255005,-1.0716787576675415,3.2151377201080322
1772556214057289700,4.021289794921875,-0.20049168169498444,-1.2510911226272583,3.063382625579834
1772556214067221000,4.031220947265625,-0.1627941131591797,-1.461890459060669,3.105088710784912
1772556214077151700,4.04115185546875,-0.13092389702796936,-1.6302082538604736,3.1879615783691406
1772556214087083800,4.051083740234375,-0.09722132980823517,-1.7584418058395386,3.2684695720672607
1772556214097014800,4.061014892578125,-0.04969770088791847,-1.820733666419983,3.308683395385742
1772556214106945800,4.07094580078125,-0.019556045532226562,-1.8047258853912354,3.230717420578003
1772556214116876800,4.080876708984375,-0.01694640889763832,-1.6769129037857056,2.985720634460449
1772556214126807800,4.090807861328125,-0.0710463896393776,-1.5591071844100952,2.6644318103790283
1772556214136738800,4.10073876953125,-0.15763378143310547,-1.513036847114563,2.2469613552093506
1772556214146669800,4.110669921875,-0.22816254198551178,-1.5185424089431763,1.708853006362915
1772556214156600800,4.120600830078125,-0.25111204385757446,-1.504004716873169,1.0862517356872559
1772556214166531800,4.13053173828125,-0.20213893055915833,-1.4627166986465454,0.42580193281173706
1772556214176462800,4.140462890625,-0.15525396168231964,-1.3474812507629395,-0.23426102101802826
1772556214186393900,4.150393798828125,-0.11344100534915924,-1.1556098461151123,-0.8787310719490051
1772556214196324900,4.160324951171875,-0.06293059140443802,-0.880507230758667,-1.4911317825317383
1772556214206255900,4.170255859375,-0.01763474941253662,-0.5260764956474304,-2.0461878776550293
1772556214216187000,4.180186767578125,0.06283999979496002,-0.07762914150953293,-2.5825817584991455
1772556214226118000,4.190117919921875,0.09746456146240234,0.40233850479125977,-3.14038348197937
1772556214236049000,4.200048828125,0.05030164495110512,0.8116446733474731,-3.6808767318725586
1772556214245980000,4.20997998046875,-0.07521926611661911,1.1857050657272339,-4.310600280761719
1772556214255911000,4.219910888671875,-0.23223230242729187,1.4897854328155518,-5.077505111694336
1772556214265843000,4.229843017578125,-0.36802929639816284,1.7007948160171509,-5.884809970855713
1772556214275773700,4.239773681640625,-0.5190897583961487,1.9395201206207275,-6.633573532104492
1772556214285705000,4.249705078125,-0.7477580904960632,2.2762439250946045,-7.23598051071167
1772556214295636000,4.259635986328125,-1.0083205699920654,2.56219482421875,-7.623993396759033
1772556214305566700,4.269566650390625,-1.4310222864151,2.6133971214294434,-7.756218910217285
1772556214315498000,4.279498046875,-2.010566234588623,2.378201484680176,-7.600085735321045
1772556214325428700,4.2894287109375,-2.4281609058380127,1.9634785652160645,-7.100468635559082
1772556214335359700,4.29935986328125,-2.574296474456787,1.6302170753479004,-6.155330181121826
1772556214345291000,4.309291015625,-2.5318105220794678,1.4074902534484863,-4.717358589172363
1772556214355221800,4.3192216796875,-2.304711103439331,1.417089819908142,-3.1536269187927246
1772556214365152800,4.32915283203125,-2.1122500896453857,1.8045415878295898,-1.9079114198684692
1772556214375084000,4.339083984375,-2.1460351943969727,2.4143669605255127,-1.3107796907424927
1772556214385014800,4.349014892578125,-2.4407360553741455,2.997454881668091,-1.4787732362747192
1772556214394945800,4.35894580078125,-2.9758589267730713,3.3778164386749268,-2.1578891277313232
1772556214404877000,4.368876953125,-3.4902267456054688,3.3543496131896973,-2.893238067626953
1772556214414807800,4.378807861328125,-3.6122939586639404,2.6790034770965576,-3.1810669898986816
1772556214424738800,4.38873876953125,-3.023219108581543,1.0604588985443115,-2.585024356842041
1772556214434670800,4.3986708984375,-1.8986438512802124,-0.9508946537971497,-1.2533221244812012
1772556214444601900,4.408601806640625,-0.9559017419815063,-2.0060441493988037,0.1739388406276703
1772556214454532900,4.418532958984375,-0.3268510401248932,-1.7588725090026855,1.2143009901046753
1772556214464463400,4.42846337890625,0.12575635313987732,-0.7921733260154724,2.0113511085510254
1772556214474394600,4.43839453125,0.7765893340110779,0.1900402307510376,2.7734365463256836
1772556214484325600,4.44832568359375,1.6667039394378662,0.774671733379364,3.51236629486084
1772556214494256400,4.45825634765625,2.638782262802124,0.719948947429657,4.19730281829834
1772556214504187600,4.468187744140625,3.440234422683716,0.3524194359779358,4.6047468185424805
1772556214514118400,4.478118408203125,3.9724178314208984,-0.17010721564292908,4.666018486022949
1772556214524049400,4.48804931640625,4.185928821563721,-0.9438055753707886,4.67071008682251
1772556214533980700,4.497980712890625,4.185039520263672,-1.850351333618164,4.812869071960449
1772556214543911400,4.507911376953125,4.032589435577393,-2.674931287765503,5.117239952087402
1772556214553842400,4.517842529296875,3.7225141525268555,-3.255312919616699,5.570501327514648
1772556214563773700,4.527773681640625,3.3305482864379883,-3.611469030380249,6.198846817016602
1772556214573704400,4.537704345703125,2.949381113052368,-3.688117265701294,6.874747276306152
1772556214583635500,4.547635498046875,2.6230595111846924,-3.3675358295440674,7.431571006774902
1772556214593566700,4.557566650390625,2.485110282897949,-2.7962207794189453,7.892155647277832
1772556214603497500,4.56749755859375,2.560830593109131,-2.2203056812286377,8.3389310836792
1772556214613429500,4.577429443359375,2.705230236053467,-1.8545492887496948,8.712995529174805
1772556214623360500,4.587360595703125,2.6861186027526855,-1.7682404518127441,8.773154258728027
1772556214633291500,4.59729150390625,2.5284788608551025,-2.0516462326049805,8.22105884552002
1772556214643222500,4.607222412109375,2.3046557903289795,-2.803516149520874,7.08821439743042
1772556214653153500,4.617153564453125,1.858384370803833,-3.7731175422668457,5.638125419616699
1772556214663084500,4.62708447265625,1.274770975112915,-4.33091402053833,4.093396186828613
1772556214673015600,4.637015625,0.848151445388794,-4.322040557861328,2.6220333576202393
1772556214682946600,4.646946533203125,0.5144778490066528,-3.755202531814575,1.4342604875564575
1772556214692877600,4.656877685546875,0.20869852602481842,-2.7225027084350586,0.1724518984556198
1772556214702808600,4.66680859375,-0.25449734926223755,-1.456542730331421,-1.186187505722046
1772556214712739600,4.676739501953125,-0.688955545425415,-0.10847479104995728,-2.688046932220459
1772556214722670600,4.686670654296875,-1.0371183156967163,1.1500688791275024,-4.311256408691406
1772556214732601600,4.6966015625,-1.291214942932129,2.230407476425171,-5.86370325088501
1772556214742532600,4.70653271484375,-1.5725270509719849,3.0807697772979736,-6.960994243621826
1772556214752463600,4.716463623046875,-1.9398094415664673,3.109619140625,-7.595827102661133
1772556214762394600,4.72639453125,-2.2952980995178223,3.029280185699463,-8.236746788024902
1772556214772325600,4.73632568359375,-2.6715025901794434,2.9656760692596436,-8.97378158569336
1772556214782257700,4.746257568359375,-3.041203498840332,3.0816807746887207,-9.70383071899414
1772556214792188700,4.756188720703125,-3.4415676593780518,3.282055377960205,-10.374070167541504
1772556214802119400,4.766119384765625,-3.896085262298584,3.6783320903778076,-11.239625930786133
1772556214812050700,4.77605078125,-4.359629154205322,4.4536452293396,-11.989408493041992
1772556214821981700,4.785981689453125,-4.579383850097656,5.0193772315979,-12.193475723266602
1772556214831912400,4.795912353515625,-4.627605438232422,5.919356346130371,-11.705512046813965
1772556214841843700,4.80584375,-4.426706314086914,6.454747200012207,-10.193215370178223
1772556214851774500,4.8157744140625,-3.6416006088256836,5.775839328765869,-7.537472248077393
1772556214861705500,4.82570556640625,-2.439387083053589,4.166965484619141,-4.540606498718262
1772556214871636700,4.83563671875,-1.3330415487289429,2.4591054916381836,-2.601922035217285
1772556214881567500,4.8455673828125,-0.7452578544616699,0.9334388375282288,-1.829060435295105
1772556214891498500,4.85549853515625,-0.5299135446548462,-0.20583616197109222,-1.5307179689407349
1772556214901429800,4.8654296875,-0.2197285294532776,-0.9231263995170593,-1.0097591876983643
1772556214911360500,4.875360595703125,0.30997976660728455,-1.1466902494430542,0.047112930566072464
1772556214921291500,4.88529150390625,0.8733187317848206,-0.9516329169273376,1.5241360664367676
1772556214931222500,4.895222412109375,1.4047940969467163,-0.45307210087776184,3.021784543991089
1772556214941153500,4.905153564453125,1.963561773300171,0.031168613582849503,4.1334357261657715
1772556214951084500,4.91508447265625,2.483142137527466,0.3244662880897522,4.743569850921631
1772556214961016600,4.9250166015625,2.8816795349121094,0.09611514210700989,5.0965256690979
1772556214970947600,4.934947509765625,3.099388599395752,-0.5823980569839478,5.2874555587768555
1772556214980878600,4.944878662109375,3.2015082836151123,-1.2956626415252686,5.218433856964111
1772556214990809300,4.954809326171875,3.2225849628448486,-1.7854009866714478,4.985078811645508
1772556215000740600,4.96474072265625,3.1996560096740723,-2.1275768280029297,4.814058303833008
1772556215010671600,4.974671630859375,3.1375083923339844,-2.4056050777435303,4.7649970054626465
1772556215020602400,4.984602294921875,2.94581937789917,-2.5093626976013184,4.739686489105225
1772556215030533600,4.99453369140625,2.688915491104126,-2.404205799102783,4.759791851043701
1772556215040464600,5.004464599609375,2.510134696960449,-2.1186704635620117,4.866089820861816
1772556215050395400,5.0143955078125,2.5425961017608643,-1.6482094526290894,5.09664249420166
1772556215060326700,5.02432666015625,2.8075966835021973,-1.0587042570114136,5.5409321784973145
1772556215070257700,5.034257568359375,3.1551082134246826,-0.5049453973770142,6.143335819244385
1772556215080188400,5.0441884765625,3.4528183937072754,-0.14784269034862518,6.555898666381836
1772556215090119700,5.05411962890625,3.6925783157348633,-0.4615270793437958,6.556618690490723
1772556215100050400,5.064050537109375,3.820406198501587,-1.5322089195251465,6.113132953643799
1772556215109981400,5.0739814453125,3.717043876647949,-2.854801654815674,5.200916290283203
1772556215119913500,5.08391357421875,3.4340217113494873,-3.942413806915283,3.897444486618042
1772556215129844700,5.0938447265625,3.009152889251709,-4.600515365600586,2.5792438983917236
1772556215139775500,5.103775390625,2.447864055633545,-4.86810302734375,1.4693489074707031
1772556215149706500,5.11370654296875,1.8576991558074951,-4.68471622467041,0.5744654536247253
1772556215159637500,5.123637451171875,1.2877191305160522,-3.9467780590057373,-0.18435519933700562
1772556215169568500,5.133568603515625,0.6487730741500854,-2.7086374759674072,-0.930046796798706
1772556215179499500,5.14349951171875,-0.06723564863204956,-1.0320358276367188,-1.8738518953323364
1772556215189430500,5.153430419921875,-0.6430912613868713,0.66056889295578,-2.983438014984131
1772556215199361500,5.163361572265625,-0.9826017022132874,2.137805938720703,-4.1478424072265625
1772556215209292500,5.17329248046875,-1.1841012239456177,3.285797357559204,-5.207377910614014
1772556215219223600,5.1832236328125,-1.4857388734817505,3.913546562194824,-5.890818119049072
1772556215229154600,5.193154541015625,-1.811972975730896,4.078490257263184,-6.400601863861084
1772556215239085300,5.203085205078125,-2.108597993850708,4.22451639175415,-6.912832736968994
1772556215249016600,5.2130166015625,-2.3688158988952637,4.315278053283691,-7.373528480529785
1772556215258947600,5.222947509765625,-2.537487030029297,4.436212539672852,-7.9122314453125
1772556215268878300,5.23287841796875,-2.6110520362854004,4.750370025634766,-8.60781478881836
1772556215278810600,5.242810546875,-2.7892513275146484,5.311026573181152,-9.339715957641602
1772556215288741600,5.25274169921875,-3.102138042449951,5.602614402770996,-9.899518013000488
1772556215298672400,5.26267236328125,-3.4479260444641113,5.731901168823242,-10.221963882446289
1772556215308603600,5.272603759765625,-3.7806575298309326,5.65769100189209,-10.010274887084961
1772556215318534700,5.28253466796875,-3.8386635780334473,4.9944891929626465,-9.0122652053833
1772556215328465400,5.29246533203125,-3.3708372116088867,3.6687254905700684,-7.440880298614502
1772556215338396700,5.302396728515625,-2.350954055786133,1.7590776681900024,-5.6407551765441895
1772556215348327700,5.31232763671875,-1.1236457824707031,-0.45597395300865173,-4.163200378417969
1772556215358258400,5.322258544921875,-0.14217986166477203,-2.0924551486968994,-3.3220643997192383
1772556215368189700,5.332189697265625,0.48103171586990356,-2.519533395767212,-2.9750113487243652
1772556215378120700,5.34212060546875,0.9471219182014465,-1.9673395156860352,-2.7666757106781006
1772556215388051500,5.352051513671875,1.3774865865707397,-1.0708047151565552,-2.2917795181274414
1772556215397982700,5.361982666015625,1.655116319656372,-0.5266204476356506,-1.2981935739517212
1772556215407913500,5.37191357421875,1.6903140544891357,-0.19891442358493805,0.07685018330812454
1772556215417844500,5.381844482421875,1.567813754081726,0.04822373390197754,1.4788966178894043
1772556215427775700,5.391775634765625,1.5522664785385132,-0.005599852651357651,2.6293258666992188
1772556215437706500,5.40170654296875,1.8433501720428467,-0.23312382400035858,3.1816959381103516
1772556215447638500,5.411638427734375,2.307208299636841,-0.5590559840202332,3.3118364810943604
1772556215457569500,5.421569580078125,2.8135061264038086,-1.1066687107086182,3.3599398136138916
1772556215467500800,5.431500732421875,3.252070188522339,-1.6703251600265503,3.474250555038452
1772556215477432000,5.44143212890625,3.4717228412628174,-2.026346206665039,3.7379531860351562
1772556215487362800,5.45136279296875,3.3955495357513428,-2.2145273685455322,4.170827865600586
1772556215497293800,5.4612939453125,3.066236734390259,-2.3576724529266357,4.701623439788818
1772556215507225000,5.47122509765625,2.61578106880188,-2.545427083969116,5.274491310119629
1772556215517155800,5.48115576171875,2.182896614074707,-2.8749749660491943,5.8175787925720215
1772556215527086800,5.4910869140625,1.8683960437774658,-3.2826340198516846,6.276467800140381
1772556215537017900,5.501017822265625,1.7337570190429688,-3.59344744682312,6.668892860412598
1772556215546948900,5.510948974609375,1.8173633813858032,-3.6117312908172607,7.023968696594238
1772556215556880000,5.5208798828125,2.149277687072754,-3.2476131916046143,7.384610176086426
1772556215566811000,5.530810791015625,2.74798846244812,-2.626612663269043,7.8076982498168945
1772556215576742000,5.540741943359375,3.4871954917907715,-2.0385379791259766,8.224967956542969
1772556215586673000,5.5506728515625,3.983391523361206,-1.7819342613220215,8.457118034362793
1772556215596604000,5.56060400390625,3.877215623855591,-1.8618773221969604,8.347807884216309
1772556215606536000,5.570535888671875,2.983565330505371,-1.9371225833892822,7.623202800750732
1772556215616467000,5.580467041015625,1.682428240776062,-1.6579461097717285,6.185656547546387
1772556215626398000,5.59039794921875,0.4605242908000946,-1.2089452743530273,4.4590044021606445
1772556215636329000,5.600328857421875,-0.471188485622406,-1.0993216037750244,3.0379114151000977
1772556215646260000,5.610260009765625,-0.8622813820838928,-1.3302268981933594,1.6477152109146118
1772556215656191000,5.62019091796875,-1.0518825054168701,-1.3813226222991943,0.04218664392828941
1772556215666122000,5.6301220703125,-1.0593280792236328,-1.3046308755874634,-1.3549256324768066
1772556215676052700,5.640052734375,-0.9128721356391907,-0.7956174612045288,-2.5844602584838867
1772556215685984000,5.64998388671875,-0.7636976838111877,-0.010940084233880043,-3.6720399856567383
1772556215695915000,5.6599150390625,-0.7242450714111328,0.7019583582878113,-4.6057024002075195
1772556215705845800,5.669845703125,-0.8124762773513794,1.2461646795272827,-5.477067470550537
1772556215715777000,5.679777099609375,-1.0302467346191406,1.7621006965637207,-6.200052738189697
1772556215725708000,5.6897080078125,-1.4385037422180176,1.672431230545044,-6.61152982711792
1772556215735638800,5.699638671875,-1.809827446937561,1.4918667078018188,-7.084235668182373
1772556215745570000,5.709570068359375,-2.15061616897583,1.5752311944961548,-7.643939971923828
1772556215755501000,5.7195009765625,-2.406773567199707,1.8587031364440918,-7.978981018066406
1772556215765432800,5.729432861328125,-2.6636087894439697,2.200373411178589,-8.0026273727417
1772556215775363800,5.73936376953125,-2.937145233154297,2.6028854846954346,-7.938354969024658
1772556215785295000,5.749295166015625,-3.1395435333251953,3.0119335651397705,-7.719287872314453
1772556215795225900,5.759225830078125,-3.125148296356201,3.1007819175720215,-6.964011192321777
1772556215805156900,5.769156982421875,-2.856109142303467,2.9648277759552,-5.652525424957275
1772556215815088000,5.779088134765625,-2.4127259254455566,2.6171090602874756,-3.9356563091278076
1772556215825019000,5.789018798828125,-1.9027272462844849,1.8883954286575317,-2.1117663383483887
1772556215834950000,5.798949951171875,-1.3936687707901,1.1145682334899902,-0.7929787039756775
1772556215844881000,5.808880859375,-0.7969887852668762,0.590060293674469,-0.46121934056282043
1772556215854812000,5.81881201171875,-0.23942351341247559,0.1379551738500595,-0.9227318167686462
1772556215864743000,5.828742919921875,-0.0038242049049586058,-0.4438604414463043,-1.410789966583252
1772556215874674000,5.838673828125,-0.10726884007453918,-1.2659714221954346,-1.1717287302017212
1772556215884605000,5.84860498046875,-0.3343115746974945,-1.8715288639068604,-0.22264088690280914
1772556215894536000,5.858535888671875,-0.39616963267326355,-2.1672754287719727,1.1332207918167114
1772556215904467000,5.868467041015625,-0.11038801074028015,-2.061356782913208,2.673377752304077
1772556215914398000,5.87839794921875,0.3513157069683075,-1.6870132684707642,4.052104949951172
1772556215924330000,5.888330078125,0.8096552491188049,-1.2767925262451172,4.84706974029541
1772556215934260700,5.8982607421875,1.0623606443405151,-1.1138155460357666,5.122724533081055
1772556215944192000,5.90819189453125,0.9705795049667358,-1.3678117990493774,5.216709613800049
1772556215954123000,5.918123046875,0.6758295893669128,-1.918957233428955,5.254357814788818
1772556215964053800,5.9280537109375,0.40274015069007874,-2.4738357067108154,5.337496757507324
1772556215973985000,5.937985107421875,0.2500019967556,-2.7907354831695557,5.516028881072998
1772556215983916000,5.947916015625,0.24342858791351318,-2.7817749977111816,5.744714736938477
1772556215993846800,5.9578466796875,0.3160820007324219,-2.487017869949341,6.013491630554199
1772556216003778000,5.967778076171875,0.3399037718772888,-2.1085593700408936,6.2956342697143555
1772556216013708800,5.977708740234375,0.24395939707756042,-1.7662125825881958,6.488193511962891
1772556216023639800,5.987639892578125,0.012002676725387573,-1.5286881923675537,6.514874458312988
1772556216033571000,5.997571044921875,-0.2605912983417511,-1.5158778429031372,6.407841682434082
1772556216043501800,6.007501708984375,-0.4540908634662628,-1.6961435079574585,6.143253803253174
1772556216053432800,6.017432861328125,-0.4741639196872711,-1.9633057117462158,5.7354607582092285
1772556216063364000,6.027364013671875,-0.3423458933830261,-2.277327299118042,5.230417728424072
1772556216073296000,6.0372958984375,-0.14151133596897125,-2.571298360824585,4.679046630859375
1772556216083227000,6.047226806640625,0.032588884234428406,-2.7268779277801514,4.079061985015869
1772556216093158000,6.057157958984375,0.18211817741394043,-2.699458360671997,3.4445643424987793
1772556216103089000,6.0670888671875,0.31382280588150024,-2.461177349090576,2.7696516513824463
1772556216113020000,6.07702001953125,0.41513878107070923,-2.0822277069091797,2.052699089050293
1772556216122951000,6.086950927734375,0.45900124311447144,-1.5589497089385986,1.219067096710205
1772556216132882000,6.0968818359375,0.41348621249198914,-0.8974626064300537,0.18049556016921997
1772556216142813000,6.10681298828125,0.270193874835968,-0.20562368631362915,-1.1176866292953491
1772556216152744000,6.116743896484375,0.04554424434900284,0.42455533146858215,-2.5438191890716553
1772556216162675000,6.126675048828125,-0.18726252019405365,0.9457163214683533,-3.943202257156372
1772556216172606000,6.13660595703125,-0.4207114577293396,1.446422815322876,-5.150481224060059
1772556216182537000,6.146536865234375,-0.600740373134613,1.8575589656829834,-6.083680629730225
1772556216192468000,6.156468017578125,-0.7022411823272705,2.1560840606689453,-6.749979496002197
1772556216202399000,6.16639892578125,-0.7259925603866577,2.3894965648651123,-7.20186710357666
1772556216212330000,6.176330078125,-0.7363511919975281,2.660625457763672,-7.4974589347839355
1772556216222261000,6.186260986328125,-0.791678786277771,3.0142743587493896,-7.6693620681762695
1772556216232192000,6.19619189453125,-0.9534032344818115,3.470463752746582,-7.82365608215332
1772556216242123800,6.206123779296875,-1.2263219356536865,4.216244220733643,-8.132226943969727
1772556216252055000,6.216054931640625,-1.6157413721084595,5.106264591217041,-8.473943710327148
1772556216261986000,6.225986083984375,-1.9983893632888794,5.780925750732422,-8.874279022216797
1772556216271916800,6.235916748046875,-2.329638957977295,6.3526105880737305,-9.51046085357666
1772556216281848000,6.24584814453125,-2.599297523498535,6.854573726654053,-10.409870147705078
1772556216291779000,6.255779052734375,-2.8460958003997803,6.99648904800415,-11.198200225830078
1772556216301709800,6.265709716796875,-2.9461145401000977,6.169369697570801,-11.574874877929688
1772556216311641000,6.27564111328125,-2.5979859828948975,4.013763904571533,-11.353189468383789
1772556216321571800,6.28557177734375,-1.820894718170166,0.5050823092460632,-9.949060440063477
1772556216331502800,6.2955029296875,-1.0424476861953735,-2.64149808883667,-7.281398296356201
1772556216341434000,6.30543408203125,-0.2745075225830078,-2.8978590965270996,-4.212417125701904
1772556216351364900,6.31536474609375,0.27308979630470276,-0.572905957698822,-1.2784605026245117
1772556216361296000,6.3252958984375,0.4751971662044525,2.0524537563323975,0.9202390313148499
1772556216371227100,6.33522705078125,0.5067307949066162,3.147473096847534,1.985992193222046
1772556216381158000,6.345157958984375,0.29305553436279297,2.293297052383423,2.462395429611206
1772556216391090000,6.35508984375,-0.12480803579092026,0.4447719156742096,2.7143313884735107
1772556216401021000,6.36502099609375,-0.45929595828056335,-1.2128231525421143,2.9610073566436768
1772556216410952000,6.374951904296875,-0.5457860827445984,-2.0872788429260254,3.3782639503479004
1772556216420883000,6.384883056640625,-0.3734632432460785,-2.2841994762420654,3.995309829711914
1772556216430814000,6.39481396484375,-0.09797412902116776,-2.070049524307251,4.636765956878662
1772556216440745000,6.404744873046875,0.17769312858581543,-1.7560173273086548,5.241147994995117
1772556216450676000,6.414676025390625,0.3809351921081543,-1.608048677444458,5.781149864196777
1772556216460606700,6.424606689453125,0.4592759609222412,-1.773956060409546,6.277261734008789
1772556216470537500,6.434537353515625,0.40418073534965515,-2.1976921558380127,6.730409145355225
1772556216480468500,6.444468505859375,0.25513479113578796,-2.7100071907043457,7.132225513458252
1772556216490399500,6.4543994140625,0.06377146393060684,-3.104768991470337,7.472716331481934
1772556216500330500,6.46433056640625,0.02632124349474907,-3.203582525253296,7.765818119049072
1772556216510261500,6.474261474609375,0.2885376811027527,-2.969414472579956,8.096332550048828
1772556216520192500,6.484192626953125,0.8006592988967896,-2.513711929321289,8.439384460449219
1772556216530123500,6.49412353515625,1.4503132104873657,-2.3354899883270264,8.638591766357422
1772556216540054500,6.504054443359375,1.981673240661621,-2.620469331741333,8.67054271697998
1772556216549986300,6.513986328125,2.249544382095337,-3.173285722732544,8.531185150146484
1772556216559917600,6.52391748046875,2.2274703979492188,-3.8459579944610596,8.138416290283203
1772556216569848600,6.5338486328125,2.006272554397583,-4.3657331466674805,7.397607326507568
1772556216579779300,6.543779296875,1.897160291671753,-4.441124439239502,6.535942077636719
1772556216589710600,6.553710693359375,1.9812463521957397,-4.104781150817871,5.783806324005127
1772556216599641600,6.5636416015625,1.996526837348938,-3.5125315189361572,4.959158897399902
1772556216609572400,6.573572265625,1.8665645122528076,-2.964780569076538,3.7006447315216064
1772556216619503600,6.583503662109375,1.5677703619003296,-2.4538755416870117,2.031503677368164
1772556216629434600,6.5934345703125,1.026645302772522,-1.7709429264068604,0.34363240003585815
1772556216639365400,6.603365478515625,0.3463493585586548,-0.8439483642578125,-1.3018500804901123
1772556216649296600,6.613296630859375,-0.2822434604167938,0.13308390974998474,-2.806074857711792
1772556216659227400,6.623227294921875,-0.7089592218399048,0.8983862400054932,-4.049266815185547
1772556216669158400,6.633158447265625,-0.9422889351844788,1.5169248580932617,-5.013749122619629
1772556216679089700,6.643089599609375,-1.0708122253417969,2.10772967338562,-5.71865177154541
1772556216689021400,6.653021484375,-1.1677486896514893,2.6368205547332764,-6.195249080657959
1772556216698952400,6.662952392578125,-1.287759780883789,3.005547523498535,-6.487754821777344
1772556216708883500,6.672883544921875,-1.4291690587997437,3.26354718208313,-6.659922122955322
1772556216718814500,6.682814453125,-1.5402565002441406,3.7557148933410645,-6.787757873535156
1772556216728745500,6.692745361328125,-1.6512218713760376,4.471011638641357,-6.966686248779297
1772556216738676500,6.702676513671875,-1.853468894958496,5.269146919250488,-7.367227554321289
1772556216748607500,6.712607421875,-2.189838171005249,6.124366760253906,-8.073465347290039
1772556216758538500,6.72253857421875,-2.6806752681732178,7.061236381530762,-8.845706939697266
1772556216768469500,6.732469482421875,-3.092885732650757,7.107186317443848,-9.485601425170898
1772556216778400500,6.742400390625,-3.0962727069854736,5.9320502281188965,-10.059343338012695
1772556216788331500,6.75233154296875,-2.1484603881835938,3.493774652481079,-10.558267593383789
1772556216798262300,6.76226220703125,-0.6303156614303589,0.11852188408374786,-10.35524845123291
1772556216808193500,6.772193603515625,0.32009193301200867,-2.537947177886963,-8.70677375793457
1772556216818124500,6.78212451171875,0.6094915270805359,-2.2857627868652344,-5.6485419273376465
1772556216828055300,6.79205517578125,0.6459941267967224,0.23694942891597748,-1.9048871994018555
1772556216837986600,6.801986572265625,0.7348363995552063,2.2760508060455322,1.2290414571762085
1772556216847918600,6.811918701171875,0.9982094168663025,2.748490571975708,3.045927047729492
1772556216857849300,6.821849365234375,1.074850082397461,2.1344075202941895,3.8069920539855957
1772556216867780400,6.8317802734375,0.8393003940582275,0.9409061670303345,4.004239559173584
1772556216877711600,6.841711669921875,0.5321052670478821,-0.5685224533081055,4.273314952850342
1772556216887642400,6.851642333984375,0.3945186138153076,-1.9176031351089478,4.863419532775879
1772556216897573400,6.861573486328125,0.39827537536621094,-2.6744680404663086,5.468149662017822
1772556216907504600,6.871504638671875,0.5191839337348938,-2.986149311065674,5.861648082733154
1772556216917435400,6.881435302734375,0.691977322101593,-3.192814588546753,6.026235580444336
1772556216927366400,6.891366455078125,0.8215222358703613,-3.4258644580841064,6.061059474945068
1772556216937297700,6.901297607421875,0.9338598251342773,-3.585768938064575,6.094789028167725
1772556216947228400,6.911228515625,1.032273769378662,-3.471430778503418,6.277745723724365
1772556216957159400,6.921159423828125,1.1088967323303223,-2.9722516536712646,6.6299614906311035
1772556216967090400,6.93109033203125,1.098872423171997,-2.522368907928467,6.937427520751953
1772556216977021400,6.941021484375,0.9806414842605591,-2.466651439666748,6.940704345703125
1772556216986953500,6.950953369140625,0.8266926407814026,-2.6615302562713623,6.633267879486084
1772556216996884500,6.960884521484375,0.7443482875823975,-3.0001440048217773,6.193826198577881
1772556217006815500,6.9708154296875,0.7806621193885803,-3.310450315475464,5.708878040313721
1772556217016746500,6.98074658203125,0.8753483295440674,-3.5194380283355713,5.1929850578308105
1772556217026677200,6.99067724609375,0.9423542618751526,-3.6592776775360107,4.700821399688721
1772556217036608500,7.0006083984375,0.8793896436691284,-3.6914989948272705,4.266148567199707
1772556217046539500,7.01053955078125,0.7517509460449219,-3.5407519340515137,3.8175466060638428
1772556217056470300,7.02047021484375,0.5935577154159546,-3.2517640590667725,3.3097193241119385
1772556217066401500,7.030401611328125,0.39346832036972046,-2.715977191925049,2.7113466262817383
1772556217076332500,7.04033251953125,0.3107284605503082,-2.126713514328003,1.9438698291778564
1772556217086263300,7.05026318359375,0.3114997148513794,-1.5484633445739746,1.000837802886963
1772556217096194600,7.060194580078125,0.3510611355304718,-0.9251420497894287,-0.08091378211975098
1772556217106125300,7.070125244140625,0.40993669629096985,-0.2610756456851959,-1.2488665580749512
1772556217116056300,7.080056396484375,0.32834044098854065,0.2778344750404358,-2.4452476501464844
1772556217125987600,7.089987548828125,0.14878584444522858,0.5853651165962219,-3.370368480682373
1772556217135919600,7.099919677734375,-0.14104995131492615,0.9264181852340698,-4.048709869384766
1772556217145850400,7.109850341796875,-0.5390015840530396,1.4805400371551514,-4.556377410888672
1772556217155781600,7.11978173828125,-1.0040353536605835,2.218682289123535,-4.930739879608154
1772556217165712400,7.12971240234375,-1.4806360006332397,2.978665351867676,-5.233089923858643
1772556217175643400,7.139643310546875,-1.9094339609146118,3.7023680210113525,-5.607088088989258
1772556217185574700,7.14957470703125,-2.223787784576416,4.267390251159668,-5.997237682342529
1772556217195505400,7.15950537109375,-2.3391168117523193,4.6000494956970215,-6.325303077697754
1772556217205436400,7.1694365234375,-2.246305465698242,4.517215251922607,-6.680368423461914
1772556217215367700,7.17936767578125,-2.0087642669677734,4.006194114685059,-7.172013282775879
1772556217225298400,7.18929833984375,-1.731257438659668,3.346301794052124,-7.771946907043457
1772556217235229400,7.1992294921875,-1.5812069177627563,2.950408697128296,-8.291532516479492
1772556217245160700,7.20916064453125,-1.6518877744674683,3.0299880504608154,-8.452156066894531
1772556217255091500,7.219091552734375,-1.821353554725647,3.6399753093719482,-8.111891746520996
1772556217265022500,7.2290224609375,-1.7413506507873535,3.962846040725708,-7.394035339355469
1772556217274953500,7.238953369140625,-1.2250622510910034,3.221693754196167,-6.447713375091553
1772556217284885500,7.248885498046875,-0.3546791970729828,1.3455697298049927,-5.321176052093506
1772556217294816500,7.25881640625,0.641605019569397,-0.37361302971839905,-3.6666510105133057
1772556217304747500,7.26874755859375,1.289420247077942,-0.35734087228775024,-1.4426867961883545
1772556217314678500,7.278678466796875,1.1076645851135254,0.5166792273521423,0.8638870120048523
1772556217324609500,7.288609619140625,0.41068658232688904,0.9282974004745483,2.689578056335449
1772556217334540300,7.298540283203125,-0.3519638776779175,0.4994109272956848,3.79402494430542
1772556217344471600,7.308471435546875,-1.0011296272277832,-0.6618098616600037,4.374339580535889
1772556217354402600,7.318402587890625,-1.2903931140899658,-1.832669973373413,4.579435348510742
1772556217364333300,7.328333251953125,-1.1519662141799927,-2.5237350463867188,4.483166694641113
1772556217374264600,7.3382646484375,-0.7737547755241394,-2.7033448219299316,4.403040409088135
1772556217384195600,7.348195556640625,-0.37389177083969116,-2.548795461654663,4.569356441497803
1772556217394126300,7.358126220703125,-0.05461813509464264,-2.1098692417144775,4.981297016143799
1772556217404057600,7.3680576171875,0.18341121077537537,-1.5911426544189453,5.51466178894043
1772556217413988400,7.37798828125,0.3205822706222534,-1.3320153951644897,6.048765659332275
1772556217423920400,7.38792041015625,0.32347792387008667,-1.3950228691101074,6.491925239562988
1772556217433851400,7.397851318359375,0.22717082500457764,-1.5231577157974243,6.790917873382568
1772556217443782700,7.40778271484375,0.20246921479701996,-1.7257376909255981,6.904474258422852
1772556217453713400,7.41771337890625,0.2170194387435913,-2.1223413944244385,6.772636890411377
1772556217463644400,7.42764453125,0.12098637223243713,-2.6850297451019287,6.372753620147705
1772556217473575400,7.437575439453125,-0.04777969792485237,-3.207425594329834,5.722704887390137
1772556217483506200,7.447506103515625,-0.1504805088043213,-3.397538900375366,4.925546646118164
1772556217493437200,7.457437255859375,-0.25679928064346313,-3.410785436630249,4.185627460479736
1772556217503368400,7.467368408203125,-0.38237959146499634,-3.336735963821411,3.5673012733459473
1772556217513299200,7.47729931640625,-0.4115365147590637,-3.2750353813171387,3.030870199203491
1772556217523230200,7.487230224609375,-0.3513038158416748,-3.087634563446045,2.457044839859009
1772556217533161500,7.497161376953125,-0.24960975348949432,-2.645545482635498,1.8447710275650024
1772556217543092200,7.50709228515625,-0.1246691644191742,-2.107163667678833,1.317394495010376
1772556217553023200,7.517023193359375,-0.013488972559571266,-1.5624836683273315,0.9389543533325195
1772556217562954200,7.526954345703125,0.05147644132375717,-1.0963172912597656,0.695127010345459
1772556217572886300,7.53688623046875,0.05147906020283699,-0.7474349141120911,0.5014821887016296
1772556217582817300,7.5468173828125,0.04035104066133499,-0.41551610827445984,0.23168668150901794
1772556217592748300,7.556748291015625,0.06486759334802628,-0.024352658540010452,-0.16795289516448975
1772556217602679300,7.56667919921875,0.13241122663021088,0.4017578959465027,-0.7064059972763062
1772556217612610300,7.5766103515625,0.24150985479354858,0.8069727420806885,-1.3732126951217651
1772556217622541300,7.586541259765625,0.34231317043304443,1.0734944343566895,-2.1107840538024902
1772556217632472300,7.596472412109375,0.41373810172080994,1.1321494579315186,-2.87371563911438
1772556217642403300,7.6064033203125,0.4992450177669525,1.0682694911956787,-3.612332344055176
1772556217652334300,7.616334228515625,0.6031497716903687,0.8998189568519592,-4.240655899047852
1772556217662265300,7.626265380859375,0.6603062748908997,0.7206806540489197,-4.657378196716309
1772556217672196400,7.6361962890625,0.6868884563446045,0.7817246317863464,-4.788044452667236
1772556217682127400,7.64612744140625,0.6419268846511841,1.3279091119766235,-4.678519248962402
1772556217692058400,7.656058349609375,0.33483874797821045,2.188924551010132,-4.291894912719727
1772556217701989400,7.6659892578125,-0.25875481963157654,2.89797306060791,-3.6708874702453613
1772556217711921200,7.675921142578125,-0.6979849338531494,3.2623450756073,-3.1781082153320312
1772556217721852400,7.685852294921875,-0.704077422618866,3.3979172706604004,-3.273176431655884
1772556217731783400,7.695783447265625,-0.3885687291622162,3.3633265495300293,-4.141754150390625
1772556217741714200,7.705714111328125,0.023968754336237907,2.9123313426971436,-5.513097286224365
1772556217751645400,7.7156455078125,0.4771355986595154,1.4914790391921997,-6.612507343292236
1772556217761576400,7.725576416015625,1.160482406616211,-0.8447059988975525,-6.664485454559326
1772556217771507200,7.735507080078125,1.642918586730957,-3.0362765789031982,-6.152460098266602
1772556217781438500,7.7454384765625,1.621838092803955,-3.1049246788024902,-5.311868667602539
1772556217791369200,7.755369140625,0.8959987759590149,-2.5171682834625244,-3.460075616836548
1772556217801300200,7.76530029296875,0.09932636469602585,-1.3326873779296875,-1.4905518293380737
1772556217811231500,7.7752314453125,-0.4562269449234009,0.3599441349506378,0.34321996569633484
1772556217821162200,7.785162353515625,-0.8446353673934937,1.3078383207321167,2.0771379470825195
1772556217831093200,7.79509326171875,-1.0037223100662231,1.375524640083313,3.283010721206665
1772556217841024500,7.8050244140625,-0.8717344403266907,1.1082103252410889,3.91347599029541
1772556217850955300,7.814955322265625,-0.49088627099990845,0.6102425456047058,4.073973655700684
1772556217860887300,7.82488720703125,-0.08676649630069733,0.03264231979846954,3.8549160957336426
1772556217870818300,7.834818359375,0.18930411338806152,-0.3904946744441986,3.4494235515594482
1772556217880749300,7.844749267578125,0.3454497754573822,-0.4472740590572357,3.1013827323913574
1772556217890680300,7.854680419921875,0.36040058732032776,-0.2471422553062439,2.9556007385253906
1772556217900611300,7.864611328125,0.24519036710262299,0.06729743629693985,3.056103229522705
1772556217910542300,7.874542236328125,0.08114069700241089,0.4845854938030243,3.3490288257598877
1772556217920473300,7.884473388671875,-0.04480231925845146,0.8568975329399109,3.7343690395355225
1772556217930404000,7.894404052734375,-0.09102574735879898,0.8312954902648926,4.0172529220581055
1772556217940335400,7.90433544921875,-0.06570281088352203,0.3179059326648712,4.141229152679443
1772556217950266400,7.914266357421875,0.016979288309812546,-0.35722240805625916,4.048690319061279
1772556217960197000,7.924197021484375,0.19142299890518188,-0.8299809098243713,3.756746768951416
1772556217970128400,7.93412841796875,0.472531259059906,-0.925312340259552,3.3068647384643555
1772556217980059400,7.944059326171875,0.7849192023277283,-0.7987980842590332,2.797778606414795
1772556217989991200,7.9539912109375,1.060639500617981,-0.5741224884986877,2.3396222591400146
1772556217999922200,7.963922119140625,1.239888072013855,-0.3836630582809448,1.9439783096313477
1772556218009853400,7.973853515625,1.2809749841690063,-0.40087977051734924,1.5945661067962646
1772556218019784200,7.9837841796875,1.1258046627044678,-0.7055385112762451,1.3066201210021973
1772556218029715200,7.993715087890625,0.7957687377929688,-1.1096217632293701,0.9861384630203247
1772556218039646500,8.003646484375,0.4436994194984436,-1.4406065940856934,0.6245282888412476
1772556218049577200,8.0135771484375,0.18261274695396423,-1.6102447509765625,0.310203492641449
1772556218059508200,8.02350830078125,0.08667795360088348,-1.5826059579849243,0.07648713886737823
1772556218069439500,8.033439453125,0.18447953462600708,-1.4806780815124512,-0.08715257793664932
1772556218079370200,8.043370361328124,0.3384520709514618,-1.4263561964035034,-0.06654477119445801
1772556218089301200,8.05330126953125,0.40851640701293945,-1.4208608865737915,0.17335891723632812
1772556218099232300,8.063232177734376,0.39881983399391174,-1.2832971811294556,0.47775503993034363
1772556218109163300,8.073163330078126,0.26881706714630127,-0.8916051983833313,0.7240597009658813
1772556218119094300,8.08309423828125,0.011125881224870682,-0.35825926065444946,0.8196908831596375
1772556218129026300,8.0930263671875,-0.26574885845184326,0.10914497077465057,0.7506673336029053
1772556218138957300,8.102957275390626,-0.4343045949935913,0.3335231840610504,0.584963858127594
1772556218148888300,8.112888427734376,-0.4144269526004791,0.2718970477581024,0.430703341960907
1772556218158819000,8.122819091796876,-0.23470912873744965,0.1621021032333374,0.3489496409893036
1772556218168750300,8.132750244140626,-0.06329255551099777,0.1401723027229309,0.36595308780670166
1772556218178681300,8.142681396484376,0.06872726231813431,0.1316930651664734,0.4890481233596802
1772556218188612000,8.152612060546875,0.2232983112335205,0.05241604521870613,0.7707615494728088
1772556218198543400,8.16254345703125,0.420587956905365,0.09613369405269623,1.0830373764038086
1772556218208474400,8.172474365234375,0.6376103162765503,0.6312687397003174,1.172676682472229
1772556218218405000,8.182405029296875,0.9229688048362732,1.3030284643173218,0.7552558183670044
1772556218228336400,8.19233642578125,1.108020544052124,1.4899020195007324,-0.0804387554526329
1772556218238267100,8.20226708984375,0.975182831287384,1.0882350206375122,-1.168624997138977
1772556218248198100,8.2121982421875,0.5709342956542969,0.412984162569046,-2.2788257598876953
1772556218258129400,8.22212939453125,0.0708685964345932,-0.22201809287071228,-3.1410341262817383
1772556218268061400,8.2320615234375,-0.36855843663215637,-0.5047518610954285,-3.572589874267578
1772556218277992200,8.2419921875,-0.6017725467681885,-0.19131962954998016,-3.546698808670044
1772556218287923500,8.25192333984375,-0.5695458650588989,0.5871067643165588,-3.065901756286621
1772556218297854200,8.261854248046875,-0.37728190422058105,1.5079509019851685,-2.273674726486206
1772556218307785200,8.27178515625,-0.20816409587860107,2.207869529724121,-1.419328212738037
1772556218317716500,8.281716552734375,-0.14365939795970917,2.39554762840271,-0.7220486998558044
1772556218327647200,8.291647216796875,-0.18310093879699707,1.9625493288040161,-0.18584173917770386
1772556218337578200,8.301578125,-0.3013988137245178,1.1805599927902222,0.18444977700710297
1772556218347509500,8.311509521484375,-0.4482554495334625,0.3889692723751068,0.4116516411304474
1772556218357440300,8.321440185546875,-0.5711387991905212,-0.1767772138118744,0.48077666759490967
1772556218367371300,8.331371337890625,-0.6288470029830933,-0.47758281230926514,0.3892710506916046
1772556218377302500,8.341302490234375,-0.6579612493515015,-0.5739927291870117,0.24044083058834076
1772556218387233300,8.3512333984375,-0.6779841780662537,-0.5169231295585632,0.11069249361753464
1772556218397164300,8.361164306640624,-0.6423790454864502,-0.4563591480255127,0.021361015737056732
1772556218407096300,8.371096435546875,-0.5518029928207397,-0.5300540924072266,0.028942041099071503
1772556218417027300,8.38102734375,-0.44922155141830444,-0.724880039691925,0.13664506375789642
1772556218426958300,8.390958251953125,-0.3492587208747864,-0.9349756240844727,0.2719094753265381
1772556218436889300,8.400889404296874,-0.25969555974006653,-1.1198921203613281,0.4249640107154846
1772556218446820400,8.4108203125,-0.15870118141174316,-1.195855975151062,0.5857259631156921
1772556218456751400,8.42075146484375,-0.0633818581700325,-1.1627508401870728,0.7713125944137573
1772556218466682000,8.43068212890625,-0.0013075568713247776,-1.0089181661605835,0.9888799786567688
1772556218476613400,8.44061328125,0.021052876487374306,-0.7799659967422485,1.2041093111038208
1772556218486544400,8.45054443359375,0.03388424590229988,-0.5660068988800049,1.370623230934143
1772556218496475100,8.46047509765625,0.04755318537354469,-0.39084282517433167,1.4513505697250366
1772556218506406400,8.470406494140626,0.05756889656186104,-0.27443647384643555,1.4291822910308838
1772556218516337400,8.48033740234375,0.0628398209810257,-0.23326987028121948,1.3083720207214355
1772556218526268200,8.49026806640625,0.07626692950725555,-0.2431696206331253,1.1128273010253906
1772556218536200200,8.5002001953125,0.18613722920417786,-0.3369986414909363,0.8877285122871399
1772556218546131500,8.51013134765625,0.39420294761657715,-0.4812834560871124,0.7113380432128906
1772556218556062200,8.520062255859376,0.6342858672142029,-0.156429722905159,0.5752934217453003
1772556218565993200,8.5299931640625,0.7352403402328491,0.4746352732181549,0.3529289662837982
1772556218575924500,8.539924560546876,0.6704475283622742,0.8371828198432922,0.1493646651506424
1772556218585855200,8.549855224609376,0.5238512754440308,0.8093574047088623,-0.012795453891158104
1772556218595786200,8.5597861328125,0.3935268521308899,0.5590232014656067,-0.14619292318820953
1772556218605717200,8.56971728515625,0.3186001777648926,0.42059963941574097,-0.3968246579170227
1772556218615648300,8.579648193359375,0.275719553232193,0.28319358825683594,-0.7366730570793152
1772556218625579300,8.589579345703125,0.2717781364917755,0.08555267751216888,-1.078879714012146
1772556218635510300,8.59951025390625,0.2486315667629242,-0.08785933256149292,-1.3328405618667603
