time,seconds_elapsed,z,y,x
1772555549049015300,0.068015380859375,-0.11486147393286228,-0.26006058378852903,0.016019260778278113
1772555549058947300,0.077947265625,-1.2005711365371943,-0.019378727274015545,-0.10942410518452525
1772555549068879400,0.08787939453125,0.19414777661561966,0.14113763257041573,-0.029907354746758937
1772555549078811400,0.097811279296875,-0.3731809862077236,0.15116335202232004,0.26997911653891205
1772555549088742400,0.107742431640625,-0.19509236398935317,0.279684152669087,0.03573080020323396
1772555549098674200,0.117674072265625,-0.150754040569067,0.06773183929361402,-0.07685498388260603
1772555549108606500,0.1276064453125,-0.20676000542938708,-0.18969240464195608,0.03780862939059734
1772555549118537500,0.137537353515625,-0.16174948183596133,-0.343894101446867,0.041732524836063385
1772555549128469500,0.147469482421875,-0.12100129186213016,-0.3802958597142249,0.005442921706289052
1772555549138401500,0.157401611328125,-0.15670739601552486,-0.9727591368593275,-0.3919555370435118
1772555549148332300,0.167332275390625,-0.2564689159721136,-0.7440167244635522,-0.2554341660968959
1772555549158264300,0.177264404296875,0.15304711994230746,0.35158114881813524,0.31926936327815053
1772555549168196400,0.1871962890625,0.8300403725773096,-0.4157466008670628,0.5311737458586693
1772555549178128400,0.19712841796875,1.1167670641690493,-0.5470560823842883,0.2039389566592872
1772555549188059400,0.207059326171875,1.1747831998080014,-0.10474223097860813,0.2766860668316483
1772555549197991400,0.216991455078125,0.6132680916994809,0.22928163383901118,0.2089947787441313
1772555549207923500,0.22692333984375,-0.2009504423677921,0.2059089415580034,-0.05536679017394781
1772555549217854500,0.2368544921875,-0.9019476709246634,0.2325458963319659,-0.2768237217366695
1772555549227786200,0.2467861328125,-1.2500474073678254,0.34429084567949175,-0.3626043548747897
1772555549237718300,0.25671826171875,-1.2093886492431163,0.3015384762763977,-0.4923224755473435
1772555549247650300,0.266650390625,-1.0248480744063853,0.3077947601921856,-0.6082862116336822
1772555549257581600,0.27658154296875,-0.7921884885668754,0.4051587174877524,-0.5572285168305039
1772555549267513600,0.286513671875,-0.5829150390118361,0.3537270017404109,-0.43131139587610956
1772555549277445400,0.2964453125,-0.3174485775917768,0.2894259406130761,-0.4229363662406802
1772555549287376400,0.30637646484375,0.12943594273030756,0.38434060506038364,-0.3248696675032377
1772555549297308400,0.316308349609375,0.7556260598450899,0.49162309510633345,-0.22694237723648547
1772555549307240400,0.326240478515625,1.5627771397441625,0.3772526195608079,-0.16138503243774174
1772555549317172200,0.336172119140625,2.632352829149365,0.3214430540554225,0.07777589811980724
1772555549327103500,0.346103515625,2.7405285417079925,0.22216526249516755,0.46751025198251006
1772555549337035500,0.356035400390625,1.0131307486057282,0.009386106374114751,0.4864926003500819
1772555549346967600,0.365967529296875,-3.224219820901751,0.01306315548561979,-0.38507162274867296
1772555549356898300,0.375898193359375,-3.8625054494798183,0.20586875567808746,-1.0212254999950527
1772555549366830300,0.385830322265625,0.15689561206400393,0.03637552784755826,-0.6484694612011314
1772555549376762400,0.395762451171875,4.9754450643152,0.4408269373161718,-2.3852651972457766
1772555549386693400,0.405693359375,-1.3979770381659269,-0.7695146652702242,3.3554560910522935
1772555549396625400,0.41562548828125,-2.489762805813551,0.975168682219088,0.3383990111619234
1772555549406557400,0.425557373046875,-1.4427543375253677,1.310823363108933,-0.4332096307128668
1772555549416489500,0.435489501953125,2.388474514681101,-0.458681669893302,0.9056418492674827
1772555549426420500,0.44542041015625,5.020388367891312,-1.0298519471082836,-0.30350539243519303
1772555549436352500,0.4553525390625,0.03933832317590713,0.36977424650415774,1.0788719255387782
1772555549446284300,0.4652841796875,0.2564963885009289,1.0335141959428786,1.1902099015206098
1772555549456215300,0.47521533203125,-3.518654602652788,-1.061421609044075,-0.1476756560370326
1772555549466147300,0.485147216796875,-3.9351328787952657,0.004801363266585395,-1.7296147384993732
1772555549476079400,0.495079345703125,-0.03806231189072132,-0.2880290428945795,0.05993395195901394
1772555549486011400,0.505011474609375,-1.6029723720103501,-0.1851454271283932,-0.5531377403855323
1772555549495942400,0.5149423828125,1.1249760895878076,-0.09975283432663418,0.016993220376968383
1772555549505874400,0.52487451171875,1.0643997480720282,0.26084515829496085,0.29353111090958117
1772555549515806500,0.534806396484375,2.352348723810911,0.181879611999169,0.17949790449440478
1772555549525737700,0.54473779296875,3.3115093972980976,0.11158654391542076,0.7549656962402165
1772555549535669800,0.554669677734375,3.9668291627854106,0.4045393800130114,0.6124433313131332
1772555549545601800,0.564601806640625,-5.445489510950446,0.6856925457887351,0.25762787674888965
1772555549555533800,0.574533935546875,-6.788667037436365,0.07538186998958699,-2.7016262718617914
1772555549565464800,0.58446484375,2.8133599691629407,-0.7670618652906268,0.3474386421859264
1772555549575396900,0.59439697265625,0.9154057029128074,0.9088792237535118,1.128609331523627
1772555549585329000,0.604328857421875,1.0207722032696007,0.6210776694718748,0.6429958520956337
1772555549595260000,0.614260009765625,-0.16331366241276263,0.1700239371737465,-0.01125906063914299
1772555549605191700,0.624191650390625,-0.3506324697911739,0.3027268092781305,0.5281289713352918
1772555549615123700,0.634123779296875,0.2829495111405849,-0.3159558913486078,0.7099686166502535
1772555549625054700,0.6440546875,0.6684978114902973,-0.35338914808817207,-0.008889408898353577
1772555549634986800,0.65398681640625,0.14387480244934558,-0.0038873080284334716,-0.2753025035187602
1772555549644919000,0.6639189453125,0.16800620414316653,-0.273173455600813,-0.1387165429033339
1772555549654850800,0.673850830078125,0.44900575025975703,-0.34912396492436526,-0.25817060532346364
1772555549664781800,0.68378173828125,0.8357599192678928,-0.4043511274319142,-0.26108999990150333
1772555549674713900,0.6937138671875,1.7041431742429731,-0.33411329666674133,0.12826646055951713
1772555549684646000,0.70364599609375,2.9697131449133156,-0.028865006086975335,0.661641150528565
1772555549694576600,0.71357666015625,4.049853482952714,0.10110265063354745,0.6548981060091406
1772555549704508700,0.7235087890625,1.5294763431668281,0.27192435058886183,0.20966058570910243
1772555549714440700,0.733440673828125,0.8298702767074108,-0.12725876308800652,-0.15945404610885305
1772555549724372700,0.743372802734375,-16.146778904688357,0.11254020964475347,-0.08938477684361859
1772555549734303700,0.7533037109375,0.9621014031141996,-0.08146512629287317,-2.6400188337326047
1772555549744235800,0.76323583984375,-1.8815274475842714,-0.021886563642788678,-0.3254798352908343
1772555549754167800,0.773167724609375,1.8778642489016055,-0.0025928112384863197,0.9316890214547514
1772555549764098800,0.783098876953125,-0.03602583762705326,0.13223825026731936,0.3792505519123748
1772555549774030800,0.79303076171875,-0.4949953480184078,0.01577292133439332,-0.26929592004772274
1772555549783962600,0.802962646484375,-0.25957974146902557,-0.024901436218246815,-0.15083532564435154
1772555549793894000,0.812893798828125,0.277766555544734,0.09189476863685994,0.12082690340960398
1772555549803826000,0.822825927734375,-0.06169336284697056,0.12472082384191453,0.21947854416184126
1772555549813758000,0.832758056640625,0.01578501363098621,-0.07801374372998252,-0.07018460274059325
1772555549823689700,0.842689697265625,0.06496902351677418,0.09777410899903624,0.06895767302783205
1772555549833620700,0.852620849609375,-0.36555356006920336,-0.029855551494285464,-0.05277382367183454
1772555549843552800,0.862552734375,0.23863398407399652,0.07421141057126224,0.0038060640523442995
1772555549853484800,0.87248486328125,0.0051209962755441665,0.011770133700128645,0.2267887210447341
1772555549863415800,0.882415771484375,-0.08674363295137882,0.027870149830728767,0.01797502535539679
1772555549873347800,0.892347900390625,-0.016893851655721662,0.032911760727129875,-0.2365842484699562
1772555549883280000,0.90227978515625,-0.2753869669318199,0.004868117493018508,-0.0005035108090378344
1772555549893212000,0.9122119140625,0.31935704156160355,0.08124993090592324,0.1974021753016859
1772555549903143000,0.922142822265625,-0.1122720419615507,0.005510379185620695,0.02369336646958254
1772555549913074700,0.93207470703125,-0.10997545545697211,0.021298278893437234,-0.056761112342868
1772555549923006700,0.9420068359375,0.10688801083564757,0.035123646356631066,-0.011449669574107974
1772555549932938000,0.95193798828125,-0.15052549251019953,0.022885675949044525,0.09760657041240484
1772555549942870000,0.9618701171875,0.15800971078574658,0.039631077311094845,0.028253678388753905
1772555549952801800,0.9718017578125,-0.13376315827965735,0.015176051419787107,-0.029442952105402945
1772555549962732800,0.98173291015625,-0.04441372674405575,0.010826021250430494,0.045435041748965156
1772555549972664800,0.991664794921875,0.12959727077186106,0.03497411835072562,0.03359932286618277
1772555549982596900,1.001596923828125,-0.18914193115234373,0.029209764404036102,0.03366745619894936
1772555549992529000,1.01152880859375,0.11105214477777481,0.03320709041189402,0.0033512740561272947
1772555550002459600,1.021459716796875,-0.07420271580815314,0.031098537292703985,0.03533055797242559
1772555550012391700,1.0313916015625,-0.04099193560183048,0.01971522921938449,0.054042391436081375
1772555550022324000,1.041323974609375,0.08964227700233458,0.04272458634702488,0.006304105112887919
1772555550032254700,1.051254638671875,-0.16204641895592212,0.026217870845366267,0.019124332387838512
1772555550042186800,1.061186767578125,0.09354337609410285,0.0445190685483627,0.03575399841573089
1772555550052118800,1.071118896484375,-0.060738254079222675,0.022215813863463697,0.034586735601490365
1772555550062050800,1.08105078125,-0.05609773479700088,0.013001118533499539,0.03086826306763105
1772555550071981800,1.09098193359375,0.07903262018263339,0.03721928519532084,0.02038784038447775
1772555550081913600,1.10091357421875,-0.13181202421188354,0.017324918283056465,0.03438364164428785
1772555550091845600,1.110845703125,0.06152443602085113,0.03654681102754548,0.031996426847344266
1772555550101777000,1.12077685546875,-0.0480102899312973,0.03872161604966968,0.006515702036954462
1772555550111709000,1.130708984375,-0.06162205117642879,0.023920115297008306,0.02882553259311244
1772555550121641000,1.140640869140625,0.06392623646557331,0.042717955676838754,0.027369817359466104
1772555550131571700,1.15057177734375,-0.11758768402636051,0.019284491385612636,0.03733250891198404
1772555550141503700,1.160503662109375,0.050609074252843854,0.03959677318269387,0.02219399475730024
1772555550151435800,1.170435791015625,-0.030946926927566527,0.024985808299761263,0.015079970634169876
1772555550161367800,1.180367919921875,-0.06865326498746871,0.020787151033524423,0.032118180930335076
1772555550171298800,1.190298828125,0.05794248588085174,0.04494821721324697,0.014958819339377805
1772555550181230800,1.20023095703125,-0.09633505263924598,0.020028843479510394,0.02836205240036361
1772555550191163000,1.210162841796875,0.04133212734162807,0.034284090259950606,0.020904813463287427
1772555550201094000,1.220093994140625,-0.02720189518034458,0.029276838290877637,0.01412565645086579
1772555550211025700,1.230025634765625,-0.06775310127735137,0.01722072725621983,0.030569618047773837
1772555550220957700,1.239957763671875,0.050911272069811817,0.03607663623252883,0.023670122591312973
1772555550230889000,1.249888916015625,-0.08870119675993919,0.03256968755749985,0.021884919674973934
1772555550240821000,1.259821044921875,0.01604921752512455,0.025226740916166453,0.021679140570340677
1772555550250753000,1.2697529296875,-0.013730419188737868,0.0307550210846588,0.010602825220115483
1772555550260684800,1.279684814453125,-0.04844809682667255,0.018274419293925166,0.025176499433116985
1772555550270615800,1.28961572265625,0.04627718252837658,0.030390425555966792,0.023455237731616944
1772555550280547800,1.2995478515625,-0.07148994971811772,0.03975205507595092,0.016397619970841333
1772555550290479900,1.30947998046875,0.003930909708142281,0.03685863518938422,0.030316364805912595
1772555550300410600,1.31941064453125,-0.009985387441515921,0.03021753494078293,0.01800935688326135
1772555550310343000,1.329343017578125,-0.05397825842499732,0.027227504545636473,0.02497024540444836
1772555550320275000,1.33927490234375,0.022339257580041884,0.04121043719071894,0.010096008209139109
1772555550330207000,1.34920703125,-0.06265723944306373,0.026121972722839563,0.020136139778885988
1772555550340137700,1.3591376953125,0.0048322424620389935,0.02741502647437155,0.016057245567953213
1772555550350069800,1.36906982421875,-0.0032476036190986633,0.02662699963552877,0.017712547627463937
1772555550360001800,1.379001708984375,-0.05037935715019703,0.025679197391401974,0.022001659656129775
1772555550369932800,1.388932861328125,0.0254886615216732,0.043709761459473515,0.01175862592542544
1772555550379864800,1.39886474609375,-0.05456453388035297,0.02633340525012463,0.018981398519501088
1772555550389796600,1.408796630859375,-0.008919219514727591,0.027730430832784623,0.02838954319548793
1772555550399727900,1.418727783203125,-0.002183189257979393,0.03944048664243892,0.026134357280377298
1772555550409660000,1.428659912109375,-0.04617372215390205,0.019974957867804913,0.027202287905989213
1772555550419592000,1.438592041015625,0.023711130455136297,0.034860794169362636,0.020443360830843447
1772555550429523700,1.448523681640625,-0.04138239622414112,0.029204485440719873,0.02216978276465088
1772555550439454700,1.458454833984375,-0.007264438045024872,0.027845618177670985,0.026756206372613087
1772555550449386800,1.46838671875,-0.013396072667837142,0.027701551798172293,0.02500640356321819
1772555550459318800,1.47831884765625,-0.05424246231913566,0.02728087870068848,0.022681230284972115
1772555550469249800,1.488249755859375,0.015344868648052215,0.03022798326956108,0.018389058649539946
1772555550479181800,1.498181884765625,-0.04106324727237224,0.030689627698250115,0.016542234339611602
1772555550489113900,1.50811376953125,-0.00858604203760624,0.02729532735114917,0.029000889160018414
1772555550499044900,1.518044921875,-0.024736966371536252,0.02628600417813286,0.02750620275600813
1772555550508976600,1.5279765625,-0.03669979136586189,0.02087791632320732,0.022886187405698
1772555550518908700,1.53790869140625,0.007001403194665908,0.031168643386848268,0.011892928962735458
1772555550528841200,1.54784130859375,-0.04357259974479675,0.02690956117026508,0.02679518667613156
1772555550538772200,1.557772216796875,-0.015731822139024732,0.028292448629718272,0.02715702399215661
1772555550548704300,1.567704345703125,-0.006149754801392555,0.029387185063865034,0.019589757942501455
1772555550558636300,1.57763623046875,-0.039511926177144045,0.01643065459076315,0.03184874373865314
1772555550568567000,1.587567138671875,0.0028431144714355467,0.028703805909585205,0.016897194390278307
1772555550578499000,1.5974990234375,-0.04368950412273407,0.020635138809587804,0.016848880002833903
1772555550588431000,1.60743115234375,-0.010462941825389862,0.021474822770431636,0.01988899661740288
1772555550598362000,1.617362060546875,-0.0041740708142519,0.029638730405829844,0.023155798127315937
1772555550608294100,1.627294189453125,-0.037387773630023,0.025839319856557994,0.01619272678219713
1772555550618226200,1.63722607421875,0.0012274959683418274,0.025621019197069106,0.014445252927206456
1772555550628158200,1.647158203125,-0.029587329012155533,0.02549925598092377,0.011109697030019015
1772555550638089200,1.657089111328125,-0.029126141241192817,0.023950638299435376,0.020056242943089456
1772555550648021200,1.667021240234375,-0.010258359163999557,0.03079416578495875,0.021728350006928666
1772555550657953300,1.676953369140625,-0.028654432076215743,0.025331260736566035,0.02622312240921892
1772555550667884000,1.686884033203125,-0.00395312153995037,0.02327281210310757,0.014845157231297344
1772555550677816000,1.696816162109375,-0.024735212805867195,0.019485055459011344,0.014422767100762575
1772555550687748000,1.706748046875,-0.026662381476163864,0.02270750637054443,0.01586965970713645
1772555550697680100,1.71668017578125,-0.012727379626035689,0.022799933894351122,0.012960083270212634
1772555550707611100,1.726611083984375,-0.02917173394858837,0.012340462667681277,0.007793375556264072
1772555550717543200,1.736543212890625,-0.003867196822166443,0.016160897738672794,0.011316919173067435
1772555550727475200,1.74647509765625,-0.011481178957223892,0.01760052035404369,0.011733071359060704
1772555550737406200,1.75640625,-0.018797054928541182,0.01846409664712846,0.005284854200901463
1772555550747338000,1.766337890625,-0.007411153039336204,0.016399218272883445,0.010660117498459293
1772555550757270000,1.77627001953125,-0.03194353674948215,0.014200886244699357,0.016137544262548906
1772555550767201300,1.786201171875,-0.005894903257489204,0.01689558695508167,0.015372158513776957
1772555550777133300,1.79613330078125,-0.02533668583035469,0.013961268802545964,0.00467168160546571
1772555550787065000,1.806065185546875,-0.038649756389856335,0.014006642314232884,0.016010465550469234
1772555550796997000,1.8159970703125,-0.008116670960187911,0.009636921063717455,0.013417699977755547
1772555550806928100,1.82592822265625,-0.024268179816007613,0.01588356036832556,0.0035524226514156904
1772555550816860200,1.835860107421875,-0.020666940453648565,0.016599471819028256,0.010620342610497028
1772555550826792200,1.845792236328125,-0.016916063487529755,0.008045322757028043,0.011818320223409682
1772555550836723200,1.85572314453125,-0.021544892331957815,0.008360654050204903,0.007866020667366682
1772555550846655200,1.8656552734375,-0.022583587729930875,0.010443049814831466,0.004043201843043789
1772555550856587300,1.875587158203125,-0.027669512692093848,0.007651245405524969,0.004159448633855208
1772555550866518300,1.885518310546875,-0.021378888115286827,0.010163356090616435,0.001551576823554933
1772555550876450000,1.895449951171875,-0.02242225968837738,0.016313202223554254,0.00926072642877698
1772555550886382000,1.905382080078125,-0.022714520633220672,0.0029417890729382633,0.006290871171979233
1772555550896314000,1.915314208984375,-0.007594108390808105,0.0030381803858093915,0.005507547907717526
1772555550906245000,1.9252451171875,-0.030931729358434676,0.007813395430985838,0.002132947774929926
1772555550916177200,1.93517724609375,-0.012822072172164916,0.0024782632144168017,0.00565295686093159
1772555550926109200,1.945109130859375,-0.007283142745494842,0.011898929445259273,0.0010403941647149622
1772555550936040200,1.955040283203125,-0.01910392892062664,0.006125515409279614,0.009034114598669112
1772555550945972200,1.96497216796875,-0.012965864557027817,0.005390734861325472,0.007493314897455274
1772555550955904300,1.974904296875,-0.019843933632969855,0.006319229616783559,0.01155320301381871
1772555550965835000,1.9848349609375,-0.005328501546382904,0.010988061678037047,0.005417421938851475
1772555550975767000,1.99476708984375,-0.003680734339356422,0.015768701817002146,0.0068909194243606175
1772555550985699000,2.004698974609375,-0.018788287100195884,0.004551306628808379,0.0006392020858358591
1772555550995631000,2.014631103515625,-0.015944003584980965,0.013500190629437565,0.010570429921010508
1772555551005562000,2.02456201171875,-0.02402209610044956,0.010831848203018307,0.00869129251036793
1772555551015494100,2.034494140625,-0.021923077994585035,0.010081048102024943,0.004769598155142739
1772555551025426200,2.04442626953125,-0.01713233658671379,0.01060996734695509,0.013771527517260983
1772555551035357200,2.054357177734375,-0.01967325324118137,0.006004994302149862,0.005667560775019228
1772555551045289000,2.0642890625,-0.016527356430888176,0.005809763990994542,0.005069439618242904
1772555551055221000,2.074220947265625,-0.029842765077948568,0.010420783184096217,-0.0026969018006231635
1772555551065152300,2.08415234375,-0.022810382223129273,0.004872757135517895,0.0008273998680058866
1772555551075084300,2.094084228515625,-0.023704700714349745,0.005961502220295369,0.005893012694502249
1772555551085016300,2.104016357421875,-0.024898878934979437,0.012867518749088048,0.014587373944791033
1772555551094948000,2.113947998046875,-0.015617255848646164,0.013402429343387484,0.009288957009417936
1772555551104879000,2.123879150390625,-0.023990531918406485,0.00926478154938668,0.006410186702711507
1772555551114811100,2.13381103515625,-0.011119944429397583,0.008352361145894974,0.007600072340713813
1772555551124743200,2.1437431640625,-0.01545709685087204,0.004907335258554667,0.0017141835067421196
1772555551134674200,2.153674072265625,-0.01814531302154064,0.005325268409680575,0.004099736069561913
1772555551144606200,2.163606201171875,-0.013802315381169319,0.0042191337986849245,-0.0017701240782160312
1772555551154538200,2.173538330078125,-0.02277589543163776,-0.003588507744949311,0.0084740512968041
1772555551164469200,2.18346923828125,-0.02816051107943058,0.009094904875196517,0.0006285984934307634
1772555551174401000,2.193401123046875,-0.013639818295836447,0.011534123854013159,0.00029463556502014397
1772555551184333000,2.2033330078125,-0.017676526466012,0.00852937081377022,0.002284722536848858
1772555551194265000,2.21326513671875,-0.002710428002476692,0.009144662301056086,0.009571509410999714
1772555551204196000,2.223196044921875,-0.031439678880572315,0.0025091606761794534,0.005176598920300602
1772555551214128000,2.233128173828125,-0.018570260435342788,0.007867865564581007,0.012914837622689083
1772555551224060200,2.24306005859375,-0.014379238486289978,0.007333265497535467,0.005024148304946721
1772555551233991200,2.2529912109375,-0.025003508353233336,0.008081124722771347,-0.0002498922409955412
1772555551243923200,2.262923095703125,-0.015572832185029983,0.0028024719337932766,0.01261579074403271
1772555551253855200,2.272855224609375,-0.02424830607175827,-0.0017697678851895033,0.009463948250142858
1772555551263786000,2.282785888671875,-0.018110826230049133,0.003295890607079491,0.0003497176199685782
1772555551273718000,2.292718017578125,-0.008231237250566481,0.0010853384181391448,0.002122389848297462
1772555551283650000,2.302650146484375,-0.02004968533813953,0.00427621601447463,-0.002534422981599346
1772555551293582000,2.31258203125,-0.012116554251313208,0.002253496281523257,-0.0016695680468808859
1772555551303513000,2.32251318359375,-0.017802198672294614,0.0038218415767885742,0.012176860470650717
1772555551313445000,2.332445068359375,-0.011514496704936027,0.000544783534342423,-0.0011994206513278186
1772555551323377200,2.342377197265625,-0.016598668101429938,0.008954126431327312,-0.0017219010223168878
1772555551333308200,2.35230810546875,-0.02602642166018486,0.0056344896224793046,0.00903301862012595
1772555551343240200,2.362240234375,-0.01599953316450119,0.006536644360283389,-0.001887932638451457
1772555551353172000,2.372171875,-0.008217793247103691,0.005348640152113512,0.003577100434945896
1772555551363103200,2.382103271484375,-0.009863806888461113,0.007463449482154101,0.003972136767674237
1772555551373035300,2.39203515625,-0.012557283756136893,0.008194366705743595,0.006221605328051373
1772555551382967300,2.40196728515625,-0.013602408894896506,0.0036215880306437608,0.0037271033648867157
1772555551392898000,2.41189794921875,-0.022431612038612363,0.0031842103935312478,-0.001756744006834924
1772555551402830000,2.421830078125,-0.0218330616235733,-0.0007806746494490652,0.004618901105457917
1772555551412762000,2.43176220703125,-0.019885434687137604,0.007438634701306,-0.0006966770272701979
1772555551422694100,2.441694091796875,-0.018837386938929557,0.0036659568953327833,-0.001181574467383325
1772555551432625200,2.451625244140625,-0.01823649843633175,0.0017966467589605598,0.0073957636739592995
1772555551442557200,2.46155712890625,-0.017936054185032843,0.004561882821749895,0.0009069131113123148
1772555551452489200,2.4714892578125,-0.019582067826390267,0.005484715021401644,0.0008587631206493824
1772555551462420200,2.481420166015625,-0.014193360525369644,-0.002939861977333203,0.007812673911778256
1772555551472352300,2.491352294921875,-0.018533435556292534,0.006360904200887307,0.003153130268678069
1772555551482284000,2.501283935546875,-0.018981763845682145,0.005009909717040136,0.0028035861786454915
1772555551492215000,2.511215087890625,-0.023617606952786443,0.011258046858990563,0.00268351259608753
1772555551502147000,2.52114697265625,-0.027808628901839254,-0.0015549469575751572,0.012454691031342372
1772555551512079400,2.531079345703125,-0.02271861228644848,0.0010970562553964554,-0.006321695568505674
1772555551522011400,2.541011474609375,-0.02122106720507145,0.0020945063275285064,-0.0007322049983777106
1772555551531942400,2.5509423828125,-0.026007132437825202,0.00841512418380007,0.004603895332571118
1772555551541874400,2.56087451171875,-0.01583002181649208,-0.0024018187110312283,0.0014839823469053953
1772555551551806500,2.570806396484375,-0.0298936184823513,0.0009184117528609931,-0.002653199656214565
1772555551561737200,2.5807373046875,-0.02046469587981701,0.004796805822476744,0.0022970705617684868
1772555551571669200,2.590669189453125,-0.014927520018815994,0.004435626093577593,0.005868718503462151
1772555551581601300,2.600601318359375,-0.015526654955744743,0.00004284362788312137,-0.0005222063763532787
1772555551591532500,2.610532470703125,-0.013731588232517241,0.0027703049635514616,-0.008270573747111484
1772555551601464600,2.620464599609375,-0.014328385081887244,-0.00415814259275794,-0.006284770224755629
1772555551611396400,2.630396240234375,-0.027197219005227088,-0.003231218739878386,-0.006219696498755365
1772555551621328400,2.640328369140625,-0.015976152288913727,0.008105446313275025,0.00352187224952504
1772555551631259400,2.65025927734375,-0.021214052942395208,0.0004516984234098345,0.005537002331065014
1772555551641191400,2.66019140625,-0.013878303226828575,0.0031025782583747057,0.006243433567369356
1772555551651123200,2.670123291015625,-0.01537117213308811,-0.0003875471460167318,0.003190019079810008
1772555551661054500,2.680054443359375,-0.018814006063342093,-0.0016620240612421184,-0.005911169405700639
1772555551670986500,2.689986572265625,-0.018817513194680214,0.0029484471425879743,-0.0005091185659170151
1772555551680918500,2.69991845703125,-0.01283317808806896,0.005719080899702385,0.00283041025348939
1772555551690849300,2.709849365234375,-0.019566870257258413,0.006282706131832674,0.00046432044296525416
1772555551700781300,2.71978125,-0.01971475429534912,-0.001719964793557301,-0.005738461453607306
1772555551710713300,2.72971337890625,-0.021810265269875524,-0.002713432810315862,-0.0030852069984655824
1772555551720645400,2.739645263671875,-0.023756138640642164,0.006314964433619752,-0.0033778241363354024
1772555551730576600,2.74957666015625,-0.02031213566660881,-0.0005191193701233715,0.010153218289092183
1772555551740508400,2.75950830078125,-0.021060323685407636,0.002745572381094098,0.0028285744894295927
1772555551750440400,2.7694404296875,-0.026447861942648886,-0.008581694656051695,0.0049228981538675725
1772555551760371500,2.779371337890625,-0.022558453288674354,0.004836050987476483,-0.0024629834468942132
1772555551770303500,2.789303466796875,-0.014327216038107871,0.007768168049771338,0.001736267474386841
1772555551780235300,2.7992353515625,-0.00894201586842537,0.0024510281476192177,0.00555544217005372
1772555551790166300,2.809166259765625,-0.01298047760426998,-0.000038048721756786104,0.00038573878142051396
1772555551800098300,2.819098388671875,-0.017018939340114593,-0.0017690007002092896,-0.007106808931054547
1772555551810030300,2.8290302734375,-0.011778700599074363,0.003937449046783149,-0.0014216029014904052
1772555551819962600,2.838962646484375,-0.022848960667848587,0.011314718082826584,0.0005066252147313207
1772555551829893400,2.848893310546875,-0.018359832555055616,0.004613877870468423,0.002968028625892475
1772555551839825400,2.858825439453125,-0.01656242774426937,-0.0004232212475966662,0.0001581131711602211
1772555551849757400,2.86875732421875,-0.020901333731412886,0.0005904858395922929,-0.005851328977243974
1772555551859688200,2.878688232421875,-0.015515549039840697,-0.006485526094399392,-0.008777765217423439
1772555551869620200,2.8886201171875,-0.018959552013874052,0.0006607928631361574,0.0001151782117318362
1772555551879552300,2.89855224609375,-0.023451602736115455,-0.0010483217428438364,0.006030521469051018
1772555551889483500,2.9084833984375,-0.017166238856315612,0.0011193137529771774,0.0011909633502364158
1772555551899415600,2.91841552734375,-0.013572013756632804,0.005418956308811903,0.0006965856957249343
1772555551909347300,2.928347412109375,-0.022252163818478582,0.005140815220866352,-0.00041640791432000695
1772555551919278300,2.9382783203125,-0.021802081963419914,-4.2925826273858543e-7,0.0048361331858672195
1772555551929210400,2.94821044921875,-0.023150573962926864,-0.0005055018367245793,0.002175946666439995
1772555551939142400,2.958142333984375,-0.024798341169953345,0.000581845875410363,0.0020056224676780403
1772555551949074400,2.968074462890625,-0.011481178957223892,0.009290199118433519,0.001254895431920886
1772555551959005400,2.97800537109375,-0.019116203880310056,0.0017205493154469876,0.0036859402374364433
1772555551968937500,2.9879375,-0.009838087925314903,0.004963513292046263,0.0006063409958500415
1772555551978869500,2.997869384765625,-0.010736498069763184,0.0020210940314456818,-0.002592226716596633
1772555551988800300,3.00780029296875,-0.014925181931257248,-0.0005852799415122718,-0.006629144949326291
1772555551998732300,3.017732177734375,-0.015823592075705526,0.0004894092184491455,0.0047349926326423885
1772555552008664300,3.027664306640625,-0.027795184898376464,0.006782015689788386,-0.0013240608111489563
1772555552018595600,3.037595703125,-0.01687222434580326,0.005707143866736442,0.009868693126132711
1772555552028527600,3.047527587890625,-0.01567453899383545,-0.0010954305538907647,0.005572448103781789
1772555552038459400,3.05745947265625,-0.02255728424489498,0.0028069197800476104,0.0007242956865578889
1772555552048391400,3.067391357421875,-0.02135784532725811,0.00031642727172002196,0.002074541251733899
1772555552058322400,3.077322509765625,-0.024498481440544128,-0.003824115732265636,-0.002132956908084452
1772555552068254500,3.08725439453125,-0.02180617361664772,0.0017496566789224743,-0.0055104157182388
1772555552078186500,3.0971865234375,-0.017764789271354674,0.006146046740654856,-0.010514909474644809
1772555552088117200,3.1071171875,-0.013873627051711081,0.006508879570523277,-0.00657050096411258
1772555552098049300,3.11704931640625,-0.021053893944621083,-0.0018421938005834817,0.005030267518479376
1772555552107981600,3.126981689453125,-0.011328034222126006,0.0028820582423359155,0.006004537644423544
1772555552117912300,3.136912353515625,-0.013274492114782332,0.004558512687729672,-0.006795624090032652
1772555552127844400,3.14684423828125,-0.014022680133581161,-0.0018042638098355382,-0.0033230617417953907
1772555552137776400,3.1567763671875,-0.016117022064328194,0.003976666812319308,0.0028090478050522504
1772555552147708400,3.16670849609375,-0.014022680133581161,0.0018676296359393745,0.0005453223904594779
1772555552157639400,3.176639404296875,-0.015817746856808663,0.002163160250103101,-0.0020973376054316756
1772555552167571200,3.1865712890625,-0.011328618744015693,0.0036570703359786417,-0.0027824429259169846
1772555552177503200,3.196503173828125,-0.02195171956717968,0.0035933117842301726,0.006714823071938008
1772555552187434500,3.2064345703125,-0.017760697618126868,-0.0014965769669972359,0.0036353973602876065
1772555552197366500,3.216366455078125,-0.015517302605509757,0.009302437545498832,-0.0014017200240865348
1772555552207298300,3.22629833984375,-0.021052140378952026,0.009525231717014684,0.006047372139152139
1772555552217229300,3.236229248046875,-0.020151976668834684,0.0032405984895769505,-0.0057760443844832475
1772555552227161300,3.246161376953125,-0.02090016468763351,0.01116853281147778,-0.0015903105319011956
1772555552237093400,3.25609326171875,-0.024493220743536947,0.0038617077962961044,0.010649440840817988
1772555552247025400,3.266025390625,-0.020901333731412886,-0.0014379877807106822,0.0010165109656285493
1772555552256956400,3.275956298828125,-0.026735446712374687,-0.0003313417130615562,0.008021923615131528
1772555552266888400,3.285888427734375,-0.021498130580782888,-0.0005810330246575177,0.00418433647993952
1772555552276820500,3.295820556640625,-0.02030044522881508,0.003825102112954482,-0.0020136779099702833
1772555552286751500,3.30575146484375,-0.012815642431378364,-0.0020730616807006297,0.0026144111489411442
1772555552296683300,3.315683349609375,-0.02044716022312641,-0.0015245792187750338,0.007483295826939866
1772555552306615300,3.325615234375,-0.015059037443995475,0.0007292823889292776,0.0005871613713447004
1772555552316546600,3.335546630859375,-0.0071282444447278975,0.00004169285041280091,-0.0020389584816992283
1772555552326478600,3.345478515625,-0.018050035953521726,0.002485542338574305,-0.0032945023675914854
1772555552336410400,3.355410400390625,-0.01834580402970314,0.001610768798040226,-0.0013899291215930133
1772555552346341400,3.36534130859375,-0.022085575079917905,0.005170552772004157,-0.0052359187589492645
1772555552356273400,3.3752734375,-0.026873978400230408,0.00015054178605787455,0.0031821828332263976
1772555552366205400,3.385205322265625,-0.019690204375982283,-0.002875427572149783,0.00009223572756163775
1772555552376137500,3.395137451171875,-0.02103752733170986,-0.003467721776338294,-0.007327666873810813
1772555552386068200,3.405068115234375,-0.015198153653740882,-0.0039014096190221606,-0.002984048178931698
1772555552396000500,3.41500048828125,-0.017292495584487914,0.0032810583641286937,-0.0006750086181564256
1772555552405932500,3.4249326171875,-0.013999299257993697,-0.0033572106065694243,0.001044764379155822
1772555552415863600,3.434863525390625,-0.00861176100075245,0.0008390994389541447,-0.005021928948396817
1772555552425795300,3.44479541015625,-0.012353285616636275,0.0009315726285334675,0.003848957912577316
1772555552435727400,3.454727294921875,-0.021930092257261277,-0.00037038594866171476,0.0016869484399445354
1772555552445658400,3.464658447265625,-0.01774316196143627,0.004153594281803816,0.007221576150832697
1772555552455590400,3.47459033203125,-0.021486440142989158,0.006817781122913584,-0.003925484614353627
1772555552465522200,3.484522216796875,-0.01938976012468338,-0.00013966419901698826,-0.005183617749554105
1772555552475454200,3.4944541015625,-0.018936755660176274,-0.0039786213073879475,0.009565216667531058
1772555552485385500,3.504385498046875,-0.025070143848657606,0.00442989960568957,0.0038890615941025316
1772555552495317500,3.5143173828125,-0.020279986962676046,-0.004026762164896354,-0.0021388660590630024
1772555552505249500,3.52424951171875,-0.015642390289902688,-0.004520500498590991,0.00274435310496483
1772555552515180300,3.53418017578125,-0.025220950496196746,-0.0022939104903023687,-0.00046166726157534864
1772555552525112000,3.544112060546875,-0.021930676779150962,-0.0008560414406005292,-0.0067143527144799
1772555552535044000,3.554044189453125,-0.021481763967871666,0.007380200778646394,-0.006269613754819147
1772555552544975000,3.56397509765625,-0.005472293931245803,-0.0018542952303308993,-0.006119957884750328
1772555552554907100,3.5739072265625,-0.0154980133831501,-0.0007418130769394338,-0.01015995855713263
1772555552564839200,3.583839111328125,-0.010109306082129477,0.0016613482078071682,-0.004658214769116603
1772555552574771200,3.593771240234375,-0.019838088414072988,0.006874032221641391,0.0037627637667348606
1772555552584702200,3.6037021484375,-0.015348375779390334,0.0014658439020160585,0.0062812996260356154
1772555552594634000,3.613634033203125,-0.015649404552578926,-0.004135081377578899,-0.000886706006922759
1772555552604566000,3.62356591796875,-0.02193593747615814,0.0023915895779617127,0.0026084745984990146
1772555552614497300,3.633497314453125,-0.026424481067061422,0.0032025497678201645,-0.00027101722741499544
1772555552624429300,3.64342919921875,-0.024779051947593687,-0.000656874739844352,-0.007404262074246071
1772555552634361300,3.653361328125,-0.01221066227555275,-0.0018514730855822563,0.0021184808581601825
1772555552644292000,3.6632919921875,-0.014157704690098761,0.005228539170091972,0.005674954063608311
1772555552654224100,3.67322412109375,-0.0231359609156847,0.002761226607952267,0.0028936253825435415
1772555552664156200,3.68315625,-0.01819850451350212,0.002368400498619303,0.008979470935137943
1772555552674087200,3.693087158203125,-0.022687048104405402,0.0016094536237884311,0.004235719607304782
1772555552684019200,3.703019287109375,-0.020142039796710014,0.000988727909559384,-0.0009170737457228824
1772555552693951200,3.712951171875,-0.015201076263189315,0.004076976248482242,0.0007191400208277627
1772555552703883300,3.72288330078125,-0.02043546978533268,-0.001925771297654137,0.003564364250958897
1772555552713814300,3.732814208984375,-0.026422142979502676,0.0018853570888750254,-0.005849534312379546
1772555552723746000,3.74274609375,-0.02118424232602119,0.0015484624178614466,-0.00016527356430888176
1772555552733678000,3.752677978515625,-0.019087562307715415,0.0005405183511786163,-0.0021588037353940308
1772555552743609000,3.762609130859375,-0.01923719991147518,-0.0006630487523041665,0.0056850233664736145
1772555552753541000,3.772541015625,-0.014299158987402916,-0.0026306224982254206,0.0012104352356866002
1772555552763473200,3.78247314453125,-0.011904957327246665,0.0018636658468749374,-0.003743903802637942
1772555552773404200,3.792404052734375,-0.01744037962257862,-0.0020907343347091227,-0.011254224633821286
1772555552783336200,3.802336181640625,-0.012501754176616668,-0.00462365034581162,-0.0034490170758683233
1772555552793268200,3.812268310546875,-0.0160948102325201,0.0058988761797081676,-0.0021018311174586415
1772555552803199000,3.822198974609375,-0.019086393263936043,0.00607566665187478,-0.0018771189834922552
1772555552813131000,3.832131103515625,-0.01579378145933151,-0.0020503201259300112,-0.0036028696304420006
1772555552823063000,3.84206298828125,-0.02462123103737831,-0.0012496986669953913,-0.009589780286629684
1772555552832995000,3.8519951171875,-0.016689853516221046,0.0038498529617208986,0.0042301209835801275
1772555552842926300,3.86192626953125,-0.018036591950058935,0.012473386598657816,-0.0005516607997007668
1772555552852858000,3.871858154296875,-0.016987959679961202,0.010722250348702073,-0.00472058964795433
1772555552862790100,3.8817900390625,-0.014144845208525656,0.009053531685192137,-0.003058200260531157
1772555552872721200,3.89172119140625,-0.022674773144721983,0.002663017797330394,-0.002773346304008737
1772555552882653200,3.901653076171875,-0.02028115600645542,-0.000696731826197356,0.005837930639553815
1772555552892585000,3.9115849609375,-0.021926585125923156,0.004341262341011315,0.0007555995736969634
1772555552902516200,3.92151611328125,-0.006814940711855888,-0.00007538505746051669,0.0005557661526603624
1772555552912448300,3.9314482421875,-0.017588263660669325,0.003005556757841259,0.007489063414023257
1772555552922380300,3.94138037109375,-0.021178981629014014,0.0016133626139257103,-0.004584496512357145
1772555552932312300,3.951312255859375,-0.0181862295538187,0.0009964819577522575,0.0026235351703129705
1772555552942243000,3.9612431640625,-0.013845570001006125,0.0010502031726762652,0.002342343608755618
1772555552952175000,3.971175048828125,-0.012348024919629096,0.0009516473021823912,-0.0035924030353548003
1772555552962107100,3.981107177734375,-0.007706336593627929,-0.0026238548307213933,-0.003998093192838132
1772555552972038100,3.9910380859375,-0.01638473308980465,-0.0015860453487373887,-0.00254846064010635
1772555552981970200,4.00097021484375,-0.021173720932006836,-0.00710750305079855,0.0058862815596163265
1772555552991902200,4.010902099609375,-0.018180968856811523,-0.007186851897323504,-0.005018787143239751
1772555553001833200,4.020833251953125,-0.016683423775434494,0.002485496672801673,-0.0074702810817398125
1772555553011765200,4.03076513671875,-0.013989946907758712,0.007098077635327354,-0.0044129073716932905
1772555553021697000,4.040697021484375,-0.015336100819706915,0.0038400896195322273,-0.004775447940616868
1772555553031628000,4.0506279296875,-0.019675006806850432,0.0006739994045812637,-0.0059820061522070315
1772555553041560000,4.06056005859375,-0.019824059888720512,-0.0010232877662871033,-0.006567509856005199
1772555553051492000,4.0704921875,-0.02102174524068832,-0.003358324851421639,-0.014986154870875179
1772555553061424000,4.080424072265625,-0.01698503707051277,0.00832394790216349,-0.0009397422352572902
1772555553071355100,4.090355224609375,-0.017581833919882772,0.0011728979705832897,0.0010636152100982144
1772555553081287200,4.100287109375,-0.01922843208312988,0.0037192488519940522,-0.002923193970322609
1772555553091219200,4.11021923828125,-0.023417115944623947,0.005552957952022552,-0.0001839325990062207
1772555553101150000,4.12014990234375,-0.02147065805196762,-0.0005246357954572885,0.008268400056334212
1772555553111082000,4.13008203125,-0.018926818788051605,0.0057305247423239045,-0.00472524755676277
1772555553121014000,4.140013916015625,-0.02251812127828598,0.0036303741252981126,-0.010415805614879354
1772555553130945300,4.1499453125,-0.018179215291142463,0.004676595242600888,-0.0007669566513504833
1772555553140877300,4.159877197265625,-0.020124504140019414,0.0017235815227497368,0.0027782051422167568
1772555553150809000,4.16980908203125,-0.02057224790751934,-0.0005971256429329515,-0.001566847457922995
1772555553160741000,4.1797412109375,-0.021321020448207852,-0.006851875188760459,-0.007109512344794348
1772555553170672000,4.189672119140625,-0.017579495832324026,-0.007793649550899863,-0.0008159925580024719
1772555553180604200,4.199604248046875,-0.018028408643603323,-0.0008601422269828617,-0.0016375380739569662
1772555553190536200,4.2095361328125,-0.02206803942322731,-0.0017952950520906596,-0.004634290470834821
1772555553200467200,4.21946728515625,-0.029102175843715668,-0.002204770902125165,0.0009541315202135592
1772555553210399200,4.229399169921875,-0.019973112970590592,-0.0027801231046672907,-0.004331727327685803
1772555553220331300,4.239331298828125,-0.02057049434185028,0.0016659787171520292,0.004892119423113763
1772555553230262000,4.249261962890625,-0.00485854594707489,0.003204686925979331,-0.0004457618729677051
1772555553240194000,4.259194091796875,-0.024760931769013405,0.0008422229778021574,0.008251713783014565
1772555553250126000,4.2691259765625,-0.016979191851615904,-0.0008346059269271791,0.009599055005051194
1772555553260057000,4.27905712890625,-0.017425766575336454,-0.0020091295990161597,0.008915538853453472
1772555553269989400,4.2889892578125,-0.020565818166732787,-0.0026188498620409516,-0.0008988759353291243
1772555553279921200,4.298921142578125,-0.004554010042548179,0.007953315358329565,-0.0058093986648134885
1772555553289853200,4.308853271484375,-0.018768997877836226,0.0024140480049420145,0.0032349268006160855
1772555553299784200,4.3187841796875,-0.01398001003563404,-0.011334600960230454,0.005072631655749864
1772555553309716200,4.32871630859375,-0.01847030719220638,0.002032227346813306,-0.004782352605438791
1772555553319648300,4.338648193359375,-0.02041442699730396,0.007825569925969465,0.002833752988046035
1772555553329579000,4.3485791015625,-0.013228314885497092,-0.002818153560115024,0.0018958921826211735
1772555553339511000,4.358510986328125,-0.01397825646996498,0.0021093111710157246,0.0014294802472693846
1772555553349443000,4.368443115234375,-0.01427753167748451,-0.00009358743443153798,-0.0034332989169284698
1772555553359374000,4.3783740234375,-0.01322889940738678,0.0002653455384541303,0.0063436790714506055
1772555553369306000,4.38830615234375,-0.02055997294783592,0.003764065241254866,-0.007746572705893777
1772555553379238100,4.398238037109375,-0.032681787896156306,-0.010223306116927415,-0.002776862568501383
1772555553389169200,4.408169189453125,-0.01906593499779701,0.0013043149310629815,-0.004895621987874619
1772555553399101200,4.41810107421875,-0.015174772778153418,0.005320500903017818,-0.006830622338177636
1772555553409033000,4.428032958984375,-0.019962591576576233,-0.003110478437040001,0.006309616971644573
1772555553418965000,4.437965087890625,-0.019512509721517562,0.0012773812583647668,0.0009771790356608108
1772555553428896300,4.447896240234375,-0.022205986589193344,0.0026431166536174714,-0.007557507274043746
1772555553438828300,4.457828369140625,-0.021457798570394513,0.0038492593066766856,-0.0010015554250916465
1772555553448760000,4.467760009765625,-0.018613515055179594,0.0061161721921991555,0.0050797829157439986
1772555553458691000,4.477691162109375,-0.01936170307397842,-0.0032997539314441383,0.0028342096457723526
1772555553468623000,4.487623046875,-0.015321487772464752,-0.003513606744678691,-0.008263838045648298
1772555553478555100,4.49755517578125,-0.022205986589193344,-0.003488865029066801,0.003483147674333304
1772555553488486100,4.507486083984375,-0.028193828827142713,-0.003183826801041141,0.00870308341286145
1772555553498418200,4.517418212890625,-0.020559388425946235,-0.0017457476887851953,0.003945413157530129
1772555553508350200,4.52735009765625,-0.019660978281497953,0.005569397630169988,-0.005505328551167622
1772555553518282200,4.5372822265625,-0.014570377144217491,-0.0022318415721412745,0.0015818714971188455
1772555553528212500,4.54721240234375,-0.0178594818174839,0.00089705843757838,0.0017074295389698816
1772555553538144500,4.55714453125,-0.015616086804866789,-0.0034943997207097705,0.002264848792599514
1772555553548076500,4.56707666015625,-0.01636369030177593,-0.0037152759297750886,-0.009819045298127457
1772555553558007800,4.5770078125,-0.020253098955750466,-0.00031051812074147164,-0.007630430946359411
1772555553567939800,4.58693994140625,-0.024592589464783668,0.004179020984005182,-0.003713257502624765
1772555553577871600,4.59687158203125,-0.023994039049744606,-0.00328339645168744,-0.007376794112008064
1772555553587802600,4.606802734375,-0.022197218760848045,-0.0012624394175596535,-0.0045234824735438444
1772555553597734700,4.616734619140625,-0.013368015617132186,-0.0013486746625974773,0.003193042153958231
1772555553607666700,4.626666748046875,-0.023843232402205466,0.0009455006891861558,-0.005054242049111053
1772555553617597700,4.63659765625,-0.013667290824651717,-0.0038236042756121602,0.0009597803762881084
1772555553627529700,4.64652978515625,-0.017857143729925154,-0.0039055469380225986,0.0021516844414407386
1772555553637461800,4.656461669921875,-0.023543957194685935,0.0014623276375234126,0.00016405885475687682
1772555553647393800,4.666393798828125,-0.01890343791246414,-0.004424437979282811,0.0008183306455612182
1772555553657324500,4.676324462890625,-0.01620996104478836,0.0037973921221215274,-0.00378520392740611
1772555553667256600,4.686256591796875,-0.015913023924827574,0.0016531923008151351,-0.003422740990296006
1772555553677188600,4.696188720703125,-0.010825345396995544,-0.002036967454012483,0.0020126093308907
1772555553687119600,4.70611962890625,-0.01680909598171711,-0.00018567703152075408,-0.0015759258135221897
1772555553697051600,4.7160517578125,-0.023694179320335386,-0.0017562142838723957,0.0005339516130741685
1772555553706983700,4.725983642578125,-0.024891280150413513,-0.0026929471447132525,0.011004350659134797
1772555553716914700,4.735914794921875,-0.014864391654729843,-0.00654788727350533,-0.00181575331822969
1772555553726846700,4.7458466796875,-0.01830488749742508,-0.0024228067001327873,0.0032729526894865555
1772555553736778800,4.75577880859375,-0.021149171012639998,-0.00015591208091937005,-0.0005318327212240546
1772555553746709500,4.76570947265625,-0.024291560691595077,-0.00019494718336500227,0.004499284180626273
1772555553756641500,4.7756416015625,-0.016662965509295462,-0.003927055516932159,-0.009694167676288635
1772555553766573600,4.785573486328125,-0.01950958711206913,-0.0054332588288001716,-0.00038060594857670363
1772555553776504800,4.7955048828125,-0.015618424892425537,0.002056676801480353,-0.0016403419523965566
1772555553786436600,4.8054365234375,-0.012026537880301474,-0.008676642930507659,0.00024257658421993254
1772555553796368600,4.81536865234375,-0.024297405910491943,0.00005626936503686011,0.0019231866149231791
1772555553806300700,4.82530078125,-0.023100889602303505,-0.00009830014216713607,0.006940832113847136
1772555553816231700,4.835231689453125,-0.018760814571380614,-0.0018033596275374292,-0.0021708594993688165
1772555553826163500,4.84516357421875,-0.02175298212468624,0.002507461909437552,-0.00023769034654833374
1772555553836095500,4.855095458984375,-0.021900866162776946,0.0025688184415455905,-0.005363938185945153
1772555553846026800,4.86502685546875,-0.01830781010687351,-0.0010095606350339948,0.003935202290769666
1772555553855958800,4.874958740234375,-0.020703765332698822,-0.013486892756447195,-0.0027601488957181572
1772555553865890800,4.884890869140625,-0.015168343037366866,-0.0017366693331860004,0.003109519455814734
1772555553875821600,4.894821533203125,-0.014869067829847335,-0.0022613142617978156,0.003791263775434345
1772555553885753600,4.904753662109375,-0.019058920735120773,0.002400960194505751,0.00257863658266142
1772555553895685600,4.914685546875,-0.017715104910731316,0.004709127539023757,-0.0031775797233451154
1772555553905616600,4.92461669921875,-0.01681786381006241,-0.0026764526676386594,-0.0010193057109136134
1772555553915548700,4.934548583984375,-0.024450550645589826,0.008693466201145202,-0.0013324267806950956
1772555553925480700,4.944480712890625,-0.01891571287214756,-0.0038873719605151563,-0.004770191810186952
1772555553935412700,4.954412841796875,-0.015026304218173026,-0.003007264657737687,-0.008324130565254018
1772555553945343700,4.96434375,-0.02370411619246006,0.0019473529417999087,0.0004672065197955817
1772555553955275500,4.974275634765625,-0.016522095733880995,0.004363072314020246,-0.0023505634478293356
1772555553965207600,4.98420751953125,-0.012481295910477638,0.004455563769908621,0.002175426076631993
1772555553975138600,4.994138671875,-0.024451135167479515,-0.0022545922600664195,-0.004150689938664436
1772555553985070600,5.004070556640625,-0.018315993413329124,-0.004254369508847594,-0.00315523089421913
1772555553995002600,5.014002685546875,-0.028639819028973577,0.010138139450969174,0.005150907356617972
1772555554004933600,5.02393359375,-0.026396424016356466,-0.000028066183859482406,-0.006569560249196365
1772555554014865700,5.03386572265625,-0.019214403557777402,-0.005099670359725132,-0.006219449903583154
1772555554024797700,5.043797607421875,-0.01741758326888084,-0.0007953242293093353,-0.004046069653565063
1772555554034728700,5.053728759765625,-0.015023381608724594,0.00023208258966915307,-0.0005600998344831168
1772555554044660500,5.063660400390625,-0.024299159476161,-0.0027980149543844163,-0.000823061619605869
1772555554054592500,5.073592529296875,-0.014274024546146392,0.0021444372833240776,-0.008830810578912496
1772555554064524500,5.083524658203125,-0.01457388427555561,0.002568151721265167,-0.002888542782049626
1772555554074455800,5.093455810546875,-0.021757073777914047,0.004791298530297353,-0.004584058120939881
1772555554084387600,5.1033876953125,-0.02040975082218647,-0.0015057466541416942,0.0025685261806007473
1772555554094319600,5.113319580078125,-0.016072598400712013,-0.0015185330704785883,0.004390334780281409
1772555554104250600,5.123250732421875,-0.015176526343822478,-0.00371251771710813,-0.0026708997096866367
1772555554114182700,5.1331826171875,-0.013534019833803175,-0.0009783161133993417,0.0032304332885891196
1772555554124114700,5.14311474609375,-0.020568156254291533,0.0004990538296289742,-0.010016038308106363
1772555554134045700,5.153045654296875,-0.01158931550681591,0.006409784843912348,0.005749686100520193
1772555554143977700,5.162977783203125,-0.013085691544413566,0.005645577272074297,0.003070575684914365
1772555554153909800,5.17290966796875,-0.010092939469218253,-0.005262222243985161,0.007085483015235513
1772555554163840500,5.182840576171875,-0.01982055275738239,-0.0019955668645445256,0.004311022466374561
1772555554173772500,5.1927724609375,-0.016827216160297392,0.005404434593115001,0.00023697796049527823
1772555554183704600,5.20270458984375,-0.021015900021791458,-0.002401298121223226,0.006100262237014249
1772555554193636600,5.21263671875,-0.02490530867576599,-0.0027069482706021516,0.00223343074102886
1772555554203567600,5.222567626953125,-0.01577858389019966,-0.006427968954574316,-0.0033967936982866377
1772555554213499600,5.232499755859375,-0.021015900021791458,0.005908913516532629,0.0029627861951943483
1772555554223431700,5.242431640625,-0.013383797708153724,0.0023354937428608537,0.00002940875757485628
1772555554233362700,5.25236279296875,-0.016076105532050133,-0.0035064098189119246,0.00407112189643085
1772555554243294700,5.262294677734375,-0.011887421670556068,0.0016935882432851939,-0.0069159990666899825
1772555554253226800,5.272226806640625,-0.023560908329486846,-0.004297916389629244,-0.00987100381422788
1772555554263157500,5.282157470703125,-0.01787467938661575,0.0008887837995775043,-0.004189953369973227
1772555554273089500,5.292089599609375,-0.010989596047997475,-0.005759330711700022,-0.006213559018913656
1772555554283021600,5.302021484375,-0.020416765084862707,-0.00022892251820303498,-0.009395285194413737
1772555554292952600,5.31195263671875,-0.016224574092030524,0.0023782734386622903,-0.00020666502062231302
1772555554302884600,5.321884521484375,-0.011586392897367476,-0.004138077052263543,0.0028768843102967363
1772555554312816600,5.331816650390625,-0.02356032380759716,0.000640517260087654,-0.0016861675552325322
1772555554322748700,5.341748779296875,-0.022362638455629347,0.013330715814046561,-0.010784077238268219
1772555554332679700,5.3516796875,-0.023859014493227002,0.0016154541063122451,-0.0016334007549565284
1772555554342611500,5.361611572265625,-0.016674655947089195,-0.0031020759348757564,0.004144913218426518
1772555554352543500,5.37154345703125,-0.013982348123192786,-0.001256785994907841,-0.009829110034415499
1772555554362474800,5.381474853515625,-0.021465981876850126,0.0009675572573672979,-0.011373668028716928
1772555554372406800,5.39140673828125,-0.01757423513531685,0.0010735292493365704,-0.0024479000421939417
1772555554382338800,5.4013388671875,-0.010391630154848099,0.0010767167202662676,-0.003555445725563913
1772555554392269600,5.41126953125,-0.008893500551581382,0.0050013245517853645,-0.007680001142551191
1772555554402201600,5.42120166015625,-0.02520341483950615,0.0011644589358009397,-0.00897163468855433
1772555554412133600,5.431133544921875,-0.01652151121199131,-0.00018490984654054044,-0.0012465294623747467
1772555554422064600,5.441064697265625,-0.01502396613061428,-0.0002570069683715701,-0.0009346505016088485
1772555554431996700,5.45099658203125,-0.02459901920557022,-0.0028063900570850816,-0.004294801983935758
1772555554441928700,5.4609287109375,-0.023100889602303505,-0.0006366722020320594,-0.009636099079810083
1772555554451859700,5.470859619140625,-0.02519289344549179,-0.0048193007820751515,-0.004046357347932644
1772555554461791700,5.480791748046875,-0.01950607998073101,-0.0024666093092411755,-0.0037725727746961636
1772555554471723500,5.4907236328125,-0.014418985974788665,0.00008795227808877826,-0.0029361721829045564
1772555554481655600,5.500655517578125,-0.027885201269388198,0.0011431786857545375,-0.003902149404538795
1772555554491586600,5.510586669921875,-0.02145136882960796,-0.0018793383400421589,-0.01005173067599535
1772555554501518800,5.520518798828125,-0.019953823748230935,-0.004066409188695252,-0.0005503273591399193
1772555554511450600,5.53045068359375,-0.019358195942640304,0.00124061117824167,-0.003511286923428997
1772555554521381600,5.540381591796875,-0.009185176974534987,-0.003243767694197595,0.006411319213872775
1772555554531314200,5.550314208984375,-0.016368366476893423,-0.007139889216748997,0.003792715947004035
1772555554541246200,5.56024609375,-0.017415829703211785,-0.0009938516092486678,-0.001583542864397168
1772555554551177200,5.57017724609375,-0.018913374784588814,0.004037356624146923,-0.002828190896939486
1772555554561109200,5.580109130859375,-0.01741758326888084,0.00051033327546902,0.0029537443722132592
1772555554571041000,5.590041015625,-0.015770400583744047,0.000028385844267904756,0.0061405029158573595
1772555554580972300,5.59997216796875,-0.011280687949061393,-0.00534231087602675,0.002872915954655036
1772555554590904300,5.609904296875,-0.022203648501634598,-0.004454787451773881,-0.0010736936461180448
1772555554600836400,5.61983642578125,-0.02115560075342655,0.006217632405832409,-0.00825321618693415
1772555554610768100,5.62976806640625,-0.015319734206795691,0.0020674904564395545,-0.00458881649444811
1772555554620699100,5.63969921875,-0.015468202766776084,-0.002994249912537634,-0.0036999185304390264
1772555554630631200,5.649631103515625,-0.01906125882267952,-0.004730389522761106,-0.0016907478322274981
1772555554640563200,5.659563232421875,-0.011879822885990142,0.0014406729281414299,-0.00402162476547528
1772555554650494200,5.669494140625,-0.010981412741541862,-0.00007711122366599739,-0.0004128414174774661
1772555554660426200,5.67942626953125,-0.011730769804120062,0.008473622038541361,-0.004391681920574046
1772555554670358300,5.689358154296875,-0.02594575763940811,-0.0025072427137289195,0.004919797447905876
1772555554680289300,5.699289306640625,-0.01262976447045803,-0.004234084772644565,0.0017303765897173434
1772555554690221000,5.709220947265625,-0.017567805394530296,0.004715292418329045,-0.0032593579889740793
1772555554700153000,5.719153076171875,-0.024004560443758965,0.00048771958486177024,-0.004717155581852421
1772555554710084000,5.729083984375,-0.022059856116771696,-0.0011558281047735362,0.004177797141298651
1772555554720016100,5.73901611328125,-0.01921674164533615,-0.0032404797585681077,0.003587503097951412
1772555554729948200,5.7489482421875,-0.011436755293607711,-0.002636632113903761,0.0023670487917494027
1772555554739879200,5.758879150390625,-0.002305354332923889,0.0015343699604272842,-0.003415571463992819
1772555554749811200,5.768811279296875,-0.012929624199867248,-0.00842932623908855,-0.005073686535097658
1772555554759743200,5.7787431640625,-0.020261866784095764,-0.002448397799115628,-0.0012792626881971954
1772555554769675300,5.78867529296875,-0.018615268620848655,-0.0016072342672385275,-0.005133399099390953
1772555554779606000,5.79860595703125,-0.01876490622460842,0.005594130212627351,-0.00680411792374216
1772555554789538000,5.8085380859375,-0.01696808593571186,-0.0003116871645208448,0.0060557837744709105
1772555554799470000,5.818469970703125,-0.015170096603035926,0.005113169162115082,0.00021910437708720564
1772555554809401300,5.8284013671875,-0.008136544704437256,-0.005783360041258856,-0.003006488339602947
1772555554819333000,5.8383330078125,-0.02504734749495983,-0.0012665767365600913,-0.006290012655453756
1772555554829265200,5.84826513671875,-0.018914543828368185,0.004653543160576373,-0.003425480936653912
1772555554839196200,5.858196044921875,-0.01996492966413498,-0.0019416812528390435,-0.00039723742296919227
1772555554849128200,5.868128173828125,-0.0084440032184124,-0.003929713264899328,0.0010896766665391623
1772555554859060200,5.878060302734375,-0.012632102558016776,0.010021746529685334,-0.0071415605840273195
1772555554868991200,5.8879912109375,-0.01652326477766037,0.0068744340804405505,0.0023326441986486314
1772555554878923300,5.89792333984375,-0.023553894066810608,0.002444488808978349,0.0015150624717585742
1772555554888855300,5.907855224609375,-0.016518588602542877,-0.002933213040838018,-0.007213082317123189
1772555554898787300,5.917787353515625,-0.025049101060628888,-0.0001571998557075858,-0.004568486092472449
1772555554908718000,5.927718017578125,-0.021903788772225378,0.00014028525352478027,-0.010304445061739534
1772555554918650000,5.937650146484375,-0.01397474933862686,-0.006319302682019769,-0.0032819351469632234
1772555554928582100,5.94758203125,-0.027143442991375923,-0.004440229203458875,-0.0022976276841945946
1772555554938513200,5.95751318359375,-0.01667173333764076,-0.0023433117231354116,0.0026895587443839758
1772555554948445200,5.967445068359375,-0.02056172651350498,-0.000887222030153498,-0.004488835851848125
1772555554958377200,5.977377197265625,-0.01352817461490631,0.002516111006774008,0.00645087490612641
1772555554968308200,5.98730810546875,-0.01876490622460842,-0.001415547620039433,0.002519006216758862
1772555554978240300,5.997240234375,-0.021906711381673813,-0.0013495514454320073,-0.001824575945502147
1772555554988172300,6.00717236328125,-0.019513678765296937,0.00471340185534209,-0.005126293505169451
1772555554998103000,6.01710302734375,-0.008590718212723732,0.002537455188902095,0.004662110059522092
1772555555008035000,6.02703515625,-0.015922960796952247,0.0024872319721616805,-0.000746114792721346
1772555555017967000,6.036967041015625,-0.026097148808836935,0.0003055679509881884,-0.00002075052708387375
1772555555027899400,6.0468994140625,-0.021755320212244987,-0.005384113324293866,0.004813665625732392
1772555555037830100,6.056830078125,-0.018911621218919754,-0.0042572190530598165,0.0011069383285939693
1772555555047762200,6.06676220703125,-0.01472118379175663,-0.006984041067911312,-0.00340099494936876
1772555555057694200,6.076694091796875,-0.019805939710140226,-0.0023495770671404896,-0.0036333058679010716
1772555555067625200,6.086625244140625,-0.021750644037127495,0.0029244908782653507,-0.008716993207205086
1772555555077557000,6.096556884765625,-0.01636369030177593,-0.000804530449071899,-0.0062059876338113095
1772555555087489000,6.106489013671875,-0.01546528015732765,-0.0011530333594884723,-0.006030311406496912
1772555555097420300,6.116420166015625,-0.014868483307957649,-0.001827242826623842,0.0003565857521723956
1772555555107352300,6.126352294921875,-0.0280418531358242,0.005668026565900072,-0.008438724255096166
1772555555117284400,6.136284423828125,-0.02041091986596584,0.002903119296673685,-0.007595533162914216
1772555555127215000,6.146215087890625,-0.014275193589925765,-0.0035375904084648936,-0.00359542154292576
1772555555137147100,6.156147216796875,-0.02175999638736248,-0.0033551556468009946,-0.0002640851631294936
1772555555147079200,6.1660791015625,-0.018919220003485678,0.0019420739784836768,-0.007730676450440659
1772555555157010200,6.17601025390625,-0.01637771882712841,-0.010342557715578004,-0.005945601398264989
1772555555166942200,6.185942138671875,-0.020117489877343176,0.0017359386808238923,0.002273415691545233
1772555555176874200,6.195874267578125,-0.020862755286693572,-0.0038883126754313707,0.008882796494476496
1772555555186805200,6.20580517578125,-0.014576222363114356,0.004872793668136,-0.009454769429843872
1772555555196737300,6.2157373046875,-0.013828034344315529,-0.0015178480838891118,-0.007405508749838918
1772555555206669000,6.2256689453125,-0.027444471764564514,-0.0018777948369272052,-0.0088848423210904
1772555555216601000,6.23560107421875,-0.023703531670570373,0.002852293291734531,-0.004743760460987687
1772555555226532000,6.245531982421875,-0.011582885766029357,0.0007244418170303106,0.00669924191031605
1772555555236464400,6.25546435546875,-0.015471709898114203,-0.000606614990485832,0.002423710882430896
1772555555246396400,6.265396484375,-0.010384615892171859,-0.006097567956428974,-0.0015025774495210497
1772555555256327200,6.2753271484375,-0.02774257792830467,0.0028615634435787797,0.003747369834780693
1772555555266259200,6.28525927734375,-0.01861293053328991,-0.00965373520120047,-0.006446938516525552
1772555555276191200,6.295191162109375,-0.01577156962752342,0.0019685966592282054,-0.004442275030072778
1772555555286122000,6.3051220703125,-0.018465046495199203,0.0020775551927275956,-0.005250586605118587
1772555555296054000,6.315053955078125,-0.01741758326888084,-0.0009342669091187417,-0.0013449026697780937
1772555555305986000,6.324986083984375,-0.015471709898114203,-0.0001764525454491377,-0.00036487865648232397
1772555555315917300,6.334917236328125,-0.024001053312420844,-0.003462543277721852,0.0009507339867297559
1772555555325849300,6.344849365234375,-0.020261866784095764,0.0006809223357122391,-0.0024775873609818515
1772555555335781000,6.354781005859375,-0.016070844835042952,0.001506696502212435,0.0034766905340831724
1772555555345712000,6.364712158203125,-0.021906711381673813,0.007489853431889787,-0.0013203801498748362
1772555555355644200,6.37464404296875,-0.023850246664881704,-0.0007149342031683773,-0.006960468396078795
1772555555365576200,6.384576171875,-0.017713351345062255,-0.005427906800247729,-0.0037261809162795543
1772555555375508200,6.39450830078125,-0.020256606087088583,0.002958795006666332,0.0002210497390013188
1772555555385439200,6.404439208984375,-0.012774725899100304,0.000989787355484441,-0.003641553106438368
1772555555395371300,6.414371337890625,-0.014720014747977257,-0.002128509061830118,0.003514949318394065
1772555555405303300,6.42430322265625,-0.009630582654476165,-0.004926587948296219,0.002431400998542085
1772555555415234000,6.434234130859375,-0.019658640193939207,-0.000337004268867895,-0.0075131064433138816
1772555555425166000,6.444166015625,-0.02489303371608257,0.0011024448165670036,0.009706278239190578
1772555555435098000,6.45409814453125,-0.010828852528333663,-0.004047658822452649,0.000969447820354253
1772555555445029400,6.464029296875,-0.016963994282484053,0.003282391804689541,-0.005287256220541894
1772555555454961400,6.47396142578125,-0.015617255848646164,0.002254857121547684,0.004336047309776768
1772555555464893200,6.48389306640625,-0.01965688662827015,0.0012196779880672692,0.000984974183049053
1772555555474824200,6.49382421875,-0.020853987458348273,0.0010729081948287783,-0.0005465553663205355
1772555555484756200,6.503756103515625,-0.007238134559988975,-0.0030814076061826197,0.002549054295150563
1772555555494688300,6.513688232421875,-0.0045434886485338204,0.0031554135573096573,0.0023664551367051897
1772555555504619000,6.523618896484375,-0.02414543021917343,-0.004875908073829487,0.0013117036530748008
1772555555514551000,6.533551025390625,-0.02998129676580429,-0.0030878190806601195,-0.005173685444006696
1772555555524483300,6.5434833984375,-0.02160042191147804,-0.00721500941272825,0.002190623645763844
1772555555534415000,6.5534150390625,-0.027135844206809995,0.0025041100417263805,0.00239643014986068
1772555555544346000,6.56334619140625,-0.01665828933417797,0.003233081903401762,-0.005141107481811195
1772555555554278100,6.573278076171875,-0.01650748268663883,-0.004055604666890577,-0.0012294230639468878
1772555555564210000,6.5832099609375,-0.011570610806345938,-0.0041183220390230415,0.007148501781467348
1772555555574141000,6.593140869140625,-0.02025192991197109,-0.00471009565340355,0.006966048753494396
1772555555584073000,6.603072998046875,-0.014565700969099997,0.0010031034947838634,0.00023475860394537448
1772555555594005000,6.6130048828125,-0.00947568435370922,-0.0066324328849557785,-0.007735014698840677
1772555555603936000,6.62293603515625,-0.012616320466995238,-0.004344979534903541,-0.009997881596907973
1772555555613868000,6.632867919921875,-0.0048345805495977395,-0.0021167181593365965,-0.008667491509672253
1772555555623800000,6.642800048828125,-0.010071896681189536,-0.000956661404017359,-0.008315289671672508
1772555555633731000,6.65273095703125,-0.013513561567664145,-0.0034722974867559967,0.00989446688820608
1772555555643662800,6.662662841796875,-0.015008768561482429,-0.0002284110615495592,-0.004708077226253226
1772555555653595000,6.672594970703125,-0.02069499750435352,-0.0009347692326176911,-0.0021000136197078974
1772555555663526100,6.682526123046875,-0.012613982379436492,-0.002995829948270693,-0.0065739715628325935
1772555555673458200,6.692458251953125,-0.023387889850139617,-0.000656071022246033,-0.011948988265218213
1772555555683390200,6.70239013671875,-0.01740297022163868,-0.0010582951475866138,-0.001815931414742954
1772555555693322000,6.712322021484375,-0.01875087769925594,0.00045219161375425755,-0.008573223655228503
1772555555703253000,6.7222529296875,-0.010371171888709068,-0.0030203798676375297,0.0034783527682069686
1772555555713185000,6.73218505859375,-0.015907763227820396,-0.003015959420846775,-0.007305455042002722
1772555555723117000,6.742116943359375,-0.024139585000276565,0.00018451712089590728,0.00008179196536075324
1772555555733048000,6.752048095703125,-0.020098785176873205,-0.005961785348085686,0.0011380093202926218
1772555555742980000,6.76197998046875,-0.023689503145217894,-0.005104912790423259,-0.009995191882899962
1772555555752912100,6.771912109375,-0.017257424271106717,-0.0003752813194878399,-0.012852371412306092
1772555555762843100,6.781843017578125,-0.007383680510520935,0.0023290731352288273,0.0012149561471771447
1772555555772775000,6.79177490234375,-0.021599837389588355,-0.0010734105183277279,-0.007022519047930836
1772555555782707000,6.80170703125,-0.00917816271185875,-0.001408551623672247,-0.004425981482397765
1772555555792638000,6.811637939453125,-0.014563947403430939,0.00348608855009079,-0.005105195918213575
1772555555802570000,6.821570068359375,-0.02144844622015953,-0.0015076189508195965,-0.008564469526614993
1772555555812502000,6.831501953125,-0.01097498300075531,0.0006377590474206954,-0.010777428301773034
1772555555822433000,6.84143310546875,-0.02504033323228359,0.006742140337126329,-0.006618883850215934
1772555555832365000,6.851364990234375,-0.028331191471219062,0.005278177864942699,-0.0023723962537245823
1772555555842297000,6.861297119140625,-0.02713175255358219,0.0009425506802741438,0.0007900087333749979
1772555555852229000,6.87122900390625,-0.01007306572496891,0.004107471851445734,-0.0009334586249431595
1772555555862160000,6.881159912109375,-0.01890051530301571,-0.007909695412311702,-0.0018710180362686514
1772555555872092000,6.891091796875,-0.018152911806106568,-0.004290682931244373,0.0012609872459899633
1772555555882024000,6.90102392578125,-0.016506313642859458,-0.00013708864944055675,-0.003379568568849936
1772555555891955200,6.910955078125,-0.012170330265164375,-0.0033781894625164567,-0.0015201770382933318
1772555555901887000,6.920886962890625,-0.01860591627061367,-0.003180721528502181,-0.0007083263658685609
1772555555911819000,6.930819091796875,-0.020701427245140073,-0.005602350051701069,-0.003137654138333164
1772555555921750000,6.94075,-0.021750644037127495,0.002442561713373288,-0.0025182390317786485
1772555555931682000,6.95068212890625,-0.026090134546160697,0.006307420447980985,-0.006812232731538824
1772555555941613800,6.96061376953125,-0.015018120911717414,-0.0024557499885093418,-0.004974057518946938
1772555555951545000,6.970545166015625,-0.024895956325531005,0.0011479644587263464,0.0016532060005469246
1772555555961477000,6.98047705078125,-0.020855741024017334,-0.000631384105561301,-0.0022485324120381845
1772555555971409200,6.9904091796875,-0.00753682524561882,-0.0022907230193726716,-0.005941509745037183
1772555555981340000,7.00033984375,-0.02459434303045273,-0.003552787977596745,-0.003877722782758064
1772555555991272000,7.01027197265625,-0.020852233892679213,-0.002301618872722611,-0.006391267373110168
1772555556001204000,7.020203857421875,-0.019954992792010306,-0.00531260985750705,0.006428763539018109
1772555556011135000,7.030135009765625,-0.017111878320574758,-0.0015559698708821088,0.0031191321009537204
1772555556021067000,7.04006689453125,-0.016962240716814993,-0.002283252098970115,-0.002298417702061124
1772555556030999000,7.0499990234375,-0.01756196017563343,0.0005962945258710533,0.002842114391014911
1772555556040931000,7.05993115234375,-0.01516775851547718,0.0014824662432540207,-0.001803944149427116
1772555556050862000,7.069862060546875,-0.024295652344822883,-0.004480606879619881,-0.007046904570516198
1772555556060794000,7.079794189453125,-0.014418401452898978,-0.0024521697919350116,-0.0012163717861287295
1772555556070726000,7.089725830078125,-0.009783142867684363,0.007611178256617859,0.003227620276995003
1772555556080657000,7.099656982421875,-0.013227145841717719,0.0004713164393324405,-0.0012488310173153876
1772555556090589000,7.1095888671875,-0.011430910074710846,0.0005552227299660444,-0.006405875853775069
1772555556100521000,7.11952099609375,-0.018014964640140532,-0.007423564996337517,-0.0025856965111102906
1772555556110452000,7.129451904296875,-0.00799041423201561,0.0017276275102049111,-0.001161097934935242
1772555556120384000,7.139384033203125,-0.016370120042562483,-0.005625904457224533,0.0034209417588543143
1772555556130316000,7.14931591796875,-0.024898878934979437,-0.006907870559161529,-0.0027960330598521977
1772555556140247000,7.1592470703125,-0.011280103427171706,0.0030042507167439905,0.0018156711198389528
1772555556150178800,7.1691787109375,-0.020855156502127645,-0.008580470813345164,-0.005908420326188206
1772555556160110800,7.17911083984375,-0.022649054181575774,-0.0035755569318309424,-0.0061499465976376086
1772555556170042000,7.1890419921875,-0.024295652344822883,0.002505105555569753,-0.003131968749640509
1772555556179974100,7.19897412109375,-0.0190577516913414,0.0013202157530933618,-0.004220412440318614
1772555556189906200,7.20890625,-0.021301731225848195,-0.0011141626538243145,0.0005491765816695987
1772555556199838000,7.218837890625,-0.032225276300311086,-0.0012604392567183821,-0.0010923983465880155
1772555556209769000,7.22876904296875,-0.015614917761087416,0.005592550176894292,0.0017357651508878916
1772555556219701000,7.238700927734375,-0.01636193673610687,-0.0021797734581865368,0.0067940257879905395
1772555556229633000,7.248633056640625,-0.023393735069036484,0.0018156528535299003,-0.00005222337758168578
1772555556239564000,7.25856396484375,-0.013518237742781639,-0.00031787944328971204,-0.008562533297855406
1772555556249496000,7.26849609375,-0.018307225584983825,0.0017492000211961566,-0.004092676141113042
1772555556259428000,7.278427978515625,-0.015014029258489608,-0.0026924813538324087,-0.007594382385443896
1772555556269359000,7.288359130859375,-0.02264437800645828,-0.0035321744478307663,-0.0011553714470472186
1772555556279291000,7.298290771484375,-0.020848142239451407,0.0043446781408041715,-0.004108668294688687
1772555556289223000,7.308222900390625,-0.004388005825877189,0.005064535114262253,-0.005538947692979127
1772555556299154000,7.31815380859375,-0.019352350723743438,-0.0006481434441171586,-0.004403961446834728
1772555556309086200,7.328086181640625,-0.01950081928372383,-0.004605548433540389,0.0031957547008525577
1772555556319018200,7.338018310546875,-0.01591243940293789,-0.0017708090648055075,-0.00008172346670180558
1772555556328949000,7.347948974609375,-0.026537293791770934,0.0067712477006018155,0.0011288122336845844
1772555556338881000,7.357881103515625,-0.0141167881578207,0.003722938646422699,0.0006944668038748205
1772555556348813000,7.36781298828125,-0.020551789641380307,0.0031220775432884693,-0.006833344018226489
1772555556358743800,7.377743896484375,-0.010526070189476013,0.00037135406304150817,-0.004520491365436465
1772555556368675800,7.38767578125,-0.0272837282449007,0.000621054507791996,0.003345894628111273
1772555556378607900,7.39760791015625,-0.011124620604515075,-0.006939672203222289,-0.004052225399715826
1772555556388539100,7.4075390625,-0.019805939710140226,0.006884982873918488,0.00045875835185870523
1772555556398471200,7.41747119140625,-0.032523966985940934,-0.006750223178882152,-0.016599636215809732
1772555556408403000,7.42740283203125,0.00009819967746734619,-0.003645425563957542,-0.004369145861780271
1772555556418335000,7.4373349609375,-0.029680267992615698,-0.006575971723673865,-0.006081164810899644
1772555556428266000,7.447265869140625,-0.015462357547879219,0.0045545488986652345,0.0026187676636502144
1772555556438198000,7.457197998046875,-0.010372340932488441,0.00003497998183593154,0.0005720003348309547
1772555556448130000,7.467130126953125,-0.02129413244128227,0.0011248210451565682,0.0014940470831934362
1772555556458061000,7.47706103515625,-0.008275076392292975,-0.0018788451496977358,-0.010539687722874804
1772555556467993000,7.4869931640625,-0.027130583509802818,-0.003301233502477407,-0.005466476111812516
1772555556477925000,7.496925048828125,-0.025189970836043355,-0.0016863730512093752,-0.0011697926980443298
1772555556487855900,7.50685595703125,-0.012920271849632263,-0.0078080525355879215,-0.0029311854805331677
1772555556497788000,7.516787841796875,-0.026238018584251403,-0.0020803499380126593,0.004005381450150162
1772555556507720000,7.526719970703125,-0.010225041416287422,-0.003348771571787074,-0.0031211824941448866
1772555556517651200,7.536651123046875,-0.02908113305568695,-0.0025354824275244025,-0.005215232163947075
1772555556527583200,7.546583251953125,-0.02040273655951023,-0.0008860255869105458,0.0006248721663840114
1772555556537515300,7.556515380859375,-0.0178594818174839,0.003645836555911228,0.002769674775889143
1772555556547446300,7.5664462890625,-0.023848493099212643,0.0029710608331952244,-0.0014110632411669939
1772555556557378300,7.57637841796875,-0.009033785805106163,-0.00017758505661040542,-0.002225557961827144
1772555556567310000,7.58631005859375,-0.02728898894190788,0.004941748984809965,-0.0034695940730161963
1772555556577241000,7.596240966796875,-0.01621463721990585,-0.005672428746381774,-0.010613657141383737
1772555556587173000,7.606173095703125,-0.013521744874119758,-0.0017579221837688236,0.004067404702538624
1772555556597105200,7.616105224609375,-0.02743804202377796,0.009574715148238464,-0.0006174195122905076
1772555556607037200,7.626037109375,-0.012470774516463279,0.00012121522687375544,0.0007611479650717228
1772555556616968200,7.63596826171875,-0.011271335598826407,-0.00198341063586995,0.0009141557028517126
1772555556626900200,7.645900146484375,-0.025485154390335083,0.00985028981976211,0.003735651997523382
1772555556636832300,7.655832275390625,-0.0114198041588068,0.0052374713952187445,0.00003433152786456048
1772555556646763000,7.665762939453125,-0.019497896674275397,-0.008066630406538024,0.004462541499966755
1772555556656695000,7.675695068359375,-0.01695581097602844,-0.005292681314330548,-0.0018477102259173987
1772555556666627000,7.685626953125,-0.020848726761341092,-0.0042536388564854855,-0.005840743651147931
1772555556676558300,7.695558349609375,-0.017854221120476722,-0.001042924048518762,-0.006691898854076862
1772555556686490400,7.705490478515625,-0.020547113466262815,0.0031462621364742515,-0.0045517450202256435
1772555556696422100,7.715422119140625,-0.03191898683011531,0.001338756056781858,-0.0032274284807499495
1772555556706353200,7.725353271484375,-0.014410218146443367,0.005116886356007307,-0.004374296960933134
1772555556716285200,7.73528515625,-0.021892682856321333,-0.004253447060240432,-0.0026047665377613156
1772555556726217200,7.74521728515625,-0.02413841595649719,-0.0034352808114606883,-0.0015458503356669097
1772555556736148200,7.755148193359375,-0.011267828467488288,0.00126835770169273,-0.0003728701666928828
1772555556746080300,7.765080322265625,-0.01859890200793743,0.0016712850799318402,-0.004628116458375007
1772555556756012300,7.77501220703125,-0.01605272465646267,0.004214046631613746,0.008839907200820743
1772555556765943300,7.784943359375,-0.01605214013457298,-0.0037695177345070984,0.002828236562712118
1772555556775875000,7.794875,-0.01575169588327408,0.001216490517137572,-0.0026710184406954795
1772555556785807000,7.80480712890625,-0.015452420675754546,-0.0006798080908600241,-0.011290259495005011
1772555556795738000,7.814738037109375,-0.025927637460827827,-0.00577751482236199,0.0045294418568722905
1772555556805670100,7.824670166015625,-0.013505378261208534,-0.0015645550361368804,-0.008398739304579794
1772555556815602200,7.834602294921875,-0.01649871485829353,-0.00041202400014735753,-0.0037536443119402974
1772555556825534200,7.8445341796875,-0.026824294039607045,0.00592521619736217,0.0008960720568895339
1772555556835465200,7.85446533203125,-0.011260229682922363,-0.006897303499374538,-0.0021653978729620576
1772555556845397200,7.864397216796875,-0.014255904367566108,-0.008359000949235633,-0.012185774429468438
1772555556855329300,7.874329345703125,-0.015154314512014388,-0.003517807995760813,0.007296367553249001
1772555556865260000,7.884260009765625,-0.018446341794729232,0.00021547851474024355,-0.008695877353940158
1772555556875192000,7.894192138671875,-0.01949380502104759,-0.002631919406168163,-0.000506113758077845
1772555556885124000,7.9041240234375,-0.020393968731164933,-0.006312270153034478,0.0007208616204559803
1772555556895055400,7.914055419921875,-0.01979483379423618,-0.006979675420047715,0.0005163702906109392
1772555556904987100,7.923987060546875,-0.022191958063840864,-0.0017764533543027936,-0.0007217932022176683
1772555556914919200,7.933919189453125,-0.016207038435339927,-0.0021840386413503436,0.0006167619251646101
1772555556924850200,7.94385009765625,-0.0106704470962286,0.0002425674510654062,0.0031629027440212665
1772555556934782200,7.9537822265625,-0.016058569875359533,0.003135402815742418,0.0006759721659589558
1772555556944714200,7.96371435546875,-0.014414894321560859,-0.006875584857910871,0.006177236463362351
1772555556954645200,7.973645263671875,-0.00992751977443695,-0.005414818989811465,0.004251803092425689
1772555556964577300,7.983577392578125,-0.015763970842957494,-0.0003261632144451141,-0.0003409406584687531
1772555556974509300,7.99350927734375,-0.01980243257880211,0.005080673398310319,-0.00138653158810921
1772555556984440000,8.003440185546875,-0.02608604289293289,-0.0012744677820708602,-0.008288602594146504
1772555556994372000,8.0133720703125,-0.019054244560003278,-0.006630670186132192,0.004563983447290957
1772555557004304100,8.02330419921875,-0.012023030748963355,-0.005441761795664206,-0.002089528758311644
1772555557014236200,8.033236083984375,-0.01187339314520359,-0.004370661965431645,-0.0012757464237045497
1772555557024167400,8.04316748046875,-0.017708675169944763,-0.004752373025706038,0.0012141524295788257
1772555557034099200,8.05309912109375,-0.019352350723743438,0.005330711769778281,-0.00632976927710697
1772555557044031200,8.06303125,-0.014265841239690779,-0.0002952931521460414,-0.0029980858374387023
1772555557053962200,8.072962158203126,-0.022197218760848045,-0.004778000657306984,-0.0040524080628063525
1772555557063894300,8.082894287109376,-0.01935001263618469,-0.0012475249762181192,-0.008044582971511408
1772555557073826000,8.092825927734374,-0.022643208962678907,-0.001801542129786685,-0.0011007003840524702
1772555557083757000,8.102757080078124,-0.016357845082879064,0.0018973397876136005,0.003684451533248648
1772555557093689000,8.112689208984374,-0.015908932271599768,-0.005555597433680668,-0.008283387562911956
1772555557103621000,8.12262109375,-0.01875321578681469,-0.002342882464872673,-0.008908214063523337
1772555557113552100,8.13255224609375,-0.01845160249173641,0.0020234138526953756,-0.0005620908621698618
1772555557123484200,8.142484130859375,-0.02982172228991985,-0.009018569969665258,-0.009470788982883095
1772555557133416200,8.152416259765625,-0.025931144592165944,-0.0018847177680581808,-0.004696012329123914
1772555557143347200,8.16234716796875,-0.015607903498411178,-0.001297054073214531,0.005129097383609041
1772555557153279200,8.172279296875,-0.014559271228313445,0.0006104509153869003,-0.002913083568261936
1772555557163211000,8.1822109375,-0.021292963397502897,0.002029998857108876,-0.006897020371584221
1772555557173142300,8.192142333984375,-0.021741876208782193,-0.0012601561289280652,0.0002529701140709221
1772555557183074300,8.20207421875,-0.015305705681443214,-0.009383795686019583,-0.0006601809417828917
1772555557193006300,8.21200634765625,-0.02323474511504173,-0.0041226420211140065,-0.0024108148682396857
1772555557202937000,8.22193701171875,-0.008868950632214545,-0.0065045504552777855,-0.004628901909664273
1772555557212869000,8.231869140625,-0.012758943808078765,-0.006799313884461298,-0.005923353033838793
1772555557222801200,8.24180126953125,-0.015453005197644233,-0.0049247978500090535,-0.005362696076929569
1772555557232732400,8.251732421875,-0.014704817178845404,0.00046954460735432803,0.000011544307321310042
1772555557242664200,8.261664306640625,-0.02503039636015892,0.005552875753631815,-0.0014365538754500448
1772555557252596200,8.27159619140625,-0.020390461599826812,-0.004362396460585296,-0.003886997501179576
1772555557262527200,8.28152734375,-0.017249825486540794,-0.0014958645809441803,-0.007011705392971634
1772555557272459300,8.291459228515626,-0.01695113480091095,0.0039527562137693165,-0.010012448978377506
1772555557282391000,8.30139111328125,-0.022027122890949248,-0.013717203514138236,-0.0138704624136677
1772555557292323000,8.311322998046874,-0.0034703064590692516,-0.0050511459097266195,-0.005677949738292954
1772555557302254000,8.321254150390626,-0.019933365482091903,-0.008391222718404605,0.014583017430081963
1772555557312186400,8.331186279296874,-0.022178514060378074,-0.011883996737608685,-0.004748783695977181
1772555557322118400,8.341118408203124,-0.020831191104650496,-0.00041129334778524935,-0.0052822192858206106
1772555557332049200,8.351049072265624,-0.0230792622923851,-0.008046053409390151,-0.001386426556832157
1772555557341981200,8.360981201171874,-0.021584639820456504,-0.00929515842134133,-0.00931357542744372
1772555557351913200,8.370913330078125,-0.020242577561736107,0.007371232020901516,-0.0012584299627225845
1772555557361844200,8.38084423828125,-0.021890929290652273,0.003614993893075734,-0.0014662640271242706
1772555557371776000,8.39077587890625,-0.01530278307199478,-0.015368733580829574,-0.007447356863878667
