time,seconds_elapsed,z,y,x
1772555828371485200,0.075485107421875,-0.3118558721512556,-0.045764702961593864,-0.6397988826852291
1772555828381416200,0.085416259765625,-0.31396774973869324,-0.12421543160304427,-0.523271448301524
1772555828391348200,0.09534814453125,-0.47165246635377406,-0.2940330690823495,-0.33179712867885824
1772555828401279200,0.105279296875,-0.6686258217841387,-0.4357477708883583,-0.2210268330497667
1772555828411211300,0.115211181640625,-0.9057482322514057,-0.4823088849246502,-0.22719534735055638
1772555828421142000,0.12514208984375,-1.0730950957030057,-0.40210283704847094,-0.26896875218627975
1772555828431073300,0.1350732421875,-1.1883172196418046,-0.3145698072850704,-0.33403771067988125
1772555828441005300,0.14500537109375,-1.3187071020960808,-0.3085175215087831,-0.4157616157731041
1772555828450936000,0.15493603515625,-1.447869488582015,-0.3245733149051666,-0.4895131902802735
1772555828460868000,0.1648681640625,-1.4609510884732007,-0.363064373601973,-0.4851276321398094
1772555828470799000,0.174799072265625,-1.3469365867584944,-0.3461887882553041,-0.3606535861331969
1772555828480731100,0.184731201171875,-1.2431307598471641,-0.35363398969471455,-0.23084424351323396
1772555828490662100,0.194662109375,-1.166345041808486,-0.4440063345372677,-0.19372432703915982
1772555828500593200,0.20459326171875,-1.1490677437931298,-0.526286996730417,-0.15233027690984308
1772555828510525200,0.214525146484375,-1.2209884861439466,-0.5554056853175163,-0.09314929874259978
1772555828520456200,0.224456298828125,-1.2762024238437413,-0.5714549028426409,-0.09683248076736926
1772555828530388200,0.23438818359375,-1.281191902694106,-0.585414162351191,-0.10169520969921722
1772555828540319200,0.2443193359375,-1.1587351513266562,-0.5558597126953303,-0.07182945190474856
1772555828550250200,0.254250244140625,-1.0310434219151734,-0.5028215115994215,-0.08942891737944446
1772555828560182000,0.26418212890625,-1.0084989971518517,-0.525729362847656,-0.12740429077222942
1772555828570113300,0.27411328125,-1.1089525910258293,-0.72389748102054,0.0017084341859677804
1772555828580045300,0.28404541015625,-0.9765122057825326,-0.8823413454398512,0.45037575997132806
1772555828589976000,0.29397607421875,-0.6080909813225269,-0.9963669530704616,1.0528747299730776
1772555828599908000,0.303908203125,-0.13448679637908934,-1.140728223862499,1.5155173759192226
1772555828609839000,0.313839111328125,0.2029898392409086,-1.3141679973617195,1.7133507091797888
1772555828619770400,0.323770263671875,0.43405952554047106,-1.386532245696336,1.6564553942643105
1772555828629702100,0.3337021484375,0.6445744995892048,-1.23227954935655,1.4254483979374168
1772555828639633200,0.343633056640625,0.8586515500336885,-0.8938659251473844,1.2591538200177252
1772555828649565200,0.353565185546875,1.0052806196272372,-0.5178939930468798,0.9951982015520333
1772555828659496200,0.36349609375,1.0006658193081617,-0.24400705541446804,0.5382649827612563
1772555828669427200,0.37342724609375,1.0753542728066443,-0.1124954754538834,0.2342861275954172
1772555828679359200,0.383359130859375,1.1402297728210686,-0.05989084346964955,0.06822196089811623
1772555828689290200,0.393290283203125,1.1373282061606644,-0.016355506995320318,-0.11215389547459781
1772555828699222000,0.403221923828125,1.001318145737052,0.008718582376092672,-0.26887071690559383
1772555828709153300,0.4131533203125,0.7350894677728415,0.04276376757994294,-0.2561660605680197
1772555828719084300,0.423084228515625,0.29085692326426504,0.11707856546044348,-0.12326667951084673
1772555828729016300,0.433016357421875,-0.17924539103806017,0.15757015032470226,0.038352983666677026
1772555828738947000,0.442947021484375,-0.5021159936785697,0.1513840090356767,0.1306878059549257
1772555828748879000,0.452879150390625,-0.6249445009678601,0.07427066647782922,0.2524528121985495
1772555828758810400,0.462810302734375,-0.569805966591835,-0.016548691479861734,0.4106366374421864
1772555828768742100,0.4727421875,-0.39515491760671134,-0.1356267601944506,0.4610929322861135
1772555828778673200,0.482673095703125,-0.14948855067789554,-0.24022198391780256,0.3962439549524337
1772555828788604200,0.492604248046875,0.04234042760133743,-0.3752475633487105,0.2854593568033539
1772555828798536000,0.502535888671875,0.15165245071351527,-0.4741660566098988,0.20018937660111114
1772555828808467200,0.51246728515625,0.16134674625396728,-0.5086246449202299,0.15529089854741468
1772555828818399200,0.522399169921875,0.051481765434145926,-0.484509902100265,0.10734466856196521
1772555828828330000,0.532330078125,-0.15836802270412445,-0.45656990190371866,0.07777655570693313
1772555828838261200,0.54226123046875,-0.47206981498301026,-0.4834634617872536,0.11304112663790583
1772555828848193300,0.552193359375,-0.8299877656072377,-0.5189788656741381,0.17713455463023856
1772555828858124300,0.562124267578125,-1.0890817693859338,-0.5070780000001192,0.22510754475845024
1772555828868056000,0.57205615234375,-1.2572685907930135,-0.5066574365004897,0.29932430735826493
1772555828877987000,0.581987060546875,-1.3045610878437757,-0.5122850671239197,0.3462874628568068
1772555828887919000,0.591919189453125,-1.2442138789087533,-0.5041134511061013,0.32465112938173113
1772555828897850000,0.60185009765625,-1.11997316673398,-0.48400867457985874,0.22235651075094937
1772555828907781000,0.611781005859375,-0.9651841715604066,-0.493157903458178,0.1214876506069675
1772555828917713200,0.621713134765625,-0.7683002479791641,-0.5430690585747361,0.0708283074716106
1772555828927644200,0.63164404296875,-0.588586654907465,-0.5763359528824686,0.018590627369936556
1772555828937576000,0.641575927734375,-0.4408803114712238,-0.6320644159756601,-0.05005721252374351
1772555828947507200,0.651507080078125,-0.31661212676763534,-0.6884041428349912,-0.10978986975699663
1772555828957438200,0.661438232421875,-0.21029870094954967,-0.7187627484805882,-0.10892746250769123
1772555828967370000,0.671369873046875,-0.11100947467982768,-0.744362176900357,-0.05233447327334433
1772555828977301200,0.68130126953125,-0.008604162216186522,-0.7932967420697212,0.015238503930438308
1772555828987233300,0.6912333984375,0.06284311740398407,-0.834892196522653,0.03531465715039521
1772555828997164300,0.701164306640625,0.11007833130955695,-0.8325355503939091,0.020343097060453147
1772555829007095000,0.711094970703125,0.09804536368846893,-0.8204473454542458,0.032112280912511046
1772555829017027000,0.721027099609375,0.1304237847238779,-0.7941277860663831,0.02670468624792993
1772555829026958300,0.730958251953125,0.24099136085510253,-0.7348026136554777,0.003516556753590703
1772555829036890000,0.74089013671875,0.40924189514815806,-0.6703124596968293,-0.008916333437897264
1772555829046821000,0.750821044921875,0.5901280391305684,-0.6378560049891472,-0.017796189056616275
1772555829056753200,0.760753173828125,0.698073450064659,-0.6406481199257076,-0.036984764053393154
1772555829066684200,0.77068408203125,0.7188847674250602,-0.659763447023183,-0.003943422129843384
1772555829076615200,0.780615234375,0.670230918893218,-0.6819044055521488,0.05951391818234696
1772555829086547200,0.790547119140625,0.6255477275580167,-0.6851721751764416,0.12375639925654977
1772555829096478200,0.800478271484375,0.6343424439102411,-0.6399721203602851,0.11910797066250815
1772555829106410200,0.81041015625,0.7197527824312449,-0.5938026359900832,0.04427320402851328
1772555829116341000,0.820341064453125,0.8766215064883232,-0.5756571768380702,-0.010914576316718012
1772555829126272300,0.830272216796875,1.0346090054422616,-0.5401863427452743,-0.07409883530857041
1772555829136204300,0.840204345703125,1.0731155539691448,-0.6096759124264121,-0.0910418416019529
1772555829146135000,0.850135009765625,1.0946657069981098,-0.630900632893294,-0.11112462549209594
1772555829156067000,0.860067138671875,1.061367248508334,-0.6658265464544296,-0.16396474673263728
1772555829165998300,0.869998291015625,0.9237322172313928,-0.7464214475177228,-0.2553095533365384
1772555829175929000,0.87992919921875,0.5723679260343313,-0.5869800964936613,-0.5894393262140453
1772555829185861000,0.889861083984375,0.22357260854244232,-0.7550786550953984,-0.5656376679312437
1772555829195792100,0.899792236328125,0.1878705960422754,-0.9635282210469245,-0.22860041010919957
1772555829205724200,0.90972412109375,0.09765022689104079,-1.106920208415389,-0.01986914113946259
1772555829215655200,0.9196552734375,0.07375263395309448,-1.0254553926497698,0.12148144006188959
1772555829225587200,0.929587158203125,0.045055531778931616,-1.060799531622976,-0.00010499474443495273
1772555829235518200,0.939518310546875,-0.014753917017579077,-1.1270138790257274,-0.1035491852691397
1772555829245449000,0.949448974609375,-0.06885317147374152,-1.1475808662362397,-0.15390422996198758
1772555829255381000,0.959381103515625,-0.14411913259923456,-1.1780435167782008,-0.24226046747546642
1772555829265312300,0.969312255859375,-0.16265081458985806,-1.1675703458197415,-0.4109149429269135
1772555829275244300,0.979244384765625,-0.16998831787109375,-1.0807182840578258,-0.416814814620465
1772555829285175000,0.989175048828125,-0.2976005523055792,-1.029825132166594,-0.450171944494918
1772555829295106000,0.99910595703125,-0.3919681042641401,-1.1285877042137085,-0.5868651648771017
1772555829305038300,1.009038330078125,-0.4369418029785156,-1.1790952177882195,-0.7178676993370056
1772555829314969000,1.018968994140625,-0.4552969593584537,-1.176978517895192,-0.725016913504526
1772555829324901000,1.028901123046875,-0.48532910952866076,-1.1921350243642925,-0.6809207282770424
1772555829334832000,1.03883203125,-0.4758808977037668,-1.2568245002873242,-0.6338900970328599
1772555829344763100,1.04876318359375,-0.4594020565897226,-1.3294263567700981,-0.5667941079573705
1772555829354695200,1.058695068359375,-0.47454175805449483,-1.405422093474865,-0.5206405152760446
1772555829364626200,1.068626220703125,-0.5101970088034868,-1.4771303621187806,-0.49071175241507586
1772555829374558200,1.07855810546875,-0.5855524017781019,-1.5428981347978115,-0.46699448448009784
1772555829384489000,1.088489013671875,-0.6543138033151626,-1.5434262503251432,-0.4586236195631325
1772555829394421000,1.0984208984375,-0.674278148457408,-1.4767866632476447,-0.47764929561577735
1772555829404352300,1.108352294921875,-0.6430518200665712,-1.4147256361320615,-0.551810583434999
1772555829414283000,1.118282958984375,-0.6319400589436293,-1.365350487588346,-0.6004964710729196
1772555829424215000,1.128215087890625,-0.6731207951158285,-1.3204802492484449,-0.6163812552839517
1772555829434146000,1.13814599609375,-0.7404033562719822,-1.2966852399021387,-0.6380672365870327
1772555829444078000,1.148078125,-0.7693792753875255,-1.3123182778418063,-0.7096566280916333
1772555829454009000,1.158009033203125,-0.7800923925817013,-1.314004185102135,-0.8073362272076309
1772555829463940000,1.167940185546875,-0.7833037558436393,-1.3072380519680677,-0.8664868467692285
1772555829473872100,1.1778720703125,-0.744236066302657,-1.2519355592019856,-0.8584455791328102
1772555829483803100,1.18780322265625,-0.6989858887344599,-1.13507531266734,-0.8157617449212818
1772555829493735200,1.197735107421875,-0.6715151134848594,-1.0094788019694387,-0.7435096517242491
1772555829503666200,1.207666259765625,-0.636492899942398,-0.925477599593997,-0.6623376814253628
1772555829513597200,1.21759716796875,-0.636119974976778,-0.8579223589763045,-0.578255741963908
1772555829523529000,1.227529052734375,-0.6908592809021472,-0.7724535682663322,-0.4291455961443484
1772555829533460200,1.237460205078125,-0.7547843483239411,-0.6338002998575568,-0.25940332545619454
1772555829543392300,1.247392333984375,-0.7969453277051448,-0.46324587253630156,-0.10969272039229981
1772555829553323000,1.257322998046875,-0.7994546801775694,-0.288308553955704,-0.07828862428176216
1772555829563255000,1.267255126953125,-0.7936381028532982,-0.14031608705446122,-0.1498086677440442
1772555829573186000,1.27718603515625,-0.7519131768018007,-0.021669103233516215,-0.28788621862409636
1772555829583117300,1.287117431640625,-0.7018699197381735,0.09145107998996972,-0.413972248138301
1772555829593049000,1.297049072265625,-0.6193851132750511,0.1755021128565073,-0.39289964949321
1772555829602980000,1.30697998046875,-0.5235767148584127,0.18772972626686096,-0.31394849704895167
1772555829612912000,1.316912109375,-0.41189913165867326,0.19483722018450497,-0.2198323808345012
1772555829622843400,1.326843505859375,-0.31673721445202824,0.16659268408343195,-0.13852540424540638
1772555829632774100,1.336774169921875,-0.3008247750490904,0.14548355282023548,-0.059171013895655045
1772555829642706200,1.3467060546875,-0.3036673049986362,0.16652780215367674,-0.02596574098151177
1772555829652637200,1.35663720703125,-0.3430056281745434,0.25644758092314,0.047852633417863395
1772555829662569000,1.36656884765625,-0.3744663498431444,0.353135100261867,0.10732139728423207
1772555829672500200,1.376500244140625,-0.37721769437789915,0.45564460375234483,0.12566277173398993
1772555829682431200,1.38643115234375,-0.3428635893553495,0.5320778550915419,0.15602029053419827
1772555829692363300,1.39636328125,-0.2412321838736534,0.5756010627366602,0.1916241033568978
1772555829702294000,1.4062939453125,-0.11857844862937926,0.587586830215156,0.24875574777889994
1772555829712226000,1.41622607421875,0.054610126587748525,0.562458672568947,0.3077197221945971
1772555829722157300,1.4261572265625,0.23882395368814466,0.5434564504571259,0.3805212659679353
1772555829732089000,1.436089111328125,0.36542671881914135,0.5140783802814781,0.4866168843168765
1772555829742020000,1.44602001953125,0.4615244555711746,0.5146234469436108,0.57093891614452
1772555829751951000,1.455951171875,0.5590770673066378,0.5316849102512001,0.6125872698284686
1772555829761883100,1.465883056640625,0.6182353587180376,0.5604356423087418,0.6072803590593859
1772555829771814100,1.475814208984375,0.6764788733720779,0.5959658053733408,0.5707673589698969
1772555829781746200,1.48574609375,0.6874895122081041,0.5948740646138787,0.5486014121301472
1772555829791677200,1.49567724609375,0.6725351041823625,0.5638686854973435,0.5474195819344371
1772555829801608200,1.505608154296875,0.6541559824049472,0.5309133413568139,0.5944179914094507
1772555829811540200,1.515540283203125,0.6492834079325199,0.521597523739934,0.6392246629938483
1772555829821471000,1.525470947265625,0.6364385394066572,0.5222400594271719,0.6401790411092341
1772555829831403000,1.535403076171875,0.6220113701254129,0.5375156622312963,0.6466456067748367
1772555829841334000,1.545333984375,0.5844038162648677,0.5470226185061037,0.6641553253065794
1772555829851265000,1.55526513671875,0.541183683219552,0.5604892721921205,0.6565905891407281
1772555829861197000,1.565197021484375,0.46198155168890953,0.5393982611075043,0.6347942793309688
1772555829871128000,1.575128173828125,0.3669634268671274,0.4787872866697609,0.6212932119186967
1772555829881060000,1.58506005859375,0.2388876665741205,0.39219329132214187,0.6291990896724164
1772555829890990800,1.594990966796875,0.10756547170579432,0.3141672178335488,0.6088164460528641
1772555829900923100,1.604923095703125,-0.03499181840419769,0.25215499829575416,0.5782344799801707
1772555829910854100,1.614854248046875,-0.15263386296629905,0.20658567177578804,0.5590701991744339
1772555829920785000,1.624784912109375,-0.22863865976035594,0.16752295067086814,0.5126601475140079
1772555829930717000,1.634717041015625,-0.28605975211560725,0.10858224753290414,0.4461228517672047
1772555829940648200,1.644648193359375,-0.3271796980112791,0.04145107754617929,0.39531883946415036
1772555829950580200,1.654580322265625,-0.35986791564822196,-0.03319324454963207,0.346537419029884
1772555829960511000,1.664510986328125,-0.3374865724921226,-0.10442191298305988,0.3069539985191077
1772555829970442000,1.67444189453125,-0.32539865981340405,-0.19592063150703906,0.2933852726981044
1772555829980374000,1.6843740234375,-0.31426234877109527,-0.320546981998533,0.33347653313316405
1772555829990305000,1.694304931640625,-0.29485739107728004,-0.47492871154546734,0.4439410872813314
1772555830000237000,1.704237060546875,-0.2787193262249231,-0.5939714166857302,0.6146056239135563
1772555830010168000,1.71416796875,-0.16052490847706793,-0.6524918485850095,0.7299152800053358
1772555830020099000,1.72409912109375,-0.004219663521647453,-0.7265534023568033,0.7761887362066656
1772555830030030800,1.73403076171875,0.15431611696481703,-0.8183227545157075,0.759649104816094
1772555830039962000,1.743962158203125,0.31157062546908854,-0.893567380592227,0.7649976262371987
1772555830049894100,1.75389404296875,0.4204606237769127,-0.954754255221784,0.7526200829621404
1772555830059825200,1.7638251953125,0.4592407285481691,-1.004884752177447,0.7273848847448825
1772555830069756000,1.773755859375,0.4588981987208128,-1.0433268571659922,0.6895655878297984
1772555830079688200,1.783688232421875,0.4347416625857353,-1.0438343682967126,0.677847166050598
1772555830089619200,1.793619140625,0.4167816430032253,-1.0334821933694183,0.6614721506372093
1772555830099551000,1.803551025390625,0.3711158703714609,-1.0375459356769918,0.6440447766266763
1772555830109482000,1.81348193359375,0.35497020673453805,-1.0310881378397345,0.6189065359778702
1772555830119413200,1.823413330078125,0.3173310886919498,-1.0330261201649904,0.5449552376475185
1772555830129345300,1.83334521484375,0.20955694267153738,-1.0398724789284168,0.5022332999153062
1772555830139276000,1.843276123046875,0.09606967970132828,-1.0251701459676026,0.47140696716010566
1772555830149208000,1.8532080078125,0.03633738779425621,-0.9842007144585251,0.44325829264894123
1772555830159139000,1.86313916015625,-0.020381693771481513,-0.981975001233071,0.3584025192707777
1772555830169070800,1.87307080078125,-0.07630114939212798,-0.9771858672603965,0.245334760354273
1772555830179002000,1.883002197265625,-0.15345160908997058,-0.9341431366086006,0.1605894981458783
1772555830188933000,1.89293310546875,-0.21582067924141882,-0.9137915457144379,0.11702756592556833
1772555830198865200,1.902865234375,-0.27303952702283857,-0.9002658553175628,0.10058361346181481
1772555830208796000,1.9127958984375,-0.35497429838776584,-0.9092476186744868,0.08435523997750133
1772555830218728200,1.922728271484375,-0.4323422002285719,-0.9108983084909618,0.10202102585379033
1772555830228659200,1.9326591796875,-0.4812655133515596,-0.8966326133817434,0.11364216127097607
1772555830238590000,1.94258984375,-0.5230255107164382,-0.8775216701984405,0.08909432426337152
1772555830248522000,1.95252197265625,-0.5995008476316929,-0.8734700567200779,0.07633198292180896
1772555830258453200,1.962453369140625,-0.6885071648180484,-0.8729393108442425,0.1254733592422679
1772555830268385300,1.97238525390625,-0.7608154451817274,-0.862346897420287,0.13344927002489565
1772555830278316000,1.98231591796875,-0.7785697130590676,-0.8730795960977673,0.1428069540221244
1772555830288247000,1.9922470703125,-0.7700655040860176,-0.8842330044053495,0.12254022839982062
1772555830298179000,2.002178955078125,-0.7632143230170011,-0.9128232852041721,0.08051569834724068
1772555830308110000,2.012110107421875,-0.7498989143699407,-0.9219307207673787,0.09427906995750963
1772555830318042000,2.0220419921875,-0.7274263857990503,-0.900162687204033,0.1287213647201657
1772555830327973000,2.03197314453125,-0.714248924317956,-0.8645156197614967,0.16061163691245017
1772555830337903900,2.04190380859375,-0.7460901697367429,-0.7993652483284472,0.16465740517191588
1772555830347836000,2.0518359375,-0.8589970024704933,-0.7459852480575442,0.09806494517177343
1772555830357767200,2.06176708984375,-1.0337848295778036,-0.6785086256340146,-0.026480449037998913
1772555830367699200,2.07169921875,-1.2015724225342272,-0.5994935411080717,-0.15674802028685808
1772555830377630000,2.0816298828125,-1.3519231429994105,-0.5485901600837707,-0.2866022614944726
1772555830387562000,2.09156201171875,-1.420513279622793,-0.5444257338806987,-0.40464090415872633
1772555830397493200,2.1014931640625,-1.4121212988525629,-0.5438271834656596,-0.4447382290083915
1772555830407424000,2.111424072265625,-1.3703332444369791,-0.5375777676820754,-0.4190891162279993
1772555830417356000,2.12135595703125,-1.3386235164433717,-0.5557470461010933,-0.3959909300394356
1772555830427287000,2.131287109375,-1.3597382006645202,-0.6009343875661493,-0.35495815097056327
1772555830437219000,2.141218994140625,-1.3770698592156172,-0.5873927689477801,-0.23801314876191318
1772555830447150000,2.151150146484375,-1.3750211099922656,-0.45679099730849265,0.0001603781934827566
1772555830457081000,2.1610810546875,-1.3146832534074782,-0.21286942822039126,0.28174261956885455
1772555830467013000,2.17101318359375,-1.1881284190714358,0.07630728687196969,0.5493151864226907
1772555830476944000,2.18094384765625,-1.0987819101452827,0.2978141950562596,0.736184496467933
1772555830486876000,2.1908759765625,-0.9804811094135045,0.4773971474856138,0.8158561452064663
1772555830496807200,2.20080712890625,-0.8050105607390403,0.6120543319955468,0.7954321466632187
1772555830506738000,2.210738037109375,-0.5884060376435518,0.7176110942274332,0.7424446528412402
1772555830516670000,2.220669921875,-0.3360761211723089,0.8045958424583077,0.6377396851330995
1772555830526601000,2.23060107421875,-0.03393792543709278,0.8983513999983668,0.5378012742396444
1772555830536533000,2.240532958984375,0.36428222495913504,0.9888897490575909,0.4201482698921114
1772555830546464000,2.250464111328125,0.770898447778821,1.026952353209257,0.2582685858052224
1772555830556396000,2.26039599609375,1.160067276713252,1.000881507885456,0.11952500876449047
1772555830566327000,2.2703271484375,1.494986629065871,0.941682592202723,0.006552271187677979
1772555830576258300,2.28025830078125,1.8027946871310472,0.8956479862585663,-0.10156747340001165
1772555830586190000,2.290190185546875,2.0785598397254943,0.8079220642715692,-0.16693762506358326
1772555830596121000,2.30012109375,2.271400040873885,0.7107391626313329,-0.2394181201890111
1772555830606053000,2.31005322265625,2.4072329911649226,0.6451923392266035,-0.29213622248508037
1772555830615983900,2.31998388671875,2.4881261445224285,0.588213729941845,-0.3408963809356093
1772555830625915100,2.3299150390625,2.4831091931432483,0.5251663221374154,-0.38998701344951986
1772555830635847200,2.33984716796875,2.4040514385193585,0.43257016376554963,-0.4562263491630554
1772555830645778200,2.349778076171875,2.2795605509757992,0.37041678219139573,-0.5055296015143395
1772555830655710000,2.3597099609375,2.1356845794826746,0.34369477948248384,-0.5094596344396471
1772555830665641000,2.369640869140625,1.9581337174028157,0.34134266339838504,-0.4469625539943576
1772555830675572200,2.379572265625,1.7519143947213887,0.3610498189091682,-0.336855581112206
1772555830685504000,2.38950390625,1.5564491057664156,0.3929612069547176,-0.26597119607180353
1772555830695435000,2.39943505859375,1.3715724308431148,0.4374769327685237,-0.22496888520643113
1772555830705367000,2.409366943359375,1.2225135037541388,0.5086825125873089,-0.1904384737689048
1772555830715298000,2.419298095703125,1.1222101320058107,0.578433509683609,-0.1983621794402599
1772555830725230000,2.42922998046875,1.0061977344721555,0.6231830442532896,-0.2770734587140381
1772555830735161000,2.4391611328125,0.8792822501301765,0.6560597701996564,-0.33920134052075446
1772555830745092000,2.449092041015625,0.75573770352602,0.716951169013977,-0.3334748526327312
1772555830755024000,2.45902392578125,0.6025988136470317,0.7426181097120046,-0.29607005480267107
1772555830764955100,2.468955078125,0.45738487154841423,0.7350070501863956,-0.29479871969260274
1772555830774887200,2.47888720703125,0.3640028234958648,0.7276575642064214,-0.2575061500653624
1772555830784818200,2.488818115234375,0.3229968593686819,0.7127437804520129,-0.22513247827030716
1772555830794749200,2.498749267578125,0.33595220253169533,0.6488675206080079,-0.20144414416886866
1772555830804681000,2.508680908203125,0.4023345999777317,0.5899842467457056,-0.21546419395394623
1772555830814612200,2.5186123046875,0.4546569078892469,0.5405684739306569,-0.24229119140729308
1772555830824544300,2.528544189453125,0.4750228195697069,0.47230508504360913,-0.2933706596508622
1772555830834475000,2.53847509765625,0.47102761245369906,0.36854689666628837,-0.34253771840184927
1772555830844406000,2.548406005859375,0.4432072931140661,0.2653133166849613,-0.36812494492717085
1772555830854338000,2.558338134765625,0.41643560604453084,0.1761556083291769,-0.32724151120111344
1772555830864269300,2.568269287109375,0.4450269097566604,0.05643032775223255,-0.2670070419255644
1772555830874201000,2.578201171875,0.49781157448291774,-0.06960925053805113,-0.1942946377404034
1772555830884132000,2.588132080078125,0.550154340660572,-0.15977087523937225,-0.13549085885509848
1772555830894064000,2.598064208984375,0.5984311725735664,-0.22342004832923412,-0.12015738838389516
1772555830903995100,2.6079951171875,0.6046843877494334,-0.2743134924814105,-0.10523089127838611
1772555830913926100,2.617926025390625,0.5315361494302749,-0.3124628981336951,-0.08799896677471697
1772555830923858200,2.627858154296875,0.49941199541687964,-0.296739259301126,-0.05052724118828773
1772555830933789200,2.6377890625,0.5214321040451526,-0.24960166055113076,0.03798632404506206
1772555830943721000,2.647720947265625,0.5997007541179656,-0.21783348036855457,0.11203647964000701
1772555830953652200,2.65765234375,0.7059317623496055,-0.22011106991171836,0.15948000253401695
1772555830963583200,2.667583251953125,0.7990121971070766,-0.25264409698694945,0.23236747102513908
1772555830973515000,2.677514892578125,0.857188491743803,-0.2879275918141007,0.27405666817612945
1772555830983446000,2.687446044921875,0.8332359537482261,-0.30887159564346073,0.29798253736048935
1772555830993378000,2.6973779296875,0.7167857493191957,-0.34926498083025215,0.256747002261132
1772555831003309300,2.707309326171875,0.5490191991508007,-0.3745902684837579,0.24875373848490415
1772555831013240000,2.717239990234375,0.38739188238978384,-0.3632134266838431,0.27203093450218435
1772555831023172000,2.727172119140625,0.28972002818882464,-0.3876528714135289,0.2531163906738162
1772555831033103000,2.73710302734375,0.2072650323420763,-0.4483107537329197,0.20841829403042791
1772555831043035100,2.74703515625,0.08578560157418251,-0.5567404410526157,0.09207432645484805
1772555831052966100,2.756966064453125,-0.027698738786578178,-0.678229808692634,0.011765475791320205
1772555831062898200,2.766898193359375,-0.13600830685794352,-0.7249155720219016,-0.036312910940125585
1772555831072829200,2.7768291015625,-0.27724925367236136,-0.753169606603682,-0.04709200604259967
1772555831082760200,2.78676025390625,-0.41861411912739277,-0.7127291674047708,-0.012780059661343693
1772555831092692200,2.796692138671875,-0.5103764570236206,-0.6790197900265454,0.005061448108032346
1772555831102623200,2.806623291015625,-0.5946463933378457,-0.6691849169716239,-0.01145315843913704
1772555831112555300,2.81655517578125,-0.6987462347596883,-0.6694710404366254,-0.07806582097709179
1772555831122486000,2.826486083984375,-0.8073632613450288,-0.6658589874193072,-0.17312581217922268
1772555831132417300,2.836417236328125,-0.9887748905062674,-0.6639136985704303,-0.30462533637583256
1772555831142349300,2.846349365234375,-1.1754589071124792,-0.7282575759261846,-0.5081070142542943
1772555831152280000,2.856280029296875,-1.327009651017189,-0.8276379876106977,-0.7410825707077979
1772555831162212000,2.866212158203125,-1.4188473922371863,-0.8370031973272561,-0.8256476905763149
1772555831172143000,2.87614306640625,-1.4160218134224414,-0.7602619029521942,-0.7255265435270964
1772555831182074000,2.88607421875,-1.3462521116256714,-0.647097296065092,-0.537778258690238
1772555831192006100,2.896006103515625,-1.2547428717076778,-0.5276508324295283,-0.3743578479673713
1772555831201937200,2.905937255859375,-1.190371814084053,-0.44601796662062404,-0.270180119003728
1772555831211869200,2.915869140625,-1.1359499035447835,-0.33523616321682925,-0.24295972005231303
1772555831221800200,2.92580029296875,-1.0935527773201466,-0.2152007937774062,-0.2283379963133484
1772555831231732200,2.935732177734375,-1.0429086317539213,-0.08866086474955082,-0.19706143557261674
1772555831241663200,2.945663330078125,-0.9585475100249051,0.038494273567199706,-0.12750088301450013
1772555831251594000,2.955593994140625,-0.8095867826133966,0.13540975644290446,-0.009858619256690144
1772555831261526000,2.965526123046875,-0.6980290264010429,0.19418138662427661,0.10696788940513506
1772555831271457300,2.975457275390625,-0.6066928049623966,0.16327128457576034,0.2400322517656721
1772555831281389300,2.985389404296875,-0.5362848052620888,0.16042290940731763,0.4464523029172793
1772555831291320000,2.995320068359375,-0.4992132579743862,0.18741437670737504,0.6904063495028764
1772555831301251000,3.0052509765625,-0.46987318172156806,0.2572080439016223,0.9337631973803043
1772555831311183000,3.01518310546875,-0.45728667187094685,0.3070055095106363,1.124866345603019
1772555831321114000,3.025114013671875,-0.4098264170378446,0.31633681695759297,1.281043580264598
1772555831331046100,3.035046142578125,-0.2972843259632587,0.32856092323660846,1.3739542114131151
1772555831340977200,3.04497705078125,-0.1295166067510843,0.3283741684928536,1.3884152829639613
1772555831350908200,3.054908203125,0.11125497387349605,0.3136260966941714,1.3639127098701893
1772555831360840200,3.064840087890625,0.3669154960721731,0.31242461194992066,1.2891669732265174
1772555831370771200,3.074771240234375,0.5884487077414989,0.3134919489204883,1.2096342215020208
1772555831380703200,3.084703125,0.7438064427137374,0.3265615661129355,1.126265837137401
1772555831390634000,3.094634033203125,0.8483405838996172,0.35859248888492584,1.0420660434499383
1772555831400565200,3.104565185546875,0.9520464575678109,0.41328152592778206,1.0146980709876865
1772555831410497300,3.114497314453125,1.0389233615100384,0.4671209604039788,0.994639398625493
1772555831420428000,3.124427978515625,1.1279080513864754,0.4385810946181416,0.9281817439861595
1772555831430360000,3.134360107421875,1.1740928794562815,0.4030395333766937,0.8378033347290009
1772555831440291000,3.144291015625,1.2045599139124155,0.3939043330237269,0.705042631490156
1772555831450223000,3.15422314453125,1.1944231353014707,0.4368026867687702,0.5481642262892797
1772555831460154000,3.164154052734375,1.151312892371416,0.5233563501060009,0.4286112335393205
1772555831470085000,3.174085205078125,1.0767243921160696,0.6174345637291669,0.3665919997388497
1772555831480017200,3.18401708984375,0.9911936420857905,0.6572276449352502,0.32505905259549617
1772555831489948200,3.1939482421875,0.8372510346084833,0.5792483331978321,0.2451646644843742
1772555831499880200,3.203880126953125,0.5682435395807027,0.4219768735587597,0.16079444613344968
1772555831509811200,3.213811279296875,0.20988836658298968,0.2782721669793129,0.13221276876619084
1772555831519742200,3.2237421875,-0.13609130896627902,0.2232958374276757,0.1413821636497043
1772555831529674000,3.233674072265625,-0.4090086709141731,0.21461860997527837,0.1782265511180274
1772555831539605200,3.243605224609375,-0.6296142463445663,0.17688129225522278,0.1616493093971163
1772555831549537300,3.253537353515625,-0.7811901246905326,0.08847703261524438,0.107318949598819
1772555831559468000,3.263468017578125,-0.8793892176359891,-0.010936696816980838,0.07735646713133901
1772555831569400000,3.273400146484375,-0.9011188188850879,-0.10601181252300738,0.0399186803471297
1772555831579331000,3.2833310546875,-0.8220856141805648,-0.16781272739768027,0.029785080073960125
1772555831589262300,3.293262451171875,-0.6738093619018792,-0.20447452484071255,0.030736279851570722
1772555831599194000,3.303194091796875,-0.4486573752135038,-0.24412527496665715,0.04672072504479438
1772555831609125000,3.313125,-0.21695757431685922,-0.28497487948834893,0.06676814536061138
1772555831619057200,3.32305712890625,0.036759997120499606,-0.31871786687523124,0.09621602936945856
1772555831628988200,3.33298828125,0.277962370377779,-0.33600948567688466,0.15721311704795807
1772555831638919200,3.342919189453125,0.4586445162206888,-0.38130963986665006,0.20136176311504095
1772555831648851200,3.352851318359375,0.5905260985374451,-0.4195698124170303,0.24167879512999205
1772555831658782200,3.3627822265625,0.7109305935502052,-0.4278051413208246,0.25979206904545427
1772555831668714000,3.3727138671875,0.7712199348181485,-0.42781244784444566,0.28614476351793855
1772555831678645200,3.382645263671875,0.8260141858011484,-0.42885318906903264,0.2695787921097129
1772555831688576300,3.392576171875,0.8660019127964973,-0.4371525231197476,0.22028175030350683
1772555831698508300,3.40250830078125,0.9187252027243376,-0.44966333738565445,0.16210275225304066
1772555831708439000,3.41243896484375,0.9563578910261392,-0.47349224900156256,0.06297141995877027
1772555831718371000,3.42237109375,0.9715531220704317,-0.4854352002516389,-0.011574008339829743
1772555831728302300,3.43230224609375,0.963199135223031,-0.4802224340394139,-0.08783603129796683
1772555831738234000,3.442234130859375,0.9598246903538703,-0.5016314250320196,-0.18449593197740613
1772555831748165000,3.4521650390625,0.910984379339218,-0.5409986820414662,-0.2457188277684152
1772555831758096100,3.46209619140625,0.808392604392767,-0.5844000168725848,-0.24201427416205404
1772555831768028200,3.472028076171875,0.6908528511613607,-0.6144514562651515,-0.22108977875076233
1772555831777959200,3.481959228515625,0.547228224080801,-0.6488125755503773,-0.18247370543479918
1772555831787891200,3.49189111328125,0.3922673794716596,-0.698247053065896,-0.14795198876038193
1772555831797822500,3.501822509765625,0.24052491238713264,-0.7456392110988497,-0.0836198749076575
1772555831807753500,3.51175341796875,0.1364578041911125,-0.7906228466853499,-0.01404131176881492
1772555831817685500,3.521685546875,0.07303893272578715,-0.8239002623870968,0.05103219503574073
1772555831827616500,3.531616455078125,0.011164368093013763,-0.8516448861420154,0.050609293448552486
1772555831837548500,3.541548583984375,-0.07080898171663284,-0.8884954841554165,0.016033873825520278
1772555831847479600,3.5514794921875,-0.16664076100885866,-0.8794204895570874,0.015357655064389108
1772555831857410300,3.561410400390625,-0.2450175476312637,-0.8222676927492022,0.09170549314245581
1772555831867342600,3.571342529296875,-0.33610476274490353,-0.8141928151041269,0.17126147961206734
1772555831877273600,3.581273681640625,-0.4586000925570726,-0.8681430164784193,0.19743805033266543
1772555831887205600,3.59120556640625,-0.5893459488421678,-0.9364020214512944,0.21928857454769313
1772555831897136400,3.601136474609375,-0.7283633743882179,-0.9689803489729761,0.2391677256245166
1772555831907068400,3.611068359375,-0.8555348793178796,-1.0185200404286383,0.21963285794071852
1772555831916999700,3.620999755859375,-0.9903361484736204,-1.0956716691702604,0.11239048070944845
1772555831926930400,3.630930419921875,-1.1219944434285163,-1.2162222946554422,0.00014057751446962355
1772555831936862500,3.640862548828125,-1.1718547451406716,-1.2941527988150716,-0.005978709083423018
1772555831946793500,3.65079345703125,-1.1943705283313988,-1.3106748945489526,0.0717464817624539
1772555831956725500,3.6607255859375,-1.1525596775621174,-1.2506143936008214,0.2232316130850464
1772555831966656500,3.670656494140625,-1.1568366242289543,-1.1281526737973093,0.34845234927311536
1772555831976587500,3.68058740234375,-1.2168553318619728,-1.0153127688199282,0.40017150365971027
1772555831986519600,3.69051953125,-1.3086059793204068,-0.8584440447628497,0.368216495668143
1772555831996450300,3.7004501953125,-1.3885820178329944,-0.5846937391221523,0.3268552152972668
1772555832006382600,3.710382568359375,-1.4158797746032477,-0.14247019634842872,0.3300909823480993
1772555832016313600,3.720313720703125,-1.4598311445325611,0.2586822081074118,0.2491779552463442
1772555832026244600,3.73024462890625,-1.560633113452792,0.4547898866191506,0.12775266581848263
1772555832036176400,3.74017626953125,-1.684154279181361,0.568634584724903,0.06385507092550397
1772555832046107600,3.750107666015625,-1.7160381946980952,0.7100511803671717,0.0718104869093746
1772555832056039700,3.760039794921875,-1.61364048101902,0.8578992703616619,0.09952237743847071
1772555832065970400,3.769970458984375,-1.4056921425879,0.9114382605865597,0.14478534142300487
1772555832075902500,3.77990234375,-1.1148393109768628,0.8929735063523053,0.2432541181553155
1772555832085833500,3.78983349609375,-0.7392302208393812,0.8080389686495065,0.3790867761854082
1772555832095764700,3.7997646484375,-0.317511705955863,0.6837734142944216,0.5109840675279498
1772555832105696500,3.809696533203125,0.08346154254078865,0.5800155181780458,0.5512616443153471
1772555832115627500,3.81962744140625,0.4899380646288395,0.5063052620619535,0.5494028647061437
1772555832125559600,3.8295595703125,0.8831722433060407,0.4717150101959705,0.4778879266772419
1772555832135490300,3.839490234375,1.2676695732980965,0.43247225634902714,0.3650461950689554
1772555832145421600,3.849421630859375,1.5703110423803328,0.37198563894331454,0.27783450621441
1772555832155353600,3.859353515625,1.7904706276088953,0.3144759915217757,0.19687676318809388
1772555832165284600,3.86928466796875,1.9122557633250952,0.24427374352663753,0.16287044868990777
1772555832175216400,3.87921630859375,1.9035101468116045,0.18094518069326876,0.18318360726982355
1772555832185147600,3.889147705078125,1.7841209663212299,0.18141893568485976,0.2659676889404654
1772555832195079700,3.89907958984375,1.6081185027271507,0.21116730047762391,0.3482648638769984
1772555832205010400,3.909010498046875,1.4562521170020102,0.26967764937430616,0.42557635935544963
1772555832214941400,3.91894140625,1.3189093466699122,0.31488135745227336,0.44134661380872126
1772555832224873500,3.92887353515625,1.2381857046604157,0.3373714216798544,0.40320846020281315
1772555832234804700,3.9388046875,1.1945534836828708,0.3979913100764155,0.33442908461764453
1772555832244736500,3.948736572265625,1.1606617354750632,0.45566988432407374,0.2522442840144038
1772555832254667500,3.95866748046875,1.0639946744024753,0.4739417463347316,0.19256474520787595
1772555832264598500,3.9685986328125,0.9465431839764118,0.4872445877611637,0.17280147559568285
1772555832274530300,3.9785302734375,0.7716501429289578,0.5049363117963075,0.18898045698031782
1772555832284461600,3.988461669921875,0.5868126309722662,0.5539703918173909,0.2495946462884545
1772555832294393600,3.9983935546875,0.39956338169872757,0.5805123617842793,0.2707145912066102
1772555832304324600,4.00832470703125,0.1748304972052574,0.5471545743227004,0.2217930316492915
1772555832314255400,4.01825537109375,-0.04420505242943763,0.47511780437678097,0.15571619302108883
1772555832324187400,4.0281875,-0.24231530293524264,0.3939502179920673,0.12354608097411691
1772555832334118700,4.03811865234375,-0.40964404620826245,0.3251324100926518,0.13900836545675993
1772555832344050400,4.048050537109375,-0.5044260241866112,0.2484697339117527,0.18300350146256386
1772555832353981400,4.0579814453125,-0.47806116435229773,0.1851128217667341,0.23951310499608516
1772555832363913500,4.06791357421875,-0.34002690462470053,0.07118833642303943,0.29354192456454037
1772555832373844700,4.0778447265625,-0.14577099145948885,-0.09651303955465555,0.33295638171657915
1772555832383775500,4.087775390625,0.04239011196196079,-0.24977526355236768,0.34414793007746336
1772555832393707500,4.09770751953125,0.1807914514362812,-0.3623056641891598,0.3303600816130638
1772555832403638500,4.107638427734375,0.29397008684873577,-0.4532417803943157,0.3139443688631058
1772555832413570300,4.1175703125,0.3272416573315859,-0.5472635876551271,0.30665793818198145
1772555832423501600,4.12750146484375,0.2890197709649801,-0.6565244651019573,0.2783303999725729
1772555832433432600,4.1374326171875,0.20426935765743254,-0.7433113526731729,0.25023133675679565
1772555832443364600,4.147364501953125,0.1713151825606823,-0.734237819379568,0.23262707180939612
1772555832453295400,4.15729541015625,0.10540332523584366,-0.6434981025293469,0.19612740612551569
1772555832463227400,4.167227294921875,0.0327519305229187,-0.545982315672934,0.14344992810077964
1772555832473158700,4.17715869140625,-0.09415595503449439,-0.45798751361668105,0.06799640851393342
1772555832483090700,4.187090576171875,-0.19206161799132823,-0.36508886516690253,-0.01616751014254987
1772555832493021400,4.197021484375,-0.2921089691519737,-0.2741442733943462,-0.09580006897971033
1772555832502952400,4.206952392578125,-0.3568348315626383,-0.17928718435317276,-0.14685294147729872
1772555832512884700,4.216884765625,-0.4085907377630472,-0.13414075942039488,-0.18307379021979867
1772555832522815500,4.2268154296875,-0.4333382255285978,-0.164527129855752,-0.22459040728285906
1772555832532747500,4.23674755859375,-0.4257452861815691,-0.20393296530991792,-0.26084720412157475
1772555832542678500,4.246678466796875,-0.3913151933133602,-0.21453969952017068,-0.23718400446139273
1772555832552609500,4.256609619140625,-0.31121991233527657,-0.22041472903341053,-0.19997933231331408
1772555832562541600,4.26654150390625,-0.2521732646048069,-0.29524902074337006,-0.20865750961378216
1772555832572472600,4.27647265625,-0.2380728430598974,-0.44171588551253077,-0.25461970790885385
1772555832582404600,4.286404541015625,-0.20298925471901894,-0.5476891195908189,-0.2547258716970682
1772555832592335400,4.29633544921875,-0.13338497261703014,-0.5749293009549379,-0.20028606017492712
1772555832602266600,4.3062666015625,-0.05443126288950443,-0.602176788842678,-0.19391411399021743
1772555832612198700,4.31619873046875,-0.014694295784831047,-0.6550108456686139,-0.2127063466131687
1772555832622129400,4.32612939453125,0.00756254420876503,-0.7024374904930591,-0.2406779109917581
1772555832632061400,4.3360615234375,-0.014845686954259871,-0.6815759042501449,-0.23500103439912198
1772555832641992400,4.345992431640625,-0.04105740205347538,-0.6018576398909091,-0.20031587079130111
1772555832651924700,4.3559248046875,-0.06623159079849719,-0.512048481889069,-0.20265885372087358
1772555832661855500,4.36585546875,-0.09243278450369834,-0.44571635332554577,-0.22454781025014817
1772555832671786500,4.375786376953125,-0.18379180229604244,-0.401233652998507,-0.23681502501852808
1772555832681718500,4.385718505859375,-0.23189561572968959,-0.3796335233479738,-0.28442046047598124
1772555832691649500,4.3956494140625,-0.2515741296678781,-0.34972149242609735,-0.3280324423830956
1772555832701581600,4.40558154296875,-0.24632336953282355,-0.29505466721504925,-0.3247583160832524
1772555832711512600,4.4155126953125,-0.2403828735679388,-0.25027064585387704,-0.32760333025082944
1772555832721443300,4.425443359375,-0.24233751476705073,-0.26156886945962904,-0.36740247587151825
1772555832731375400,4.435375244140625,-0.26692659710049627,-0.3783715405881405,-0.5034911544892937
1772555832741306600,4.445306640625,-0.2886369091272354,-0.616414280770719,-0.6853999195177107
1772555832751238700,4.45523876953125,-0.2628916424959898,-0.8263792197212576,-0.7987921976808459
1772555832761169400,4.46516943359375,-0.21967209397256374,-0.8792267205506563,-0.7494635916925966
1772555832771100400,4.475100341796875,-0.18611293871998785,-0.7773013005584478,-0.5696677636975422
1772555832781032400,4.485032470703125,-0.22541326797306535,-0.6383049178004264,-0.3920644773107022
1772555832790963500,4.49496337890625,-0.3800783445060253,-0.5035933727547526,-0.20779267294537274
1772555832800895500,4.5048955078125,-0.6024404082149267,-0.34936288824677464,-0.006798793294653296
1772555832810826500,4.514826416015625,-0.8505483230769634,-0.15422989998608827,0.16406806097663937
1772555832820758500,4.524758544921875,-1.0752239244252442,0.07912614368498325,0.26452180098108946
1772555832830689800,4.534689697265625,-1.1976941197961568,0.310502996237576,0.24447997015584258
1772555832840620500,4.54462060546875,-1.2029185764461756,0.5511518272653222,0.16627543482780455
1772555832850552600,4.554552490234375,-1.066229301586747,0.7530439343973994,0.059566981810145074
1772555832860483600,4.564483642578125,-0.8544920922666788,0.8779165147349238,-0.048272886390238995
1772555832870415400,4.574415283203125,-0.5815922659754753,0.8953963495850562,-0.15100008775200693
1772555832880346600,4.5843466796875,-0.3335965793162584,0.8704185601949691,-0.17251381776072083
1772555832890277600,4.594277587890625,-0.1054535941183567,0.8325795356661081,-0.13924549868088215
1772555832900209700,4.604209716796875,0.0838642781227827,0.785089177955687,-0.0712859881112352
1772555832910140400,4.614140380859375,0.23059914617836474,0.7367638307258486,0.013182283786684275
1772555832920072400,4.624072509765625,0.37900866944789885,0.723029319883883,0.10512673678416758
1772555832930003700,4.634003662109375,0.5224520947426557,0.7067316805556416,0.19352204593271016
1772555832939935500,4.643935546875,0.6680506522446871,0.6710080407455563,0.21966686980817465
1772555832949866500,4.653866455078125,0.8093991510868072,0.5855772439584136,0.24028160515055058
1772555832959797500,4.663797607421875,0.9261883782118558,0.4786614683330059,0.25932021375000475
1772555832969729500,4.6737294921875,0.9921113414525985,0.36153555659949776,0.25017631863392886
1772555832979660500,4.68366064453125,0.9685176998972892,0.24300825363546608,0.2559321422142908
1772555832989592600,4.693592529296875,0.8834194960653782,0.16257073509097097,0.29083737831357864
1772555832999523600,4.703523681640625,0.7573942385613918,0.12959639398902653,0.42155696764625605
1772555833009454600,4.71345458984375,0.5957300969213247,0.11555734724253415,0.5704224545223638
1772555833019386600,4.72338671875,0.43805005648136136,0.08492313952594994,0.7129403259374201
1772555833029317600,4.733317626953125,0.35335049657821654,0.05986527063697576,0.7917351918414235
1772555833039249700,4.743249755859375,0.3520668865084648,0.028422961407899856,0.8226507007174193
1772555833049180400,4.753180419921875,0.36854222049117086,0.04307634066045284,0.866153961553052
1772555833059111700,4.763111572265625,0.40531566161513327,0.05518061995208263,0.8898243946716189
1772555833069043700,4.773043701171875,0.4285562519490719,0.06403174266666174,0.8701391587316989
1772555833078974500,4.782974365234375,0.4348585669636726,0.08833119440376758,0.7701260021016001
1772555833088906500,4.792906494140625,0.4094610908567905,0.12688742729127406,0.6258456875912844
1772555833098837500,4.80283740234375,0.36934476904571056,0.17968524376004932,0.47273003245741124
1772555833108769500,4.81276953125,0.28991408945620056,0.24841654241979122,0.33196598243974146
1772555833118700500,4.822700439453125,0.1882850220620632,0.3145700995460152,0.21703210085779429
1772555833128631600,4.832631591796875,0.03010463088452816,0.350859848806262,0.11546232590284197
1772555833138563600,4.8425634765625,-0.17106091553866862,0.3496446277976036,0.02279613450206816
1772555833148494600,4.85249462890625,-0.3904033391654491,0.3337631680548191,-0.022744952304102478
1772555833158426600,4.862426513671875,-0.5603828892081976,0.29592443578690286,-0.02339815551582724
1772555833168357600,4.872357666015625,-0.6578209346532822,0.2586108964368701,0.022526012323796748
1772555833178288400,4.882288330078125,-0.6789607533156872,0.20282120467573403,0.12385163979195057
1772555833188220400,4.892220458984375,-0.5379249736845493,0.12619126172065734,0.2590276240115985
1772555833198151700,4.902151611328125,-0.3035673517554998,0.056065001571178434,0.40787674427479503
1772555833208083700,4.912083740234375,-0.04557926339209079,-0.04098638264387846,0.49414453987535084
1772555833218014500,4.922014404296875,0.19539280824065208,-0.1389393918737769,0.552267716085352
1772555833227945500,4.931945556640625,0.41051907547712324,-0.1861281362891197,0.6189386846818029
1772555833237877500,4.94187744140625,0.5973275952458381,-0.22409663241654634,0.6523940872989594
1772555833247808500,4.95180859375,0.7023264313340186,-0.27870851256996393,0.6416830159313976
1772555833257740500,4.961740478515625,0.7096832238376141,-0.30499387742727996,0.6147810535456985
1772555833267671600,4.971671630859375,0.6718173113018274,-0.28158611383289095,0.5937305206019431
1772555833277603600,4.981603515625,0.5860036526769399,-0.20263591123670338,0.6244691385410726
1772555833287534600,4.99153466796875,0.4984983877032995,-0.0971533832848072,0.6852146991439163
1772555833297465600,5.001465576171875,0.45507717912793155,-0.06525514698177576,0.7511212227065116
1772555833307397600,5.011397705078125,0.41674306455850596,-0.10285510205775499,0.7872055855877697
1772555833317328400,5.021328369140625,0.4221680122166872,-0.16274316904842853,0.8192833431761711
1772555833327260400,5.031260498046875,0.46761283557415007,-0.2052911019206047,0.8293822009295224
1772555833337191700,5.041191650390625,0.4882061262696981,-0.234084357945621,0.8335999647550284
1772555833347122700,5.051122802734375,0.4606617012619972,-0.27138737590163947,0.7632339045003056
1772555833357054500,5.061054443359375,0.3875415199935436,-0.28244185387939214,0.6794190184772014
1772555833366985500,5.0709853515625,0.2725976284742355,-0.24514789601266382,0.6374922131780535
1772555833376917500,5.08091748046875,0.13245675185620784,-0.21693799283355472,0.6119196727652102
1772555833386848500,5.0908486328125,-0.04014496338367462,-0.20872633706629276,0.5675802533663808
1772555833396780500,5.100780517578125,-0.225568750795722,-0.20474340490996837,0.5195717170007527
1772555833406711600,5.110711669921875,-0.3745709792613983,-0.2075020559683442,0.5084235693901777
1772555833416642600,5.120642578125,-0.4966711722761392,-0.21516250759363173,0.4822753479812294
1772555833426574600,5.13057470703125,-0.5580547385215759,-0.24622166272401808,0.44774544800035654
1772555833436505600,5.140505615234375,-0.5627209767669439,-0.28811873047202824,0.43417540700510143
1772555833446437600,5.150437744140625,-0.5553291129499673,-0.35559593741744755,0.4141663459382951
1772555833456368400,5.160368408203125,-0.48142859495878215,-0.41608138577938075,0.4360903737809509
1772555833466299600,5.170299560546875,-0.33496611410379407,-0.48235126276165247,0.489552864703536
1772555833476231700,5.180231689453125,-0.21492051553130148,-0.580541003356874,0.5313629848204553
1772555833486162700,5.19016259765625,-0.08998948300480843,-0.7038610935553908,0.5628919494196772
1772555833496094500,5.200094482421875,0.0130319155305624,-0.802333158223331,0.5779130660060793
1772555833506025500,5.210025390625,0.07432429636120796,-0.8501105161815882,0.6175463535405695
1772555833515957500,5.21995751953125,0.10682780508100986,-0.8832894399449229,0.641919528101012
1772555833525888800,5.229888671875,0.10913666654527186,-0.9201432528287172,0.6389446770086884
1772555833535819500,5.239819580078125,0.09574936170578002,-0.9323258580535649,0.62556964712888
1772555833545751600,5.24975146484375,0.03619710254073143,-0.9374585447669028,0.5851516389574856
1772555833555682600,5.2596826171875,-0.0608025514870882,-0.9029048255190253,0.5724749666053801
1772555833565614300,5.2696142578125,-0.1789262420862913,-0.8333531503871083,0.5583804633446038
1772555833575545600,5.279545654296875,-0.2851215944826603,-0.7976677967607975,0.5024433990020305
1772555833585476600,5.2894765625,-0.3976204309374094,-0.8760214947685598,0.33413514317236837
1772555833595408600,5.29940869140625,-0.44791853954494,-1.0716036881014703,0.06681399379633367
1772555833605339600,5.309339599609375,-0.39610593472123146,-1.2696247990190983,-0.1124616462495178
1772555833615271700,5.319271728515625,-0.29943244390785695,-1.3559829397842287,-0.09895422216169536
1772555833625202700,5.32920263671875,-0.29843934121727944,-1.2791969294846057,0.09571911269798875
1772555833635133400,5.339133544921875,-0.4820429274648428,-1.1822305932044983,0.27430392093546685
1772555833645065500,5.3490654296875,-0.8580266961336135,-1.1431789780154824,0.30884741105027497
1772555833654996700,5.358996826171875,-1.3276689917087554,-1.0170777326658367,0.3263759073477238
1772555833664928800,5.3689287109375,-1.726825546172261,-0.7026859122961759,0.4370139183666557
1772555833674859500,5.378859619140625,-2.117440482261777,-0.2989589811772108,0.5447104691062122
1772555833684791600,5.38879150390625,-2.399910100930929,0.06510170998573303,0.5468466774173081
1772555833694722600,5.39872265625,-2.5038567976176735,0.3399544239103794,0.46003750494904816
1772555833704653600,5.408653564453125,-2.442353988906741,0.5010661923646926,0.32372451605610547
1772555833714585600,5.418585693359375,-2.1405483861267567,0.6504977521583437,0.19845486269239335
1772555833724516600,5.4285166015625,-1.6222300301879644,0.7824056379601358,0.1280419310886413
1772555833734448600,5.43844873046875,-0.9527543135762214,0.8405719957247376,0.0796537112230435
1772555833744379600,5.448379638671875,-0.292783507412672,0.7584665439680218,0.058182578247040505
1772555833754310700,5.458310546875,0.27738836988210674,0.6034793958738446,0.0469531090285629
1772555833764242700,5.46824267578125,0.7477145560681819,0.4531742681160569,-0.0025111791033297776
1772555833774173400,5.47817333984375,1.0614964278459549,0.30771424230188127,-0.04315824679024517
1772555833784105500,5.48810546875,1.258612406617403,0.18371201505810023,-0.09192001267597079
1772555833794036700,5.49803662109375,1.381124687564373,0.13352496560961008,-0.10725194877721368
1772555833803967200,5.50796728515625,1.4439204586952923,0.10197656565755606,-0.12473046845309435
1772555833813899000,5.51789892578125,1.4471744920551777,0.04479103562384844,-0.2028190857838839
1772555833823830000,5.527830078125,1.3910750036925077,0.023118425258994102,-0.31006036703661083
1772555833833762000,5.537761962890625,1.2752730340391396,0.037492695309221745,-0.37364801919758317
1772555833843693300,5.547693359375,1.0832429802298544,0.043570261657238006,-0.4470770472194999
1772555833853625000,5.557625,0.9404787693709135,0.06430237630158663,-0.49378509544581173
1772555833863556000,5.56755615234375,0.8669763107866049,0.08586626559495926,-0.5273799065336585
1772555833873487400,5.5774873046875,0.861532073906064,0.12575374708622694,-0.5542775580704212
1772555833883419100,5.587419189453125,0.8865034335553645,0.1581909125715494,-0.6085046766899526
1772555833893350100,5.59735009765625,0.918897636681795,0.1973676154449582,-0.6503669653855264
1772555833903282200,5.6072822265625,0.8896510839313269,0.2413862053915858,-0.6501695431172847
1772555833913213200,5.617213134765625,0.8104442762255668,0.30860037748664615,-0.6097980775013566
1772555833923144200,5.627144287109375,0.6878823109179735,0.43651188712865113,-0.5440098465561867
1772555833933076200,5.637076171875,0.5493816027224063,0.598430003529787,-0.42131329508349297
1772555833943007200,5.64700732421875,0.4074579343408346,0.7579007267788052,-0.329628552468121
1772555833952939000,5.65693896484375,0.25593875461816784,0.8871732956409454,-0.35981209380775686
1772555833962870000,5.6668701171875,0.07638064436912537,0.9539078675255179,-0.4213558190509677
1772555833972802000,5.676802001953125,-0.1283452248841524,1.012533951756358,-0.4898011403761804
1772555833982733300,5.6867333984375,-0.3766840258926153,1.054554645884037,-0.5364394113019109
1772555833992664000,5.6966640625,-0.591363718405366,1.075580775038898,-0.5121878903597593
1772555834002596000,5.70659619140625,-0.7640981201142072,1.0526432593047619,-0.4520341581702232
1772555834012527000,5.716527099609375,-0.8899129497379064,0.9861118087768554,-0.368313526301831
1772555834022459100,5.726459228515625,-0.9099959528237581,0.8971604366481304,-0.27800211786627765
1772555834032390100,5.73639013671875,-0.7783142769932746,0.7726046671748161,-0.18138123402297496
1772555834042321200,5.746321044921875,-0.528143584382534,0.629791940999031,-0.1146435933984816
1772555834052253200,5.756253173828125,-0.1980406924009323,0.4573775650247931,-0.05860723339989781
1772555834062184200,5.76618408203125,0.10197978052794933,0.3092819300100207,0.004234861090779305
1772555834072116200,5.7761162109375,0.34254034875035283,0.1704848692163825,0.05385010200068354
1772555834082047200,5.786047119140625,0.5385024813115596,0.0423962494418025,0.10457608063146472
1772555834091978000,5.79597802734375,0.6601052461981773,-0.04830898061692714,0.1266013038262725
1772555834101910000,5.805909912109375,0.7037088256031274,-0.11352671819776296,0.1269336045205593
1772555834111841300,5.81584130859375,0.689774408274889,-0.14881196659058332,0.16031857225000856
1772555834121773300,5.825773193359375,0.6301169351696968,-0.15296820948719977,0.1934770377472043
1772555834131704000,5.8357041015625,0.5648223329603672,-0.1637374407827854,0.22781024611219763
1772555834141636000,5.845635986328125,0.48040158999860283,-0.1606406438112259,0.24027941319346427
1772555834151567000,5.855567138671875,0.446685782879591,-0.14402940848916768,0.2286323761500418
1772555834161498000,5.865498046875,0.4367372203171253,-0.1323795949667692,0.2204091760754585
1772555834171430100,5.87543017578125,0.4227770840257406,-0.09667349081337451,0.24446780479401348
1772555834181361200,5.885361083984375,0.42317105177938935,-0.07273322777748108,0.3145246529690921
1772555834191293200,5.895293212890625,0.3883008139282465,-0.0695686262667179,0.42301381539106364
1772555834201224200,5.90522412109375,0.31650983543694017,-0.0850862211331725,0.5214882912117987
1772555834211155200,5.9151552734375,0.22732056289911268,-0.14372487258464098,0.5680232478935271
1772555834221087200,5.925087158203125,0.1127034191161394,-0.16813655252456663,0.5531292648181318
1772555834231018000,5.93501806640625,-0.042107203367352485,-0.1489402691453695,0.5077784033544361
1772555834240950000,5.944949951171875,-0.20028291836977005,-0.1474637668520212,0.4495864727571606
1772555834250881300,5.95488134765625,-0.33338556691408155,-0.1731307075500488,0.33981245815642175
1772555834260813300,5.964813232421875,-0.44484395440518854,-0.2304813650175929,0.2018826086513698
1772555834270744000,5.974744140625,-0.45755672098398203,-0.2817059408202767,0.09020283349454403
1772555834280675000,5.984675048828125,-0.3824702080786228,-0.32247868071347474,0.030881606606394052
1772555834290607000,5.994607177734375,-0.2169727718859911,-0.39774522636085746,0.004642272847890853
1772555834300538000,6.0045380859375,-0.0006651859104633331,-0.5168628964334726,-0.01621003411002457
1772555834310470100,6.01447021484375,0.1993301476895809,-0.6723842975348234,-0.032195684879645706
1772555834320401200,6.024401123046875,0.3067337068319321,-0.8232499817848206,-0.02537212246991694
1772555834330332200,6.034332275390625,0.30788346138894557,-0.9416057275742292,0.0068862523823976516
1772555834340264200,6.04426416015625,0.2303010400146246,-1.01204529145658,0.09593699323236941
1772555834350195200,6.0541953125,0.16800678866505622,-1.0115022706210612,0.17812113624848425
1772555834360127200,6.064127197265625,0.10073884055614471,-0.9798054021090269,0.18551811463199555
1772555834370058000,6.07405810546875,0.03321662542521953,-0.9690548755139112,0.13123985034711658
1772555834379989200,6.0839892578125,-0.017407061874866486,-0.927016061207652,0.11310600856766104
1772555834389921300,6.09392138671875,-0.0538747980505228,-0.8318170268610119,0.11799056573882698
1772555834399852000,6.10385205078125,-0.07049567798376083,-0.7360349319294095,0.12264935133010148
1772555834409784000,6.1137841796875,-0.07952186500430107,-0.6590495996654033,0.08752652695737778
1772555834419715000,6.123715087890625,-0.12019056000113487,-0.6089031744882464,0.01756210630610585
1772555834429647000,6.133647216796875,-0.21508827331364153,-0.5681365720748901,-0.0527467438686639
1772555834439578000,6.143578125,-0.288801744300127,-0.5026335878118873,-0.0877170080281794
1772555834449509000,6.153509033203125,-0.3518260634899139,-0.46241731275767084,-0.1094913252018392
1772555834459441200,6.163441162109375,-0.37222120126485825,-0.4471268046453595,-0.1344491677824408
1772555834469372200,6.1733720703125,-0.3230436211198568,-0.47316199413388965,-0.1614279217313975
1772555834479304200,6.18330419921875,-0.23197452618479728,-0.5339014172568917,-0.22091084198728203
1772555834489235200,6.193235107421875,-0.13079437160193919,-0.6872969122454524,-0.3347909767325967
1772555834499166200,6.203166259765625,-0.03175765878856182,-0.9051970281094313,-0.48455761369951067
1772555834509098000,6.213097900390625,0.08860299708247184,-1.0338087949752808,-0.5259413981631398
1772555834519029200,6.223029296875,0.21934885336756704,-1.0688932600989938,-0.5058393250506371
1772555834528961300,6.232961181640625,0.27719313957095143,-1.0944345285907386,-0.46855128546804187
1772555834538892000,6.24289208984375,0.22492519219517706,-1.1393442221581935,-0.4928641081433743
1772555834548824000,6.252823974609375,0.11731646586954593,-1.0972250360921025,-0.4888953141102567
1772555834558755000,6.262755126953125,-0.04889174894094467,-0.907049377977848,-0.3548320769054815
1772555834568686300,6.272686279296875,-0.27236031258702276,-0.6242614871397614,-0.19161734482254833
1772555834578618000,6.2826181640625,-0.5564157391428947,-0.3667714114263654,-0.08489833387825638
1772555834588549000,6.292549072265625,-0.8256681488424539,-0.14432605334818363,-0.023946290917880832
1772555834598481200,6.302481201171875,-1.0661971528828142,0.08012333802878856,-0.031147381403110918
1772555834608412200,6.312412109375,-1.225945231768489,0.3153197488695383,-0.0965977952286601
1772555834618343200,6.32234326171875,-1.3509914151072502,0.4965177352800965,-0.19845314565934238
1772555834628275200,6.332275146484375,-1.3382827401816844,0.6719818542137742,-0.2984872354796156
1772555834638206200,6.342206298828125,-1.1791752972871063,0.842315039999783,-0.31149153235089033
1772555834648138000,6.352137939453125,-0.8905062394559383,0.942728886385262,-0.32866858486216516
1772555834658069200,6.3620693359375,-0.4977326640278101,0.9104296680659055,-0.3142514255182817
1772555834668000300,6.372000244140625,-0.08210486723482609,0.8163277813062071,-0.24573647302296012
1772555834677932300,6.381932373046875,0.28951427648365496,0.6954685282632708,-0.15788699772153048
1772555834687863000,6.391863037109375,0.6461538777351379,0.6096183370202779,-0.048342407962493596
1772555834697795000,6.401795166015625,0.9104559715509414,0.5437073564782738,0.07660648901425302
1772555834707726300,6.411726318359375,1.0509101519018411,0.4462500218108296,0.18830876826383172
1772555834717658000,6.421658203125,1.1266758792430163,0.3639721360966563,0.26582331203371284
1772555834727589000,6.431589111328125,1.1008359200656412,0.32092735961824653,0.3126559364877641
1772555834737520000,6.44152001953125,0.992397757178545,0.3384755835294723,0.421949254899472
1772555834747452200,6.4514521484375,0.7749965307474136,0.35441783354878426,0.5531654321100562
1772555834757383200,6.461383056640625,0.5515262135356664,0.3771268012240529,0.6895958368375897
1772555834767315200,6.471315185546875,0.34242285985052584,0.4266989336445927,0.8227719890095293
1772555834777246200,6.48124609375,0.2136123555421829,0.4944809687554836,0.9279929434157907
1772555834787177000,6.491177001953125,0.13769231442213056,0.5571688955977558,1.025579603551328
1772555834797109200,6.501109130859375,0.1249164194792509,0.5737348304733634,1.0410847042623907
1772555834807040500,6.51104052734375,0.18353519718647002,0.5676300838574767,0.9664387016661464
1772555834816972500,6.52097265625,0.2973486233711243,0.536049242940545,0.8610168178603053
1772555834826903300,6.5309033203125,0.44126960304975504,0.4839341480389237,0.7807488106638193
1772555834836835300,6.54083544921875,0.5491513010978698,0.4205152765735984,0.7265645813379437
1772555834846766600,6.5507666015625,0.5892459955990315,0.39207477950900793,0.7274621877647935
1772555834856697300,6.560697265625,0.5157762702405453,0.40182285106331106,0.7569981519158929
1772555834866629400,6.57062939453125,0.33206104031205175,0.3807072900593281,0.7341985102824866
1772555834876560400,6.580560302734375,0.06601005700230599,0.3473649924278259,0.6496129321478307
1772555834886492400,6.590492431640625,-0.23152152172029017,0.3648085869207978,0.5429118587190285
1772555834896423400,6.60042333984375,-0.46805765673220157,0.41733284714519975,0.47330092768054455
1772555834906354400,6.6103544921875,-0.6035387248456477,0.4567509575590491,0.4301740624092519
1772555834916286500,6.620286376953125,-0.6903203517198562,0.4460810949847102,0.3842564339082688
1772555834926217500,6.630217529296875,-0.7662351321429014,0.3853519009947777,0.3064932126069441
1772555834936149200,6.640149169921875,-0.7989099057763814,0.3348272901549935,0.25788108432497825
1772555834946080500,6.65008056640625,-0.8361801905065774,0.31231413731276986,0.24719638950768857
1772555834956011500,6.660011474609375,-0.8508318161934614,0.2890785154148936,0.2478056439798325
1772555834965943300,6.669943359375,-0.8350655072629452,0.23047405849397182,0.21450440901108084
1772555834975874300,6.679874267578125,-0.759464030572772,0.17284546086788177,0.19717804768960923
1772555834985806600,6.689806640625,-0.6097866793245077,0.14393734629154203,0.17514741766732186
1772555834995737600,6.699737548828125,-0.3959253174573183,0.11479191582798957,0.1450833745215088
1772555835005669400,6.70966943359375,-0.14959259557425975,0.07600450453311204,0.10144388355296105
1772555835015600400,6.719600341796875,0.10554653309881687,0.026178981873393056,0.0675244801532477
1772555835025531600,6.72953173828125,0.310294029662013,0.0006608019962906837,0.03989102515522391
1772555835035463400,6.73946337890625,0.3891016089171171,-0.0345665787294507,-0.015061046737991272
1772555835045394400,6.74939453125,0.41514205910265445,-0.10192658903598785,-0.028386026930995283
1772555835055326500,6.759326416015625,0.41572599647045133,-0.13595599214881657,0.014180026119761168
1772555835065257500,6.769257568359375,0.42436581452190875,-0.13535977982133626,0.11938238542340696
1772555835075188500,6.7791884765625,0.438860203820467,-0.13411241010874508,0.18070947224125264
1772555835085120500,6.78912060546875,0.48260699108839034,-0.169931911508739,0.23392204352337867
1772555835095051500,6.799051513671875,0.5716027868807315,-0.18270780645161866,0.30097306094598025
1772555835104983300,6.8089833984375,0.6447048479706049,-0.1931590578392148,0.36034433752093464
1772555835114914300,6.818914306640625,0.6917050840765238,-0.20661212139129637,0.4284031802792102
1772555835124845600,6.828845458984375,0.7122030977040529,-0.1794894289270043,0.4789216171065345
1772555835134777600,6.838777587890625,0.7297779173612594,-0.15231997471153735,0.5779078418416902
1772555835144708400,6.848708251953125,0.7384072140187025,-0.13649024515599012,0.6476889783479273
1772555835154640400,6.858640380859375,0.7319429864406585,-0.17520488347560167,0.7130460513342172
1772555835164571600,6.868571533203125,0.5975023672908544,-0.2338508414506912,0.7237110185377299
1772555835174503400,6.87850341796875,0.41256724017858504,-0.25263942081183194,0.7437296511504798
1772555835184434400,6.888434326171875,0.24227029474973677,-0.2511477209493518,0.7697795267514884
1772555835194365400,6.898365478515625,0.06626783115565776,-0.2613844528034329,0.7785300386358052
1772555835204297500,6.90829736328125,-0.00791150377690792,-0.2873030301749706,0.7857086250282823
1772555835214228500,6.918228515625,-0.007331658062338829,-0.3329652956753969,0.7972514710448682
1772555835224160500,6.928160400390625,0.005913607957959175,-0.38541999779492614,0.782572372829169
1772555835234091500,6.938091552734375,0.06664660134017467,-0.43275984111875293,0.7231093263175338
1772555835244022300,6.948022216796875,0.138594231697917,-0.467797544491291,0.6626797728613019
1772555835253954300,6.957954345703125,0.16494564752876759,-0.4816922143310308,0.5938727420842275
1772555835263885600,6.967885498046875,0.16198504415750503,-0.5481675507575273,0.5465779069459066
1772555835273817600,6.977817626953125,0.12801789262592791,-0.6365878847494721,0.5153428472593427
1772555835283748400,6.987748291015625,0.06564999151825904,-0.7059945984527468,0.510789019879885
1772555835293680400,6.997680419921875,-0.00895721343755722,-0.7809519320204854,0.563374618370086
1772555835303611400,7.007611328125,-0.13339724757671356,-0.8711290465518832,0.5932583730455487
1772555835313542400,7.01754248046875,-0.2978612490683794,-0.973167571529746,0.6055082713529467
1772555835323474400,7.027474365234375,-0.4335965842038393,-0.9904609438970684,0.6510739446111024
1772555835333405400,7.037405517578125,-0.5683300488203764,-0.9453127653986215,0.6471731377802789
1772555835343337500,7.04733740234375,-0.6693833621531724,-0.9280123787686229,0.6474320079121738
1772555835353268500,7.0572685546875,-0.7209276714295149,-0.9319500104784965,0.6430036700759083
1772555835363199500,7.067199462890625,-0.7412240250051021,-0.9716539520964026,0.582377132742852
1772555835373131500,7.077131591796875,-0.7764601735591888,-1.0706593929886816,0.44360126086771484
1772555835383062300,7.087062255859375,-0.7738572975844145,-1.205299334102869,0.2944118392668664
1772555835392994300,7.096994384765625,-0.74533087580204,-1.3315768128022551,0.19448942966014146
1772555835402925600,7.106925537109375,-0.7036912899464368,-1.3438161166504026,0.2590432234395295
1772555835412856300,7.116856201171875,-0.738618810942769,-1.2361752416208385,0.4325774702891707
1772555835422788400,7.126788330078125,-0.9238076205551624,-1.1377265578284859,0.5561933285638689
1772555835432719400,7.13671923828125,-1.2551567132055759,-1.0262126407578587,0.6452552483949809
1772555835442651400,7.1466513671875,-1.6582541142493485,-0.8788941275954246,0.7092057425189763
1772555835452582400,7.15658251953125,-2.053634072783589,-0.6098930623084307,0.8223977488696574
1772555835462514400,7.166514404296875,-2.3417454967319964,-0.25906740803271533,0.9007904637135564
1772555835472445400,7.176445556640625,-2.5107757832258937,0.016385025350749493,0.8455928926266729
1772555835482376400,7.18637646484375,-2.5376491771042344,0.2510150344803929,0.7178868424288928
1772555835492308500,7.19630859375,-2.3830928216427565,0.4611798799172043,0.5406410277102143
1772555835502239500,7.206239501953125,-2.0332523790121075,0.6427510835543274,0.3831035375460982
1772555835512171500,7.216171630859375,-1.6036977636754512,0.7932125709176063,0.2661287977863103
1772555835522102300,7.226102294921875,-1.1685860987335444,0.8561153095543385,0.17485373195037246
1772555835532033500,7.236033447265625,-0.7659025391876697,0.8679404796436428,0.09680617728233337
1772555835541965600,7.245965576171875,-0.4058534217536449,0.8549883513510227,0.032915158260613676
1772555835551896300,7.255896240234375,-0.12367197237610816,0.8211193994969129,-0.0032193273726850748
1772555835561828400,7.265828369140625,0.12911562473475932,0.788298787651956,-0.04235518677905201
1772555835571759400,7.27575927734375,0.36215690336823464,0.7712687423959373,-0.04908274146839976
1772555835581690600,7.285690673828125,0.576762361600995,0.7695093315079807,-0.008126461701840162
1772555835591622400,7.295622314453125,0.7841682637184858,0.7708800353392958,0.047618733330443495
1772555835601553400,7.305553466796875,0.9657873981505631,0.770758454786241,0.08028802707120776
1772555835611485400,7.3154853515625,1.0948925014913082,0.7891229635164141,0.04655227314271033
1772555835621416400,7.32541650390625,1.1628092688977718,0.8062892023727297,-0.0259544524025172
1772555835631348500,7.335348388671875,1.1915431959509848,0.8553791042342781,-0.09509009407944977
1772555835641279500,7.345279541015625,1.2202560802161693,0.918364260457456,-0.13009184935577214
1772555835651210500,7.35521044921875,1.230140929892659,0.9826187059640884,-0.15685462246648965
1772555835661142300,7.365142333984375,1.2094967857927084,1.018487307202816,-0.18638773707337677
1772555835671073500,7.375073486328125,1.1646692175507545,1.0104521770462394,-0.18205840263217687
1772555835681005600,7.385005615234375,1.12832890714705,0.9812509247422218,-0.13752112257368862
1772555835690936300,7.394936279296875,1.0685486844450234,0.9415458140805363,-0.11135244289860129
1772555835700867300,7.404867431640625,0.9915589682668446,0.8926631252288818,-0.12217289292477071
1772555835710799400,7.41479931640625,0.8235095095038414,0.8352569381818175,-0.1373305684376508
1772555835720730600,7.424730712890625,0.6523240908026695,0.8341594983339309,-0.16968780055455862
1772555835730662400,7.434662353515625,0.5403168372571469,0.8996420243307948,-0.2508259416490793
1772555835740593400,7.444593505859375,0.47237902706265444,0.9549673134505748,-0.29142953552044926
1772555835750525400,7.454525390625,0.41285833207964895,0.9356810137003659,-0.32092962464056907
1772555835760456400,7.46445654296875,0.3195686384856701,0.8629206056550145,-0.3412169911921024
1772555835770387500,7.474387451171875,0.2088683758854866,0.806300016027689,-0.29194902934990824
1772555835780319500,7.484319580078125,0.07393558930456638,0.7805816374033689,-0.11386990561224519
1772555835790250500,7.49425048828125,-0.12576456074118614,0.713913116492331,0.128154816878587
1772555835800182500,7.5041826171875,-0.3144663469105959,0.6473910183146595,0.3836518921438604
1772555835810113800,7.51411376953125,-0.5009159702390432,0.5815376131787896,0.6255898131340741
1772555835820044800,7.524044921875,-0.6834118875056505,0.5192267029553651,0.7780710428219288
1772555835829976600,7.5339765625,-0.857727420926094,0.49139147830754515,0.7836672553937881
1772555835839907600,7.543907470703125,-0.9591980828881264,0.5653939953684807,0.6965323581025004
1772555835849839600,7.553839599609375,-0.9858289001822471,0.6768646578192711,0.5846979038406163
1772555835859770600,7.5637705078125,-0.9201794931858778,0.7298568278163671,0.46376054406017064
1772555835869701600,7.57370166015625,-0.8106704861968755,0.7191694295853376,0.36113771638832987
1772555835879633700,7.583633544921875,-0.6797802530050278,0.6457990729480981,0.32033596959635613
1772555835889564700,7.593564697265625,-0.5617892488747834,0.5235451506763696,0.33212972163408994
1772555835899496400,7.603496337890625,-0.4677841004878282,0.4519415114507079,0.3733754128012806
1772555835909427700,7.613427734375,-0.40046705254018305,0.4039744761392474,0.4450475141532719
1772555835919359700,7.62335986328125,-0.34526714336574077,0.34870880825221534,0.49800110570564865
1772555835929290500,7.63329052734375,-0.3249088304698467,0.29430121849924323,0.5498187520306557
1772555835939221500,7.643221435546875,-0.3364478770941496,0.24669717128127813,0.60785914532803
1772555835949153500,7.653153564453125,-0.2941898670792579,0.23057810339033602,0.6773029031060636
1772555835959084800,7.663084716796875,-0.27310031729936596,0.23372604602724312,0.7470978124093264
1772555835969016600,7.6730166015625,-0.2505646603643894,0.2507455698892474,0.8224317242044955
1772555835978947600,7.682947509765625,-0.21815350610315798,0.31548721439093347,0.8706213162254541
1772555835988878800,7.69287890625,-0.35182138731479645,0.35216450166404245,0.8302141947742551
1772555835998810600,7.702810546875,-0.2509615507274866,0.24444588522315025,0.7039045673709362
1772555836008741600,7.71274169921875,-0.09605331308841705,0.05197422512620687,0.39844533745422955
1772555836018673700,7.722673583984375,-0.14748013346493244,0.0345469972461462,0.43762284404523666
1772555836028604700,7.732604736328125,-0.26736674208343025,0.03066401833295822,0.5817033251345157
1772555836038536400,7.742536376953125,-0.32917233313322064,-0.011100947467982769,0.8795924120578914
1772555836048467700,7.7524677734375,-0.3780576523333788,-0.10045330161303281,1.1524866853911429
1772555836058398700,7.762398681640625,-0.4021604124546051,-0.017169161465764044,1.3222775079287588
1772555836068330800,7.772330810546875,-0.3965682915359735,0.2822580217450857,1.354794314521551
