time,seconds_elapsed,z,y,x
1772555383828541200,0.066541259765625,-0.26929059624671936,-0.05839616432785988,0.24654489755630493
1772555383838473200,0.07647314453125,-0.27461934089660645,0.026605278253555298,0.22831395268440247
1772555383848404200,0.086404296875,-0.27672380208969116,0.11926054954528809,0.18707819283008575
1772555383858337300,0.096337158203125,-0.27548888325691223,0.1926490068435669,0.14130884408950806
1772555383868269300,0.106269287109375,-0.2642289698123932,0.24872387945652008,0.1051434874534607
1772555383878200300,0.116200439453125,-0.2510492503643036,0.2841370105743408,0.08349065482616425
1772555383888132400,0.12613232421875,-0.24137988686561584,0.31250596046447754,0.07283183187246323
1772555383898065400,0.1360654296875,-0.23905308544635773,0.3389378488063812,0.07730753719806671
1772555383907996200,0.14599609375,-0.24296149611473083,0.34024420380592346,0.07729215174913406
1772555383917929200,0.15592919921875,-0.24781803786754608,0.35011520981788635,0.07609452307224274
1772555383927860200,0.165860107421875,-0.2371661514043808,0.36949673295021057,0.05734337866306305
1772555383937792300,0.175792236328125,-0.20427317917346954,0.38180744647979736,0.034634873270988464
1772555383947724300,0.185724365234375,-0.13735556602478027,0.3510672152042389,0.06828296929597855
1772555383957656300,0.19565625,-0.09013212472200394,0.3279437720775604,0.12302211672067642
1772555383967588000,0.205588134765625,-0.05781679227948189,0.32777073979377747,0.15689857304096222
1772555383977520000,0.21552001953125,-0.06222938373684883,0.3137286901473999,0.14676789939403534
1772555383987452200,0.2254521484375,-0.1011735126376152,0.25609734654426575,0.10177891701459885
1772555383997384200,0.23538427734375,-0.15369878709316254,0.12042950093746185,0.03563665226101875
1772555384007316200,0.245316162109375,-0.20599791407585144,-0.055906742811203,-0.022847268730401993
1772555384017248300,0.255248291015625,-0.24695226550102234,-0.10302525013685226,-0.05670217424631119
1772555384027180300,0.26518017578125,-0.2656268775463104,0.03985004127025604,-0.016534889116883278
1772555384037112300,0.2751123046875,-0.28774070739746094,0.136870339512825,0.0363251268863678
1772555384047044400,0.28504443359375,-0.2777584195137024,0.16306143999099731,0.0628657341003418
1772555384056976400,0.294976318359375,-0.24412935972213745,0.16692276298999786,0.07380414009094238
1772555384066908400,0.304908447265625,-0.18859347701072693,0.09817089140415192,0.06750262528657913
1772555384076840200,0.314840087890625,-0.12010788917541504,0.02063535340130329,0.03459127992391586
1772555384086772200,0.324772216796875,-0.05855509638786316,0.04832235351204872,0.017768558114767075
1772555384096704300,0.334704345703125,-0.019941125065088272,0.10232512652873993,0.039188891649246216
1772555384106636300,0.34463623046875,0.011032870039343834,0.11072725057601929,0.07348692417144775
1772555384116568300,0.354568359375,0.04117719084024429,0.09292908012866974,0.07254575937986374
1772555384126500400,0.364500244140625,0.05697344243526459,0.10785966366529465,0.05119956657290459
1772555384136432000,0.37443212890625,0.05239946022629738,0.1705360859632492,0.02716347575187683
1772555384146364200,0.3843642578125,0.046834468841552734,0.26541271805763245,0.02274591475725174
1772555384156296200,0.394296142578125,0.025595229119062424,0.35218116641044617,0.04328900948166847
1772555384166228200,0.404228271484375,-0.0019980010110884905,0.41199928522109985,0.09003951400518417
1772555384176160300,0.41416015625,-0.01943611353635788,0.4358534812927246,0.14012612402439117
1772555384186092300,0.42409228515625,-0.031325846910476685,0.40997523069381714,0.16124984622001648
1772555384196024000,0.434024169921875,-0.025665828958153725,0.34061771631240845,0.14883925020694733
1772555384205956000,0.4439560546875,-0.010431896895170212,0.24409794807434082,0.09765248000621796
1772555384215888400,0.453888427734375,0.004580076318234205,0.13146434724330902,0.018558192998170853
1772555384225820400,0.4638203125,0.01846749521791935,0.01690458320081234,-0.0625675767660141
1772555384235752400,0.47375244140625,0.025409290567040443,-0.06202644854784012,-0.13241350650787354
1772555384245684500,0.4836845703125,0.031020037829875946,-0.09613116085529327,-0.1744038462638855
1772555384255616300,0.4936162109375,0.04379149526357651,-0.11493893712759018,-0.19641751050949097
1772555384265548300,0.50354833984375,0.06979323923587799,-0.11183467507362366,-0.21279358863830566
1772555384275480300,0.513480224609375,0.0949862152338028,-0.0834088921546936,-0.1966433823108673
1772555384285412400,0.523412353515625,0.11256150901317596,-0.01576976291835308,-0.15616396069526672
1772555384295344400,0.533344482421875,0.12328952550888062,0.07647813856601715,-0.10379157215356827
1772555384305276200,0.543276123046875,0.13513517379760742,0.14834465086460114,-0.04526203125715256
1772555384315208200,0.553208251953125,0.13708221912384033,0.2096724659204483,0.010725336149334908
1772555384325140200,0.56314013671875,0.145620197057724,0.26763343811035156,0.03992346301674843
1772555384335072300,0.573072265625,0.13884617388248444,0.29050412774086,0.04582609236240387
1772555384345004300,0.58300439453125,0.11770881712436676,0.26302772760391235,0.027951497584581375
1772555384354935800,0.592935791015625,0.08605234324932098,0.2273847609758377,-0.0070158084854483604
1772555384364867800,0.602867919921875,0.06434012949466705,0.18615131080150604,-0.04706788808107376
1772555384374800000,0.6127998046875,0.03958817943930626,0.14382967352867126,-0.0796751007437706
1772555384384731600,0.622731689453125,0.016867080703377724,0.10042764246463776,-0.10196463018655777
1772555384394664000,0.632663818359375,-0.004538342356681824,0.06361903250217438,-0.11435951292514801
1772555384404596000,0.642595947265625,-0.015581308864057064,0.02167169377207756,-0.12626014649868011
1772555384414528000,0.652528076171875,-0.012903233990073204,-0.03289753943681717,-0.1356736123561859
1772555384424460000,0.6624599609375,-0.01366320438683033,-0.07826457172632217,-0.14648118615150452
1772555384434391800,0.672391845703125,-0.016456861048936844,-0.11386170983314514,-0.16611480712890625
1772555384444323800,0.68232373046875,-0.017786527052521706,-0.15290971100330353,-0.19349896907806396
1772555384454255900,0.692255859375,-0.024398891255259514,-0.1970428228378296,-0.22118599712848663
1772555384464188000,0.70218798828125,-0.029396023601293564,-0.2388918101787567,-0.24517571926116943
1772555384474120000,0.712119873046875,-0.028088944032788277,-0.27284178137779236,-0.25057289004325867
1772555384484052000,0.722052001953125,-0.02616914175450802,-0.30497387051582336,-0.22845274209976196
1772555384493983700,0.731983642578125,-0.02201913855969906,-0.3177999258041382,-0.19121749699115753
1772555384503915800,0.741915771484375,-0.013943903148174286,-0.29840463399887085,-0.1515817940235138
1772555384513847800,0.751847900390625,-0.011148381978273392,-0.26671889424324036,-0.12314563244581223
1772555384523779800,0.76177978515625,-0.0008499366231262684,-0.22856968641281128,-0.11530792713165283
1772555384533712000,0.7717119140625,0.012571597471833229,-0.1908199042081833,-0.11675669252872467
1772555384543644000,0.781643798828125,0.02540074661374092,-0.14575695991516113,-0.13190965354442596
1772555384553575700,0.79157568359375,0.028225824236869812,-0.10160813480615616,-0.15609514713287354
1772555384563507700,0.8015078125,0.025358933955430984,-0.06160532683134079,-0.1721859723329544
1772555384573439700,0.811439697265625,0.02911265939474106,-0.0206307303160429,-0.18040607869625092
1772555384583371800,0.821371826171875,0.034515123814344406,0.015249338001012802,-0.18394052982330322
1772555384593303800,0.8313037109375,0.03838762640953064,0.02787858247756958,-0.17505036294460297
1772555384603235800,0.84123583984375,0.044423848390579224,0.018107306212186813,-0.16023635864257812
1772555384613167900,0.85116796875,0.0488516204059124,0.014020418748259544,-0.13134078681468964
1772555384623100000,0.861099853515625,0.04838818311691284,0.013133008033037186,-0.09433449804782867
1772555384633032000,0.871031982421875,0.042039208114147186,0.009416567161679268,-0.05418681353330612
1772555384642964000,0.8809638671875,0.03710572421550751,0.00006688572466373444,-0.014928585849702358
1772555384652896000,0.89089599609375,0.02941691130399704,-0.012914692983031273,0.01945442147552967
1772555384662828000,0.900828125,0.02466774359345436,-0.01574687287211418,0.0498652309179306
1772555384672759800,0.910759765625,0.0275570061057806,-0.03554534539580345,0.08295633643865585
1772555384682691800,0.92069189453125,0.03448960557579994,-0.06689313799142838,0.12194088846445084
1772555384692624000,0.930623779296875,0.04519391432404518,-0.08855688571929932,0.15438777208328247
1772555384702556000,0.940555908203125,0.0478939488530159,-0.09072598814964294,0.18067318201065063
1772555384712488000,0.950488037109375,0.05263277888298035,-0.09073077887296677,0.19776001572608948
1772555384722419700,0.960419677734375,0.052072878926992416,-0.09890438616275787,0.20562128722667694
1772555384732351700,0.970351806640625,0.045021094381809235,-0.1147075742483139,0.20157088339328766
1772555384742283800,0.98028369140625,0.04224707931280136,-0.11362874507904053,0.18764661252498627
1772555384752215800,0.9902158203125,0.03868323564529419,-0.09844367206096649,0.16554690897464752
1772555384762147800,1.00014794921875,0.028135132044553757,-0.08885393291711807,0.1307804137468338
1772555384772079900,1.010079833984375,0.022156868129968643,-0.08457955718040466,0.09545677900314331
1772555384782011600,1.02001171875,0.02092830464243889,-0.10223720967769623,0.06120435893535614
1772555384791943700,1.029943603515625,0.037335507571697235,-0.11994936317205429,0.036323241889476776
1772555384801875700,1.039875732421875,0.060378413647413254,-0.1292727142572403,0.029159650206565857
1772555384811807700,1.049807861328125,0.08611892908811569,-0.14724744856357574,0.03526654466986656
1772555384821740000,1.059739990234375,0.10803313553333282,-0.15820707380771637,0.05011683702468872
1772555384831672000,1.069672119140625,0.12238438427448273,-0.1453258991241455,0.05608178302645683
1772555384841603800,1.079603759765625,0.1226612776517868,-0.09818423539400101,0.05034487694501877
1772555384851536000,1.089535888671875,0.10892655700445175,-0.013229663483798504,0.034690551459789276
1772555384861468000,1.099468017578125,0.08760109543800354,0.10752364993095398,-0.01277703233063221
1772555384871400000,1.10939990234375,0.06425981968641281,0.21061992645263672,-0.08273028582334518
1772555384881332000,1.11933203125,0.04404454305768013,0.28104865550994873,-0.1694786548614502
1772555384891264000,1.129263916015625,0.037142425775527954,0.3292396366596222,-0.2560819983482361
1772555384901195800,1.13919580078125,0.03878949582576752,0.3559611737728119,-0.3167526423931122
1772555384911127800,1.1491279296875,0.061996012926101685,0.34609654545783997,-0.3358592092990875
1772555384921059800,1.159059814453125,0.09342785179615021,0.30452054738998413,-0.2883497476577759
1772555384930991900,1.168991943359375,0.12256523221731186,0.23470284044742584,-0.18134020268917084
1772555384940924000,1.178923828125,0.15045295655727386,0.1302894651889801,-0.05801250785589218
1772555384950856000,1.18885595703125,0.1729486733675003,0.007437312975525856,0.052199218422174454
1772555384960787700,1.19878759765625,0.1879868358373642,-0.11692072451114655,0.12252381443977356
1772555384970719700,1.2087197265625,0.20094498991966248,-0.20871083438396454,0.14393723011016846
1772555384980651800,1.21865185546875,0.20908613502979279,-0.2502230703830719,0.13527967035770416
1772555384990583800,1.228583740234375,0.2048618197441101,-0.24370123445987701,0.10831223428249359
1772555385000515800,1.238515869140625,0.19205190241336823,-0.19442275166511536,0.06867152452468872
1772555385010447600,1.248447509765625,0.17880479991436005,-0.13929665088653564,0.03285466879606247
1772555385020380000,1.2583798828125,0.17526723444461823,-0.08908874541521072,0.026093069463968277
1772555385030312000,1.26831201171875,0.1753828078508377,-0.046304259449243546,0.05744726210832596
1772555385040244000,1.278243896484375,0.18887290358543396,-0.01609886810183525,0.11961953341960907
1772555385050176000,1.288176025390625,0.19507381319999695,0.0019411183893680573,0.199668288230896
1772555385060108000,1.29810791015625,0.19133241474628448,0.022005077451467514,0.27903681993484497
1772555385070039800,1.308039794921875,0.17692045867443085,0.05717851221561432,0.33384016156196594
1772555385079970800,1.317970703125,0.15580888092517853,0.07318653911352158,0.3488129675388336
1772555385089902800,1.32790283203125,0.12337585538625717,0.07502545416355133,0.3225345015525818
1772555385099835000,1.3378349609375,0.0886867493391037,0.07608179748058319,0.2760835289955139
1772555385109767000,1.347766845703125,0.05555569380521774,0.07861818373203278,0.21281321346759796
1772555385119698700,1.35769873046875,0.033357422798871994,0.07674635201692581,0.16361463069915771
1772555385129630700,1.367630615234375,0.02093058079481125,0.05738144367933273,0.13884218037128448
1772555385139562800,1.377562744140625,0.01774635910987854,0.04774991422891617,0.13787955045700073
1772555385149494800,1.387494873046875,0.011271681636571884,0.054304756224155426,0.14088626205921173
1772555385159426800,1.3974267578125,-0.0006685503758490086,0.06772150099277496,0.13414308428764343
1772555385169358800,1.40735888671875,-0.026883374899625778,0.0966562032699585,0.11379280686378479
1772555385179291000,1.417290771484375,-0.05315209925174713,0.1262264996767044,0.07493571192026138
1772555385189223000,1.427222900390625,-0.08056055009365082,0.14095883071422577,0.03424127772450447
1772555385199155000,1.437155029296875,-0.09988672286272049,0.15528246760368347,-0.004349818453192711
1772555385209087000,1.4470869140625,-0.11302542686462402,0.17342764139175415,-0.03474447503685951
1772555385219019000,1.45701904296875,-0.11896505206823349,0.1879929006099701,-0.06659518927335739
1772555385228950800,1.46695068359375,-0.1262005865573883,0.19708788394927979,-0.09543775767087936
1772555385238882800,1.4768828125,-0.12950317561626434,0.20309540629386902,-0.12283115833997726
1772555385248814800,1.48681494140625,-0.13073836266994476,0.21387988328933716,-0.14005595445632935
1772555385258747000,1.496746826171875,-0.11974290758371353,0.21015286445617676,-0.12904053926467896
1772555385268679000,1.506678955078125,-0.09595848619937897,0.19482770562171936,-0.09578324854373932
1772555385278611000,1.51661083984375,-0.06401532143354416,0.19542287290096283,-0.05701879411935806
1772555385288542700,1.526542724609375,-0.02610629051923752,0.19494056701660156,-0.019962772727012634
1772555385298474800,1.536474853515625,0.005433283746242523,0.2038271576166153,0.013197878375649452
1772555385308406800,1.54640673828125,0.038841038942337036,0.21363717317581177,0.04064148664474487
1772555385318338800,1.5563388671875,0.07186997681856155,0.2158539593219757,0.06281443685293198
1772555385328270800,1.566270751953125,0.10455841571092606,0.2125748097896576,0.08292236924171448
1772555385338203000,1.576202880859375,0.13475027680397034,0.1974666714668274,0.09189389646053314
1772555385348134700,1.586134765625,0.1663028746843338,0.16711010038852692,0.07597431540489197
1772555385358066700,1.596066650390625,0.18926583230495453,0.1280902773141861,0.03847847506403923
1772555385367998700,1.605998779296875,0.20524346828460693,0.08020345121622086,-0.01827375590801239
1772555385377930800,1.6159306640625,0.21496611833572388,0.055265747010707855,-0.08596377074718475
1772555385387863000,1.625863037109375,0.21708253026008606,0.04664350301027298,-0.14002913236618042
1772555385397795000,1.635795166015625,0.1963743269443512,0.0559089258313179,-0.1780400425195694
1772555385407727000,1.64572705078125,0.15968076884746552,0.07776042819023132,-0.19582302868366241
1772555385417659000,1.655658935546875,0.13058342039585114,0.08854951709508896,-0.2091677486896515
1772555385427591000,1.6655908203125,0.10713616013526917,0.0685632973909378,-0.2296445220708847
1772555385437523000,1.67552294921875,0.08719775080680847,0.02371218614280224,-0.26609960198402405
1772555385447455000,1.685455078125,0.06846613436937332,-0.016163857653737068,-0.30850404500961304
1772555385457387000,1.695386962890625,0.04601307958364487,-0.03824756294488907,-0.34180736541748047
1772555385467319000,1.705319091796875,0.022350095212459564,-0.03212255984544754,-0.35501423478126526
1772555385477250800,1.715250732421875,-0.010315658524632454,-0.0034354068338871002,-0.34475329518318176
1772555385487182800,1.725182861328125,-0.040108442306518555,0.023780768737196922,-0.3097015619277954
1772555385497115000,1.735114990234375,-0.06505943089723587,0.0397917740046978,-0.25873780250549316
1772555385507047000,1.745046875,-0.08462700247764587,0.03486492484807968,-0.19538120925426483
1772555385516979000,1.75497900390625,-0.09546072036027908,0.02541779726743698,-0.1446331888437271
1772555385526910700,1.76491064453125,-0.10634079575538635,0.004586018621921539,-0.10297548770904541
1772555385536842800,1.7748427734375,-0.11535106599330902,-0.01154126226902008,-0.08030573278665543
1772555385546774800,1.78477490234375,-0.12149684131145477,-0.02640915848314762,-0.07769051194190979
1772555385556706800,1.794706787109375,-0.12703050673007965,-0.02834763564169407,-0.08511274307966232
1772555385566638800,1.804638916015625,-0.13108010590076447,-0.026204857975244522,-0.10185177624225616
1772555385576571000,1.81457080078125,-0.12622621655464172,-0.000646018423140049,-0.12298516184091568
1772555385586503000,1.8245029296875,-0.1251010298728943,0.020967399701476097,-0.13962885737419128
1772555385596435000,1.83443505859375,-0.11248937994241714,0.03159292787313461,-0.1471518874168396
1772555385606367000,1.844366943359375,-0.10282450914382935,0.0345919132232666,-0.1460711658000946
1772555385616299000,1.854299072265625,-0.09562672674655914,0.047660090029239655,-0.14581984281539917
1772555385626231000,1.86423095703125,-0.09112118929624557,0.05322103947401047,-0.1373714953660965
1772555385636163000,1.8741630859375,-0.08160439133644104,0.04819647967815399,-0.13026951253414154
1772555385646094800,1.8840947265625,-0.06879272311925888,0.03584206849336624,-0.12237431854009628
1772555385656027000,1.89402685546875,-0.05432819575071335,0.020248625427484512,-0.1162370964884758
1772555385665959000,1.903958984375,-0.038364943116903305,0.006371425464749336,-0.1177939847111702
1772555385675891000,1.913890869140625,-0.025559712201356888,-0.0038562482222914696,-0.11344722658395767
1772555385685823000,1.923822998046875,-0.017067160457372665,-0.011064892634749413,-0.10950202494859695
1772555385695755000,1.933755126953125,-0.019296782091259956,-0.02548740804195404,-0.10198886692523956
1772555385705686800,1.943686767578125,-0.022545039653778076,-0.02692471630871296,-0.09680023044347763
1772555385715618800,1.953618896484375,-0.031437139958143234,-0.031032102182507515,-0.09687486290931702
1772555385725550800,1.96355078125,-0.043421898037195206,-0.03721729665994644,-0.09117383509874344
1772555385735483000,1.97348291015625,-0.04719334840774536,-0.04837670177221298,-0.09283432364463806
1772555385745415000,1.983414794921875,-0.05746515840291977,-0.045990243554115295,-0.09052616357803345
1772555385755347000,1.993346923828125,-0.07083059102296829,-0.03343623876571655,-0.08209256827831268
1772555385765278000,2.00327783203125,-0.08313492685556412,-0.028992220759391785,-0.0675133615732193
1772555385775210800,2.013210693359375,-0.09463455528020859,-0.027056239545345306,-0.04060514271259308
1772555385785142000,2.02314208984375,-0.1083168089389801,-0.022476667538285255,-0.014788727276027203
1772555385795074000,2.033073974609375,-0.11663325875997543,-0.021350979804992676,0.003898084629327059
1772555385805005800,2.043005859375,-0.11770837754011154,-0.029762839898467064,0.026611387729644775
1772555385814937900,2.052937744140625,-0.11869832873344421,-0.04468464478850365,0.04580023139715195
1772555385824870000,2.062869873046875,-0.1146647036075592,-0.07006936520338058,0.06579497456550598
1772555385834802000,2.072802001953125,-0.1078549474477768,-0.09779408574104309,0.07717443257570267
1772555385844734000,2.08273388671875,-0.10637716203927994,-0.11413338035345078,0.0788775235414505
1772555385854666000,2.092666015625,-0.10311473906040192,-0.11530323326587677,0.06774129718542099
1772555385864597800,2.10259765625,-0.10037088394165039,-0.10516884177923203,0.049787864089012146
1772555385874529800,2.11252978515625,-0.10278421640396118,-0.08924481272697449,0.026146728545427322
1772555385884461800,2.1224619140625,-0.10833637416362762,-0.06643564254045486,0.015167847275733948
1772555385894393900,2.132393798828125,-0.11028258502483368,-0.041512858122587204,0.01457547303289175
1772555385904326000,2.142325927734375,-0.10280975699424744,-0.019875740632414818,0.0389079749584198
1772555385914258000,2.1522578125,-0.08797484636306763,-0.0063430387526750565,0.07940403372049332
1772555385924189700,2.162189697265625,-0.06181194633245468,-0.004264441318809986,0.13388192653656006
1772555385934121700,2.172121826171875,-0.039856478571891785,-0.007887027226388454,0.18508996069431305
1772555385944054000,2.182053955078125,-0.026186209172010422,-0.009865489788353443,0.2141391932964325
1772555385953986000,2.191986083984375,-0.026644684374332428,0.00018558651208877563,0.2261923849582672
1772555385963918000,2.20191796875,-0.025416433811187744,-0.003300226293504238,0.2296566218137741
1772555385973850000,2.21185009765625,-0.03380367532372475,-0.00014562718570232391,0.23854942619800568
1772555385983782000,2.221781982421875,-0.05559046193957329,0.04980888217687607,0.22646212577819824
1772555385993714000,2.2317138671875,-0.10033553838729858,0.10385920852422714,0.19036036729812622
1772555386003646000,2.24164599609375,-0.15340860188007355,0.13329407572746277,0.13368137180805206
1772555386013578000,2.251577880859375,-0.19828130304813385,0.1663869470357895,0.061945341527462006
1772555386023510000,2.261510009765625,-0.22496750950813293,0.18413583934307098,-0.009502744302153587
1772555386033441800,2.27144189453125,-0.23357395827770233,0.21527069807052612,-0.06298144161701202
1772555386043373800,2.281373779296875,-0.23368926346302032,0.2511943578720093,-0.08537302911281586
1772555386053305900,2.291305908203125,-0.2316838502883911,0.29116207361221313,-0.07426254451274872
1772555386063238000,2.30123779296875,-0.22676792740821838,0.31546980142593384,-0.016295377165079117
1772555386073170000,2.311169921875,-0.22335006296634674,0.31231093406677246,0.06781680881977081
1772555386083102000,2.32110205078125,-0.23435477912425995,0.27967843413352966,0.1465480923652649
1772555386093033700,2.33103369140625,-0.23556683957576752,0.2290002405643463,0.2099340856075287
1772555386102965800,2.3409658203125,-0.24044761061668396,0.16557200253009796,0.2610683739185333
1772555386112897800,2.350897705078125,-0.23885056376457214,0.09446181356906891,0.2928149104118347
1772555386122829800,2.360829833984375,-0.23058703541755676,-0.005082618445158005,0.3140355348587036
1772555386132761900,2.370761962890625,-0.20450952649116516,-0.11388830095529556,0.3419235646724701
1772555386142694000,2.38069384765625,-0.17519611120224,-0.17651093006134033,0.3571070432662964
1772555386152626000,2.3906259765625,-0.1474665254354477,-0.2264443337917328,0.37366366386413574
1772555386162558000,2.400557861328125,-0.1161101907491684,-0.2606576979160309,0.37786000967025757
1772555386172490000,2.410489990234375,-0.07998473197221756,-0.28106042742729187,0.3767628073692322
1772555386182422000,2.420422119140625,-0.04882361739873886,-0.2812516391277313,0.35578057169914246
1772555386192354000,2.43035400390625,-0.019109852612018585,-0.2608092725276947,0.3040040135383606
1772555386202286000,2.4402861328125,-0.001832328736782074,-0.23008891940116882,0.21480676531791687
1772555386212217900,2.4502177734375,0.014842741191387177,-0.21333692967891693,0.08662865310907364
1772555386222150000,2.46014990234375,0.040155019611120224,-0.19681361317634583,-0.06618060171604156
1772555386232082000,2.47008203125,0.07991793006658554,-0.21464766561985016,-0.2016153335571289
1772555386242014000,2.480013916015625,0.10689947754144669,-0.21527084708213806,-0.2921265959739685
1772555386251946000,2.489946044921875,0.1113523319363594,-0.21400627493858337,-0.3340926766395569
1772555386261877800,2.499877685546875,0.09817501157522202,-0.23832333087921143,-0.3249627947807312
1772555386271809800,2.509809814453125,0.09760494530200958,-0.276688814163208,-0.27476048469543457
1772555386281741800,2.519741943359375,0.09677351266145706,-0.2897406816482544,-0.20667678117752075
1772555386291673900,2.529673828125,0.08778171241283417,-0.2787318229675293,-0.14589069783687592
1772555386301606000,2.53960595703125,0.07993284612894058,-0.24140043556690216,-0.10654889047145844
1772555386311538000,2.549537841796875,0.060453079640865326,-0.18909591436386108,-0.10024513304233551
1772555386321469700,2.5594697265625,0.037276383489370346,-0.1365024745464325,-0.11056141555309296
1772555386331401000,2.56940087890625,0.013848388567566872,-0.10509277880191803,-0.12917748093605042
1772555386341333800,2.579333740234375,0.0008433735929429531,-0.10133026540279388,-0.13915127515792847
1772555386351265000,2.58926513671875,-0.0033628223463892937,-0.12073008716106415,-0.13420671224594116
1772555386361197600,2.599197509765625,-0.005635563749819994,-0.13788031041622162,-0.11197064071893692
1772555386371129600,2.609129638671875,0.0007626553997397423,-0.15187162160873413,-0.0932898074388504
1772555386381061400,2.619061279296875,0.008235219866037369,-0.17282803356647491,-0.08522123098373413
1772555386390993400,2.628993408203125,0.01312175765633583,-0.18628224730491638,-0.09074205160140991
1772555386400925400,2.638925537109375,0.020145844668149948,-0.18524491786956787,-0.12022724002599716
1772555386410857500,2.648857421875,0.02461651712656021,-0.16739410161972046,-0.1601240336894989
1772555386420789500,2.65878955078125,0.029013395309448242,-0.13472910225391388,-0.19292378425598145
1772555386430721300,2.66872119140625,0.03020770289003849,-0.09995440393686295,-0.2248842418193817
1772555386440653300,2.6786533203125,0.03816256299614906,-0.06886892765760422,-0.24752937257289886
1772555386450585300,2.68858544921875,0.046667661517858505,-0.03122204728424549,-0.2692917585372925
1772555386460517400,2.698517333984375,0.05241449922323227,0.012273497879505157,-0.2849479615688324
1772555386470449400,2.708449462890625,0.06286299973726273,0.049664318561553955,-0.2971052825450897
1772555386480381400,2.71838134765625,0.07409967482089996,0.07357630878686905,-0.2993255853652954
1772555386490313200,2.728313232421875,0.09197977185249329,0.10397668927907944,-0.2954995036125183
1772555386500245200,2.738245361328125,0.10831693559885025,0.1458096206188202,-0.2803700864315033
1772555386510177300,2.74817724609375,0.12707899510860443,0.19216634333133698,-0.25733017921447754
1772555386520109300,2.758109375,0.15524005889892578,0.22646039724349976,-0.22276580333709717
1772555386530041300,2.768041259765625,0.1929568648338318,0.2594352066516876,-0.18974202871322632
1772555386539973400,2.777973388671875,0.22193817794322968,0.2860393822193146,-0.16133488714694977
1772555386549905400,2.787905517578125,0.2437528818845749,0.2910013496875763,-0.1390255093574524
1772555386559837400,2.79783740234375,0.27437764406204224,0.2954251170158386,-0.11580674350261688
1772555386569769500,2.80776953125,0.29723039269447327,0.2768038511276245,-0.0892304852604866
1772555386579701500,2.817701416015625,0.31954503059387207,0.2378990650177002,-0.05611434578895569
1772555386589633500,2.827633544921875,0.3371403217315674,0.1789315938949585,-0.023147130385041237
1772555386599565600,2.837565673828125,0.34880951046943665,0.11153816431760788,0.01739869825541973
1772555386609497300,2.847497314453125,0.36177659034729004,0.053948551416397095,0.04050389677286148
1772555386619429400,2.857429443359375,0.35767772793769836,0.0023032017052173615,0.05735557898879051
1772555386629361400,2.867361328125,0.35350683331489563,-0.052877575159072876,0.06780584901571274
1772555386639293400,2.87729345703125,0.3431774973869324,-0.09696461260318756,0.08431292325258255
1772555386649225500,2.8872255859375,0.33786964416503906,-0.1173485741019249,0.08969767391681671
1772555386659157200,2.8971572265625,0.3304269313812256,-0.11857762932777405,0.09376510977745056
1772555386669089300,2.90708935546875,0.3128018379211426,-0.10003902018070221,0.09458375722169876
1772555386679021300,2.917021240234375,0.3017180263996124,-0.06957458704710007,0.09559016674757004
1772555386688953300,2.926953369140625,0.2917596995830536,-0.04289785400032997,0.09985684603452682
1772555386698885400,2.936885498046875,0.2827198803424835,-0.021325983107089996,0.10440392792224884
1772555386708817400,2.9468173828125,0.27723878622055054,0.0023658387362957,0.10898801684379578
1772555386718749200,2.956749267578125,0.2664191722869873,0.030443012714385986,0.11353616416454315
1772555386728681200,2.96668115234375,0.2576958239078522,0.05384831875562668,0.11437343060970306
1772555386738613200,2.97661328125,0.2561083137989044,0.0717088058590889,0.11351083219051361
1772555386748545500,2.986545654296875,0.2497929483652115,0.09099889546632767,0.1106550469994545
1772555386758477600,2.9964775390625,0.2591070830821991,0.10553762316703796,0.11564607173204422
1772555386768409600,3.00640966796875,0.27042073011398315,0.10327351093292236,0.1352694183588028
1772555386778341400,3.01634130859375,0.2780453562736511,0.0909462720155716,0.15974228084087372
1772555386788273400,3.0262734375,0.2858794927597046,0.07950986176729202,0.19081704318523407
1772555386798205400,3.036205322265625,0.29119810461997986,0.05432434380054474,0.21392156183719635
1772555386808137500,3.046137451171875,0.29588577151298523,0.018708396703004837,0.23054805397987366
1772555386818069500,3.056069580078125,0.2956567406654358,-0.01707490161061287,0.23374836146831512
1772555386828001500,3.06600146484375,0.29312363266944885,-0.05372254550457001,0.2346183955669403
1772555386837933300,3.075933349609375,0.2959764003753662,-0.08479444682598114,0.22350741922855377
1772555386847865300,3.085865234375,0.30266231298446655,-0.10114821791648865,0.1866137534379959
1772555386857797400,3.09579736328125,0.3068932592868805,-0.10519862174987793,0.12814991176128387
1772555386867729400,3.1057294921875,0.3027186691761017,-0.08550574630498886,0.06364697962999344
1772555386877661400,3.115661376953125,0.2925208806991577,-0.03285931050777435,-0.010737505741417408
1772555386887592200,3.12559228515625,0.27351534366607666,0.021615998819470406,-0.07380438596010208
1772555386897524500,3.1355244140625,0.24930430948734283,0.07199448347091675,-0.117221899330616
1772555386907456500,3.14545654296875,0.21968604624271393,0.10253924131393433,-0.13107943534851074
1772555386917388500,3.155388427734375,0.1977066993713379,0.10925093293190002,-0.11374332010746002
1772555386927320600,3.165320556640625,0.18263697624206543,0.11576492339372635,-0.054588500410318375
1772555386937252400,3.17525244140625,0.17084342241287231,0.1279321014881134,0.04165761172771454
1772555386947184400,3.185184326171875,0.15474577248096466,0.13925199210643768,0.16389748454093933
1772555386957116400,3.195116455078125,0.13920463621616364,0.13600559532642365,0.2920013666152954
1772555386967048400,3.20504833984375,0.11848347634077072,0.10207761824131012,0.399521142244339
1772555386976980500,3.21498046875,0.098894864320755,0.052002206444740295,0.48944091796875
1772555386986912500,3.22491259765625,0.07470644265413284,-0.004840551875531673,0.5391905307769775
1772555386996844300,3.23484423828125,0.04704950749874115,-0.05978555977344513,0.5573793649673462
1772555387006776300,3.2447763671875,0.026755250990390778,-0.10711459070444107,0.5388558506965637
1772555387016708400,3.254708251953125,0.018751122057437897,-0.15115474164485931,0.5019324421882629
1772555387026640400,3.264640380859375,0.025889482349157333,-0.1854771375656128,0.4473878741264343
1772555387036572400,3.274572509765625,0.03873470798134804,-0.19381815195083618,0.38247305154800415
1772555387046504400,3.28450439453125,0.0484405979514122,-0.16682329773902893,0.3138045072555542
1772555387056436200,3.294436279296875,0.04438939690589905,-0.1265576183795929,0.24030791223049164
1772555387066368300,3.3043681640625,0.041053012013435364,-0.062482625246047974,0.17214727401733398
1772555387076300300,3.31430029296875,0.03316446393728256,0.004256188869476318,0.11538544297218323
1772555387086232300,3.324232421875,0.03288688883185387,0.059925101697444916,0.055784616619348526
1772555387096164400,3.334164306640625,0.033296748995780945,0.10717596858739853,-0.0067783622071146965
1772555387106096400,3.344096435546875,0.03165173903107643,0.14228296279907227,-0.07599654793739319
1772555387116028400,3.3540283203125,0.03526884317398071,0.17360785603523254,-0.14278648793697357
1772555387125960400,3.36396044921875,0.03926714509725571,0.21001580357551575,-0.19216273725032806
1772555387135892500,3.373892578125,0.045162051916122437,0.23848846554756165,-0.21596047282218933
1772555387145824500,3.383824462890625,0.055807746946811676,0.26139071583747864,-0.20955267548561096
1772555387155756500,3.393756591796875,0.06536929309368134,0.2687889635562897,-0.176282599568367
1772555387165688300,3.403688232421875,0.06136590987443924,0.23963692784309387,-0.1369076371192932
1772555387175620400,3.413620361328125,0.04372087121009827,0.17686888575553894,-0.1019134372472763
1772555387185552400,3.423552490234375,0.015089759603142738,0.0863831639289856,-0.07795362919569016
1772555387195484400,3.433484375,-0.02629736252129078,-0.012106651440262794,-0.06795212626457214
1772555387205416400,3.44341650390625,-0.06269490718841553,-0.09110911935567856,-0.06490665674209595
1772555387215348500,3.453348388671875,-0.0959005281329155,-0.1562095582485199,-0.06027142331004143
1772555387225280300,3.4632802734375,-0.13657265901565552,-0.19002637267112732,-0.052050311118364334
1772555387235212300,3.47321240234375,-0.1780996024608612,-0.19922760128974915,-0.04619002342224121
1772555387245144300,3.483144287109375,-0.2185520976781845,-0.17845487594604492,-0.05217829346656799
1772555387255076400,3.493076416015625,-0.2620420455932617,-0.13894101977348328,-0.07421648502349854
1772555387265008400,3.50300830078125,-0.30173879861831665,-0.09920112043619156,-0.09729109704494476
1772555387274940400,3.5129404296875,-0.3338346779346466,-0.06564422696828842,-0.12563110888004303
1772555387284872200,3.5228720703125,-0.3472664952278137,-0.03518415987491608,-0.15190990269184113
1772555387294804200,3.53280419921875,-0.34951555728912354,-0.017527936026453972,-0.17750979959964752
1772555387304736300,3.542736328125,-0.3447175920009613,-0.013068473897874355,-0.21174712479114532
1772555387314668500,3.55266845703125,-0.32363975048065186,-0.019520780071616173,-0.24899569153785706
1772555387324600600,3.5626005859375,-0.298572301864624,-0.03375434875488281,-0.27922576665878296
1772555387334532600,3.57253271484375,-0.259496808052063,-0.0442298948764801,-0.2944856882095337
1772555387344464400,3.58246435546875,-0.21427805721759796,-0.0626840814948082,-0.2808082103729248
1772555387354395400,3.5923955078125,-0.16998302936553955,-0.0970415249466896,-0.2458917498588562
1772555387364328200,3.602328125,-0.12146195769309998,-0.1343260556459427,-0.19463670253753662
1772555387374259200,3.61225927734375,-0.08479049801826477,-0.15204459428787231,-0.14705613255500793
1772555387384191200,3.622191162109375,-0.06512564420700073,-0.15376076102256775,-0.12539881467819214
1772555387394123300,3.632123291015625,-0.062994584441185,-0.1342291533946991,-0.12360838800668716
1772555387404055000,3.642054931640625,-0.06870222091674805,-0.11289720982313156,-0.13752545416355133
1772555387413987000,3.651987060546875,-0.0759287104010582,-0.08974581956863403,-0.15697239339351654
1772555387423919000,3.661919189453125,-0.08355248719453812,-0.06172312796115875,-0.18273605406284332
1772555387433851100,3.67185107421875,-0.0925675556063652,-0.03274314105510712,-0.20236727595329285
1772555387443783200,3.681783203125,-0.11067450791597366,0.0035162735730409622,-0.2137710452079773
1772555387453715200,3.691715087890625,-0.12687158584594727,0.032480545341968536,-0.2150818407535553
1772555387463647200,3.701647216796875,-0.14162230491638184,0.06966575235128403,-0.20406264066696167
1772555387473579300,3.711579345703125,-0.15775413811206818,0.09568030387163162,-0.18294750154018402
1772555387483511300,3.72151123046875,-0.1760067492723465,0.10988518595695496,-0.15247024595737457
1772555387493443300,3.731443359375,-0.19402170181274414,0.11139360070228577,-0.12616832554340363
1772555387503375400,3.741375244140625,-0.20852576196193695,0.11247575283050537,-0.1066470593214035
1772555387513307400,3.751307373046875,-0.2198878675699234,0.12076936662197113,-0.09697472304105759
1772555387523239200,3.7612392578125,-0.23328593373298645,0.12519967555999756,-0.10313976556062698
1772555387533171200,3.771171142578125,-0.23666894435882568,0.1231418326497078,-0.11038196831941605
1772555387543103200,3.781103271484375,-0.2411450296640396,0.11377005279064178,-0.11591280251741409
1772555387553035300,3.79103515625,-0.24445107579231262,0.10824719816446304,-0.11862123757600784
1772555387562967300,3.80096728515625,-0.24721115827560425,0.08739665895700455,-0.1113068237900734
1772555387572899300,3.8108994140625,-0.2466857135295868,0.05696950852870941,-0.09893058240413666
1772555387582831000,3.8208310546875,-0.23762470483779907,0.020194001495838165,-0.07753238081932068
1772555387592763100,3.83076318359375,-0.22986318171024323,-0.017185596749186516,-0.060718514025211334
1772555387602695200,3.840695068359375,-0.2142881602048874,-0.05330610275268555,-0.05057816952466965
1772555387612627200,3.850627197265625,-0.19798481464385986,-0.06884272396564484,-0.045755986124277115
1772555387622559200,3.860559326171875,-0.17891450226306915,-0.07983632385730743,-0.04881308227777481
1772555387632491000,3.870490966796875,-0.16337734460830688,-0.07798169553279877,-0.05170340836048126
1772555387642423000,3.880423095703125,-0.15473611652851105,-0.08331334590911865,-0.06853026151657104
1772555387652355000,3.89035498046875,-0.1492910236120224,-0.09639958292245865,-0.07824680209159851
1772555387662287400,3.900287353515625,-0.14442045986652374,-0.11219016462564468,-0.0794619619846344
1772555387672219400,3.910219482421875,-0.13414278626441956,-0.11854419857263565,-0.0680074393749237
1772555387682151400,3.9201513671875,-0.12507843971252441,-0.12332867085933685,-0.039017170667648315
1772555387692083200,3.930083251953125,-0.12009672820568085,-0.12696760892868042,0.010033193044364452
1772555387702015200,3.94001513671875,-0.11177795380353928,-0.10547879338264465,0.07567105442285538
1772555387711947300,3.949947265625,-0.11379077285528183,-0.06998657435178757,0.13507525622844696
1772555387721879300,3.95987939453125,-0.12852609157562256,-0.051081135869026184,0.18853603303432465
1772555387731811300,3.969811279296875,-0.15345647931098938,-0.028141196817159653,0.21959514915943146
1772555387741743400,3.979743408203125,-0.20146380364894867,0.001186273992061615,0.22624123096466064
1772555387751675100,3.989675048828125,-0.2773958444595337,0.047352440655231476,0.18691645562648773
1772555387761607200,3.999607177734375,-0.3655942976474762,0.08793123066425323,0.11544322222471237
1772555387771539200,4.009539306640625,-0.43489664793014526,0.12137147784233093,0.0316561758518219
1772555387781471200,4.01947119140625,-0.4593234658241272,0.1384233832359314,-0.02280246466398239
1772555387791403300,4.0294033203125,-0.4419466257095337,0.15886154770851135,-0.02737484499812126
1772555387801335300,4.039335205078125,-0.3945338726043701,0.19948799908161163,0.032838642597198486
1772555387811267000,4.04926708984375,-0.3270006477832794,0.22434382140636444,0.15275120735168457
1772555387821198300,4.0591982421875,-0.2353876233100891,0.225925475358963,0.32063955068588257
1772555387831130400,4.06913037109375,-0.13622668385505676,0.18785318732261658,0.49156227707862854
1772555387841062400,4.0790625,-0.053528446704149246,0.11144562065601349,0.635569155216217
1772555387850994200,4.088994140625,0.004209682811051607,0.016102857887744904,0.7194568514823914
1772555387860926200,4.09892626953125,0.02895369380712509,-0.08541122823953629,0.7298863530158997
1772555387870858200,4.108858154296875,0.039918459951877594,-0.18751229345798492,0.6932538151741028
1772555387880790300,4.118790283203125,0.03399941697716713,-0.2909594178199768,0.6336615085601807
1772555387890722300,4.128722412109375,0.0074751293286681175,-0.38431042432785034,0.5704529881477356
1772555387900654300,4.138654296875,-0.030485592782497406,-0.4583389461040497,0.511425256729126
1772555387910586000,4.148586181640625,-0.07497289776802063,-0.509971559047699,0.4641285240650177
1772555387920518100,4.15851806640625,-0.11806371808052063,-0.5312051773071289,0.4234020709991455
1772555387930450200,4.1684501953125,-0.16111744940280914,-0.533515989780426,0.37811875343322754
1772555387940382200,4.17838232421875,-0.19433484971523285,-0.4839438796043396,0.3457305133342743
1772555387950314200,4.188314208984375,-0.2155677080154419,-0.4314388632774353,0.34134164452552795
1772555387960246300,4.198246337890625,-0.21749290823936462,-0.4124239385128021,0.3242316246032715
1772555387970178000,4.208177978515625,-0.1995738297700882,-0.38475024700164795,0.26466044783592224
1772555387980110000,4.218110107421875,-0.17257370054721832,-0.33247682452201843,0.18159037828445435
1772555387990042000,4.2280419921875,-0.14881084859371185,-0.2671225965023041,0.10598189383745193
1772555387999974100,4.23797412109375,-0.12539954483509064,-0.1910102814435959,0.04852593317627907
1772555388009906200,4.24790625,-0.1155218705534935,-0.11516796797513962,0.0035544633865356445
1772555388019838200,4.257838134765625,-0.11545096337795258,-0.04355984181165695,-0.037077054381370544
1772555388029770200,4.267770263671875,-0.11923611164093018,0.01470319926738739,-0.08499078452587128
1772555388039702300,4.277702392578125,-0.1343354880809784,0.043391481041908264,-0.13145112991333008
1772555388049634300,4.28763427734375,-0.1478361040353775,0.03284642845392227,-0.1599205881357193
1772555388059566300,4.29756640625,-0.15334583818912506,-0.007011082023382187,-0.1721663773059845
1772555388069498400,4.307498291015625,-0.14774787425994873,-0.06292654573917389,-0.150083988904953
1772555388079430400,4.317430419921875,-0.13405825197696686,-0.10990010201931,-0.08811842650175095
1772555388089362200,4.327362060546875,-0.11674796789884567,-0.15403346717357635,-0.011070781387388706
1772555388099294200,4.337294189453125,-0.09780853986740112,-0.19222936034202576,0.055457703769207
1772555388109226200,4.347226318359375,-0.08765843510627747,-0.21856935322284698,0.08230236172676086
1772555388119158300,4.357158203125,-0.0799395740032196,-0.21795831620693207,0.07837632298469543
1772555388129090300,4.36709033203125,-0.07342840731143951,-0.20220784842967987,0.05470402166247368
1772555388139022000,4.37702197265625,-0.06390378624200821,-0.17702406644821167,0.013212339952588081
1772555388148954000,4.3869541015625,-0.053407467901706696,-0.15528014302253723,-0.029077593237161636
1772555388158886100,4.39688623046875,-0.03575695678591728,-0.13531526923179626,-0.07478062063455582
1772555388168818200,4.406818115234375,-0.015387235209345818,-0.12241332232952118,-0.1218583881855011
1772555388178750200,4.416750244140625,0.0013212896883487701,-0.09595151245594025,-0.1690599024295807
1772555388188682200,4.42668212890625,0.00842181034386158,-0.06400210410356522,-0.21155676245689392
1772555388198614000,4.436614013671875,0.012886502780020237,-0.023750226944684982,-0.24331940710544586
1772555388208546000,4.446546142578125,0.013602626509964466,0.01537533849477768,-0.2700357139110565
1772555388218478000,4.45647802734375,0.005181156098842621,0.042179904878139496,-0.2957182228565216
1772555388228410400,4.466410400390625,-0.008509889245033264,0.061142414808273315,-0.32512375712394714
1772555388238342400,4.47634228515625,-0.03128567710518837,0.07792339473962784,-0.35492897033691406
1772555388248274400,4.4862744140625,-0.050091322511434555,0.10560562461614609,-0.39243826270103455
1772555388258206200,4.496206298828125,-0.07117090374231339,0.15891754627227783,-0.4269797205924988
1772555388268138200,4.50613818359375,-0.09198243916034698,0.2084590047597885,-0.44000282883644104
1772555388278069200,4.5160693359375,-0.10824955999851227,0.25157901644706726,-0.4350445568561554
1772555388288001300,4.526001220703125,-0.11007542163133621,0.2739218771457672,-0.4032869040966034
1772555388297933300,4.535933349609375,-0.10099955648183823,0.277493953704834,-0.34632566571235657
1772555388307865000,4.545864990234375,-0.08266502618789673,0.26762160658836365,-0.2872953712940216
1772555388317797000,4.555797119140625,-0.05865496024489403,0.24445554614067078,-0.22429342567920685
1772555388327729200,4.565729248046875,-0.035362955182790756,0.22210921347141266,-0.1631869375705719
1772555388337661200,4.5756611328125,-0.014811364002525806,0.1862192451953888,-0.08827970176935196
1772555388347593200,4.58559326171875,0.01525519136339426,0.14706997573375702,-0.01339507382363081
1772555388357525000,4.59552490234375,0.0358273871243,0.10066542774438858,0.03872213512659073
1772555388367458000,4.6054580078125,0.053162168711423874,0.06367465108633041,0.06657692790031433
1772555388377389800,4.615389892578125,0.05745675042271614,0.04197562485933304,0.0723574087023735
1772555388387321900,4.62532177734375,0.0633213073015213,0.04047840088605881,0.06200224161148071
1772555388397254000,4.63525390625,0.07165206223726273,0.04601219296455383,0.050669293850660324
1772555388407186000,4.64518603515625,0.0760851576924324,0.05546136200428009,0.03875298053026199
1772555388417118000,4.655117919921875,0.07844280451536179,0.07175477594137192,0.023477837443351746
1772555388427050200,4.66505029296875,0.08033072203397751,0.09095989912748337,0.014860115014016628
1772555388436982000,4.67498193359375,0.08410429954528809,0.11161185801029205,-0.002956281416118145
1772555388446914000,4.6849140625,0.07640962302684784,0.125815287232399,-0.015421473421156406
1772555388456846000,4.69484619140625,0.07034791260957718,0.14038823544979095,-0.020218726247549057
1772555388466778000,4.704778076171875,0.06554169952869415,0.14805680513381958,-0.018045054748654366
1772555388476710100,4.714710205078125,0.06265614181756973,0.15578089654445648,-0.008917371742427349
1772555388486642200,4.72464208984375,0.05744806304574013,0.15663683414459229,0.013798327185213566
1772555388496574000,4.734573974609375,0.04292049631476402,0.15338997542858124,0.04454717040061951
1772555388506506000,4.744506103515625,0.02905208431184292,0.1593053936958313,0.07098810374736786
1772555388516438000,4.75443798828125,0.015222216956317425,0.17302146553993225,0.08611653745174408
1772555388526370000,4.7643701171875,-0.008381646126508713,0.1766502857208252,0.08426856994628906
1772555388536302000,4.774302001953125,-0.02809891663491726,0.1568913757801056,0.06924735754728317
1772555388546234000,4.784234130859375,-0.03783329948782921,0.12002816051244736,0.046460818499326706
1772555388556166000,4.794165771484375,-0.04616238921880722,0.084396593272686,0.03692691773176193
1772555388566098000,4.804097900390625,-0.053596869111061096,0.05470208078622818,0.03608109429478645
1772555388576030000,4.814030029296875,-0.051728323101997375,0.021700693294405937,0.04969911277294159
1772555388585962000,4.8239619140625,-0.037880152463912964,0.0006667803972959518,0.06202848255634308
1772555388595894000,4.83389404296875,-0.02333887852728367,-0.007552860304713249,0.07723155617713928
1772555388605825800,4.84382568359375,-0.004091680981218815,0.01030869409441948,0.10094567388296127
1772555388615757800,4.8537578125,0.010125773027539253,0.04618693143129349,0.12839637696743011
1772555388625689900,4.86368994140625,0.021676169708371162,0.08743104338645935,0.15202127397060394
1772555388635622100,4.8736220703125,0.03447161987423897,0.1268792599439621,0.1794811636209488
1772555388645554200,4.88355419921875,0.04565929248929024,0.16870473325252533,0.19980880618095398
1772555388655486200,4.893486328125,0.0517071858048439,0.1947563737630844,0.21324004232883453
1772555388665418000,4.90341796875,0.06422030925750732,0.19833698868751526,0.22306977212429047
1772555388675350000,4.91335009765625,0.07897298783063889,0.1878109574317932,0.22977478802204132
1772555388685281000,4.923281005859375,0.09559298306703568,0.16594187915325165,0.23345661163330078
1772555388695214000,4.933214111328125,0.11493663489818573,0.1374022215604782,0.24353110790252686
1772555388705145000,4.94314501953125,0.13652342557907104,0.09651178866624832,0.26985299587249756
1772555388715076900,4.953076904296875,0.15325488150119781,0.07460853457450867,0.29699888825416565
1772555388725009000,4.9630087890625,0.15749409794807434,0.08530379086732864,0.29385796189308167
1772555388734941000,4.97294091796875,0.15649573504924774,0.10905992239713669,0.2586822211742401
1772555388744873000,4.982873046875,0.14697201550006866,0.14112599194049835,0.19549153745174408
1772555388754805000,4.992804931640625,0.1413397639989853,0.1708812266588211,0.13325683772563934
1772555388764737000,5.002737060546875,0.14301089942455292,0.16580471396446228,0.07526277750730515
1772555388774669000,5.0126689453125,0.14836104214191437,0.12289141118526459,0.04216539114713669
1772555388784601000,5.02260107421875,0.14686833322048187,0.04412681609392166,0.06378173828125
1772555388794533000,5.032533203125,0.1523602157831192,-0.036044858396053314,0.14443813264369965
1772555388804465200,5.042465087890625,0.15594482421875,-0.10058443248271942,0.27717167139053345
1772555388814397200,5.052397216796875,0.1428023874759674,-0.14258913695812225,0.42714253067970276
1772555388824329200,5.0623291015625,0.11260135471820831,-0.17205755412578583,0.5564733743667603
1772555388834261000,5.072260986328125,0.07006660103797913,-0.1984020471572876,0.6335303783416748
1772555388844193000,5.082193115234375,0.025167573243379593,-0.23494115471839905,0.6536372303962708
1772555388854125000,5.092125,-0.012865876778960228,-0.2610466182231903,0.6395716071128845
1772555388864057000,5.10205712890625,-0.03549155965447426,-0.26805469393730164,0.5949287414550781
1772555388873989000,5.111989013671875,-0.04379766806960106,-0.2592237591743469,0.5347325801849365
1772555388883921000,5.1219208984375,-0.045345764607191086,-0.23368936777114868,0.4702709913253784
1772555388893853000,5.13185302734375,-0.04291734844446182,-0.20904937386512756,0.39596498012542725
1772555388903785000,5.141784912109375,-0.03821873292326927,-0.1695227324962616,0.31890854239463806
1772555388913717000,5.151717041015625,-0.026259057223796844,-0.1191386729478836,0.2445112019777298
1772555388923649000,5.16164892578125,-0.018442681059241295,-0.06430232524871826,0.17503571510314941
1772555388933581000,5.1715810546875,-0.02111407369375229,0.0032699592411518097,0.11458905041217804
1772555388943512800,5.181512939453125,-0.032399751245975494,0.09182485938072205,0.06634854525327682
1772555388953444900,5.19144482421875,-0.03537040948867798,0.1663663387298584,0.034651704132556915
1772555388963377000,5.201376953125,-0.030166327953338623,0.20325058698654175,0.016860458999872208
1772555388973309000,5.211308837890625,-0.016526319086551666,0.22847886383533478,0.0017741406336426735
1772555388983241000,5.221240966796875,0.0014894329942762852,0.2612150013446808,-0.007590599358081818
1772555388993173200,5.23117333984375,0.016687827184796333,0.2931491732597351,-0.007709884084761143
1772555389003105000,5.24110498046875,0.02617081254720688,0.3106538653373718,-0.014932376332581043
1772555389013037000,5.251037109375,0.026927489787340164,0.30274876952171326,-0.02279556170105934
1772555389022969000,5.260968994140625,0.020419519394636154,0.28541186451911926,-0.031125664710998535
1772555389032901000,5.270901123046875,0.008616100996732712,0.2584666609764099,-0.029100902378559113
1772555389042833200,5.280833251953125,-0.0057556480169296265,0.22780117392539978,-0.014731282368302345
1772555389052765200,5.29076513671875,-0.02732548676431179,0.1879148632287979,0.00809856504201889
1772555389062697000,5.300697021484375,-0.053279586136341095,0.1423708200454712,0.02290387637913227
1772555389072629000,5.31062890625,-0.08823638409376144,0.09676797688007355,0.0280606709420681
1772555389082560000,5.32056005859375,-0.12737740576267242,0.054793357849121094,0.013438851572573185
1772555389092492000,5.330491943359375,-0.16743876039981842,0.021527618169784546,-0.01444865670055151
1772555389102423800,5.340423828125,-0.19818495213985443,0.00040102750062942505,-0.05607599765062332
1772555389112355800,5.35035595703125,-0.22956113517284393,-0.0110725536942482,-0.102784663438797
1772555389122287900,5.360287841796875,-0.25032687187194824,-0.015169826336205006,-0.1456301361322403
1772555389132220000,5.370219970703125,-0.27065834403038025,-0.02027682028710842,-0.18771284818649292
1772555389142152200,5.380152099609375,-0.2908805012702942,-0.026330985128879547,-0.2222556471824646
1772555389152084200,5.390084228515625,-0.30403977632522583,-0.03242465481162071,-0.24488921463489532
1772555389162016000,5.40001611328125,-0.3107576072216034,-0.03222811222076416,-0.2541828751564026
1772555389171948000,5.409947998046875,-0.3105316460132599,-0.03436124324798584,-0.25355157256126404
1772555389181880000,5.419880126953125,-0.31203287839889526,-0.042041800916194916,-0.25385409593582153
1772555389191812000,5.42981201171875,-0.3118177354335785,-0.0560607984662056,-0.2575189173221588
1772555389201744100,5.439744140625,-0.3063603937625885,-0.0734453797340393,-0.2641105055809021
1772555389211676200,5.44967626953125,-0.29906076192855835,-0.08925696462392807,-0.27199089527130127
1772555389221608000,5.45960791015625,-0.2892310321331024,-0.1127641573548317,-0.2733491063117981
1772555389231540000,5.4695400390625,-0.2770485579967499,-0.1411205232143402,-0.2650192081928253
1772555389241472000,5.479471923828125,-0.266687273979187,-0.15747925639152527,-0.24880319833755493
1772555389251404000,5.489404052734375,-0.2590985894203186,-0.1655465066432953,-0.23406314849853516
1772555389261336000,5.499336181640625,-0.25941896438598633,-0.1644732505083084,-0.22888782620429993
1772555389271268000,5.50926806640625,-0.2558777332305908,-0.1565028578042984,-0.23062655329704285
1772555389281199900,5.519199951171875,-0.25576749444007874,-0.15081354975700378,-0.23812547326087952
1772555389291132000,5.5291318359375,-0.25419995188713074,-0.15157894790172577,-0.24905988574028015
1772555389301064000,5.53906396484375,-0.2485700100660324,-0.15628714859485626,-0.26155996322631836
1772555389310996000,5.548995849609375,-0.24367082118988037,-0.1550404578447342,-0.27302882075309753
1772555389320928000,5.558927978515625,-0.2349257916212082,-0.1593230813741684,-0.27084314823150635
1772555389330860000,5.568860107421875,-0.22619642317295074,-0.15410108864307404,-0.2551687955856323
1772555389340792000,5.5787919921875,-0.21725113689899445,-0.15121528506278992,-0.2290637046098709
1772555389350724000,5.58872412109375,-0.21022027730941772,-0.15122567117214203,-0.20180532336235046
1772555389360656000,5.59865576171875,-0.20306728780269623,-0.14443327486515045,-0.17564402520656586
1772555389370588000,5.608587890625,-0.19980056583881378,-0.13751022517681122,-0.15420348942279816
1772555389380520000,5.61852001953125,-0.19626468420028687,-0.1275968700647354,-0.13833370804786682
1772555389390452000,5.628451904296875,-0.19596907496452332,-0.12075254321098328,-0.12670448422431946
1772555389400384000,5.638384033203125,-0.20269861817359924,-0.1164560616016388,-0.12322826683521271
1772555389410315800,5.648315673828125,-0.20729540288448334,-0.1108664870262146,-0.12059669196605682
1772555389420247800,5.658247802734375,-0.21632272005081177,-0.11486309766769409,-0.11881983280181885
1772555389430179800,5.668179931640625,-0.2240634262561798,-0.12849539518356323,-0.11608684808015823
1772555389440111900,5.67811181640625,-0.22477635741233826,-0.14882758259773254,-0.11544955521821976
1772555389450044000,5.6880439453125,-0.23034556210041046,-0.16835545003414154,-0.1131247729063034
1772555389459976000,5.697975830078125,-0.2366063892841339,-0.18460658192634583,-0.11709367483854294
1772555389469906700,5.70790673828125,-0.23989319801330566,-0.1989741027355194,-0.11358155310153961
1772555389479839000,5.7178388671875,-0.24576281011104584,-0.2070205807685852,-0.10583388805389404
1772555389489771000,5.72777099609375,-0.2578333616256714,-0.2063779979944229,-0.08909159153699875
1772555389499703000,5.737703125,-0.27077925205230713,-0.2080022543668747,-0.0744095891714096
1772555389509635000,5.747635009765625,-0.2864863872528076,-0.21167312562465668,-0.06036096066236496
1772555389519566800,5.75756689453125,-0.29590705037117004,-0.2113466113805771,-0.04849524796009064
1772555389529499000,5.767498779296875,-0.30817508697509766,-0.19996486604213715,-0.04490667209029198
1772555389539431000,5.777430908203125,-0.31830787658691406,-0.17793840169906616,-0.035520896315574646
1772555389549363000,5.787363037109375,-0.3249880373477936,-0.14581452310085297,-0.01750461384654045
1772555389559295000,5.797294921875,-0.3338790237903595,-0.10294666886329651,0.02100495994091034
1772555389569226800,5.807226806640625,-0.33598244190216064,-0.05061257630586624,0.0609927661716938
1772555389579158800,5.81715869140625,-0.3425833582878113,0.009943181648850441,0.11922171711921692
1772555389589090800,5.8270908203125,-0.3422018587589264,0.06748931109905243,0.18398141860961914
1772555389599022800,5.83702294921875,-0.33747661113739014,0.1026182770729065,0.24663999676704407
1772555389608955000,5.846954833984375,-0.32803481817245483,0.1231740415096283,0.30570751428604126
1772555389618887000,5.856886962890625,-0.31275784969329834,0.13221865892410278,0.3497122824192047
1772555389628818700,5.866818603515625,-0.30494603514671326,0.1493019312620163,0.36553525924682617
1772555389638750700,5.876750732421875,-0.30659985542297363,0.17939697206020355,0.35080185532569885
1772555389648682800,5.886682861328125,-0.3152281641960144,0.21006348729133606,0.29913368821144104
1772555389658614800,5.89661474609375,-0.3280488848686218,0.23230300843715668,0.2212841808795929
1772555389668546800,5.906546875,-0.32157421112060547,0.2619650363922119,0.13346563279628754
1772555389678478800,5.916478759765625,-0.29551464319229126,0.2881007790565491,0.06198612600564957
1772555389688411000,5.926410888671875,-0.25012847781181335,0.3259263038635254,0.01618858240544796
1772555389698343000,5.936343017578125,-0.19657792150974274,0.37201204895973206,0.005672824569046497
1772555389708275000,5.94627490234375,-0.1255488246679306,0.4086313247680664,0.03350146487355232
1772555389718207000,5.95620703125,-0.04499805346131325,0.42863431572914124,0.09735474735498428
1772555389728139000,5.966138916015625,0.03841331601142883,0.423630952835083,0.19177468121051788
1772555389738071000,5.976071044921875,0.10066656768321991,0.39238888025283813,0.29257798194885254
1772555389748002800,5.9860029296875,0.14998440444469452,0.3476550579071045,0.39364093542099
1772555389757934800,5.995934814453125,0.17564183473587036,0.29470983147621155,0.4753435254096985
1772555389767867000,6.005866943359375,0.1800576001405716,0.2308731973171234,0.5218597054481506
1772555389777799000,6.015798828125,0.16283734142780304,0.14864623546600342,0.5400411486625671
1772555389787731000,6.02573095703125,0.1291269063949585,0.06826062500476837,0.5359424948692322
1772555389797662700,6.035662841796875,0.09698867052793503,-0.012349532917141914,0.5191054344177246
1772555389807594800,6.0455947265625,0.06288570910692215,-0.08777561783790588,0.49440890550613403
1772555389817526800,6.05552685546875,0.027636907994747162,-0.15869693458080292,0.462138831615448
1772555389827457800,6.065457763671875,-0.0008693528361618519,-0.21407929062843323,0.4151172339916229
1772555389837389800,6.075389892578125,-0.03852085769176483,-0.22756794095039368,0.3507704734802246
1772555389847321900,6.08532177734375,-0.07490354031324387,-0.2083861529827118,0.270239919424057
1772555389857254000,6.09525390625,-0.11995277553796768,-0.1690768301486969,0.16582749783992767
1772555389867186000,6.10518603515625,-0.15770329535007477,-0.12437264621257782,0.049703989177942276
1772555389877118000,6.115117919921875,-0.18900369107723236,-0.08816669881343842,-0.07710322737693787
1772555389887050000,6.125050048828125,-0.20846500992774963,-0.07296830415725708,-0.20547610521316528
1772555389896982000,6.13498193359375,-0.21564355492591858,-0.07849249988794327,-0.3203808665275574
1772555389906913800,6.144913818359375,-0.2017936259508133,-0.0973062664270401,-0.4097936749458313
1772555389916845800,6.154845703125,-0.17695538699626923,-0.11143380403518677,-0.43869030475616455
1772555389926777900,6.16477783203125,-0.15040907263755798,-0.11323148012161255,-0.41127893328666687
1772555389936710000,6.1747099609375,-0.1169445812702179,-0.09406497329473495,-0.32033172249794006
1772555389946642000,6.184641845703125,-0.08972148597240448,-0.07102248817682266,-0.20338422060012817
1772555389956574000,6.194573974609375,-0.07020983844995499,-0.037290625274181366,-0.09129416197538376
1772555389966505700,6.204505615234375,-0.0667400062084198,0.0033746063709259033,-0.020142538473010063
1772555389976437800,6.214437744140625,-0.08291205018758774,0.03876881301403046,0.005960436537861824
1772555389986369800,6.224369873046875,-0.10518467426300049,0.055107273161411285,-0.0037026191130280495
1772555389996301800,6.2343017578125,-0.13473749160766602,0.06582783162593842,-0.034745488315820694
1772555390006233900,6.24423388671875,-0.1621609330177307,0.06903257966041565,-0.08064177632331848
1772555390016166000,6.254165771484375,-0.1826089322566986,0.06091979891061783,-0.12741433084011078
1772555390026097700,6.26409765625,-0.1937379240989685,0.03801839053630829,-0.17790886759757996
1772555390036029700,6.27402978515625,-0.20901568233966827,0.012376410886645317,-0.21946164965629578
1772555390045962000,6.2839619140625,-0.21956929564476013,-0.01852354034781456,-0.2635866403579712
1772555390055894000,6.29389404296875,-0.22891007363796234,-0.04233992099761963,-0.3036206066608429
1772555390065826000,6.303825927734375,-0.23823784291744232,-0.05396974831819534,-0.34039199352264404
1772555390075757800,6.3137578125,-0.24611307680606842,-0.06708049029111862,-0.3697264492511749
1772555390085689900,6.32368994140625,-0.25327903032302856,-0.08411172032356262,-0.38308852910995483
1772555390095622000,6.333621826171875,-0.25194239616394043,-0.10525056719779968,-0.3827047646045685
1772555390105554000,6.343553955078125,-0.2500133812427521,-0.11715181171894073,-0.36824411153793335
1772555390115486000,6.35348583984375,-0.24875636398792267,-0.12571759521961212,-0.33727845549583435
1772555390125418000,6.36341796875,-0.24923835694789886,-0.12218506634235382,-0.2977949380874634
1772555390135349800,6.373349853515625,-0.24479646980762482,-0.11268157511949539,-0.25118404626846313
1772555390145280800,6.38328076171875,-0.23330214619636536,-0.08753679692745209,-0.2030552476644516
1772555390155212800,6.393212890625,-0.22105133533477783,-0.06618383526802063,-0.1687779724597931
1772555390165144800,6.403144775390625,-0.19602158665657043,-0.042091622948646545,-0.13496167957782745
1772555390175076900,6.413076904296875,-0.1634492576122284,-0.01732928678393364,-0.102020762860775
1772555390185008600,6.423008544921875,-0.127180814743042,0.007744381204247475,-0.06489396095275879
1772555390194941000,6.43294091796875,-0.09281404316425323,0.024012567475438118,-0.030415084213018417
1772555390204873000,6.442873046875,-0.05806758627295494,0.032746948301792145,0.003002732992172241
1772555390214805000,6.452804931640625,-0.03081386350095272,0.03579094260931015,0.026922447606921196
1772555390224737000,6.462737060546875,-0.007740768603980541,0.02682008035480976,0.04326626658439636
1772555390234669000,6.4726689453125,0.009495742619037628,-0.005109354853630066,0.050690360367298126
1772555390244600800,6.482600830078125,0.029696278274059296,-0.041679076850414276,0.053779564797878265
1772555390254532900,6.492532958984375,0.049016449600458145,-0.07990289479494095,0.05469249561429024
1772555390264465000,6.50246484375,0.0651802122592926,-0.11624051630496979,0.051016613841056824
1772555390274397000,6.51239697265625,0.07118137925863266,-0.1395770013332367,0.049951083958148956
1772555390284329000,6.522328857421875,0.07672467082738876,-0.15896348655223846,0.0480298176407814
1772555390294260700,6.5322607421875,0.07888529449701309,-0.16977857053279877,0.040762584656476974
1772555390304192800,6.54219287109375,0.07784703373908997,-0.16929666697978973,0.035669658333063126
1772555390314124800,6.552124755859375,0.07592609524726868,-0.15904243290424347,0.026832222938537598
1772555390324056800,6.562056884765625,0.06697022169828415,-0.15118320286273956,0.01750843971967697
1772555390333988900,6.57198876953125,0.06799740344285965,-0.13712064921855927,0.021963108330965042
1772555390343921000,6.5819208984375,0.06602097302675247,-0.10343876481056213,0.03297227621078491
1772555390353852700,6.591852783203125,0.058032289147377014,-0.06168173998594284,0.03320077806711197
1772555390363784400,6.601784423828125,0.049080196768045425,-0.030637674033641815,0.03361110761761665
1772555390373716500,6.611716552734375,0.03970879688858986,-0.009755028411746025,0.02841022238135338
1772555390383648500,6.6216484375,0.03671102225780487,0.0066321175545454025,0.01929611712694168
1772555390393580500,6.63158056640625,0.032285381108522415,0.008267031982541084,0.016263041645288467
1772555390403512600,6.6415126953125,0.03404057398438454,0.004884412512183189,0.00611097039654851
1772555390413444600,6.651444580078125,0.03863399475812912,0.0024476218968629837,-0.006872473284602165
1772555390423376600,6.661376708984375,0.044439587742090225,-0.002081463113427162,-0.01792030781507492
1772555390433308700,6.67130859375,0.04885750636458397,-0.001550428569316864,-0.037797342985868454
1772555390443240400,6.681240478515625,0.05359790846705437,0.006276387721300125,-0.05447579175233841
1772555390453172500,6.69117236328125,0.06133119761943817,0.013023773208260536,-0.0726097896695137
1772555390463104500,6.7011044921875,0.06311803311109543,0.013758821412920952,-0.07698787748813629
1772555390473035500,6.711035400390625,0.06926433742046356,0.014483733102679253,-0.07869603484869003
1772555390482967600,6.720967529296875,0.07217822223901749,0.018038317561149597,-0.07690521329641342
1772555390492899300,6.7308994140625,0.0674135610461235,0.014343712478876114,-0.07646632194519043
1772555390502831400,6.740831298828125,0.0616251565515995,0.007528247311711311,-0.07260702550411224
1772555390512763400,6.750763427734375,0.053474023938179016,0.011782648041844368,-0.06331312656402588
1772555390522695400,6.7606953125,0.04180155694484711,0.03167339414358139,-0.04385963827371597
1772555390532627500,6.77062744140625,0.030614949762821198,0.055829595774412155,-0.020174812525510788
1772555390542559700,6.780559814453125,0.02593313530087471,0.074695885181427,0.010466995649039745
1772555390552491500,6.790491455078125,0.024623127654194832,0.08294103294610977,0.045512065291404724
1772555390562423600,6.800423583984375,0.021753765642642975,0.0849437564611435,0.0890425592660904
1772555390572355600,6.81035546875,0.01601145789027214,0.07680541276931763,0.14249779284000397
1772555390582287600,6.82028759765625,0.004780760500580072,0.07362858951091766,0.20160941779613495
1772555390592219600,6.8302197265625,-0.008928393945097923,0.06705030798912048,0.26215773820877075
1772555390602151700,6.840151611328125,-0.03032384067773819,0.0523693785071373,0.3248433470726013
1772555390612083500,6.85008349609375,-0.042272381484508514,0.029900560155510902,0.3737749457359314
1772555390622015500,6.860015380859375,-0.04541365057229996,0.011010544374585152,0.3902592957019806
1772555390631947500,6.869947509765625,-0.04054326191544533,-0.0021928753703832626,0.37397781014442444
1772555390641879600,6.879879638671875,-0.035711850970983505,-0.01181661058217287,0.3292618691921234
1772555390651811600,6.8898115234375,-0.022369682788848877,-0.012774283066391945,0.2795875370502472
1772555390661743400,6.899743408203125,0.0008542928844690323,-0.007965764962136745,0.2321220487356186
1772555390671675400,6.90967529296875,0.022821377962827682,-0.0066179390996694565,0.19552089273929596
1772555390681607400,6.919607421875,0.03810690715909004,-0.004868439398705959,0.16459791362285614
1772555390691539500,6.92953955078125,0.04169125482439995,0.0029785651713609695,0.15364673733711243
1772555390701471500,6.939471435546875,0.030488424003124237,0.019189417362213135,0.15537141263484955
1772555390711403500,6.949403564453125,0.018863460049033165,0.04209313541650772,0.17819762229919434
1772555390721335300,6.959335205078125,0.005831789691001177,0.06618041545152664,0.21541251242160797
1772555390731267300,6.969267333984375,-0.018934810534119606,0.10781414806842804,0.2677372097969055
1772555390741199600,6.97919970703125,-0.049184951931238174,0.14625702798366547,0.3310200870037079
1772555390751131600,6.989131591796875,-0.08436104655265808,0.168039008975029,0.4017142355442047
1772555390761063700,6.999063720703125,-0.12067552655935287,0.16279396414756775,0.4630492329597473
1772555390770994400,7.008994384765625,-0.15926820039749146,0.125002920627594,0.49802184104919434
1772555390780926500,7.018926513671875,-0.19498884677886963,0.07796172052621841,0.49311888217926025
1772555390790858500,7.0288583984375,-0.22701069712638855,0.04669035226106644,0.4576362371444702
1772555390800790500,7.03879052734375,-0.2556067109107971,0.029748274013400078,0.38010281324386597
1772555390810722600,7.04872265625,-0.26643407344818115,0.02920818142592907,0.2848266363143921
1772555390820654600,7.058654541015625,-0.26341256499290466,0.04342867061495781,0.1848669797182083
1772555390830586400,7.06858642578125,-0.23992188274860382,0.04705723002552986,0.10025675594806671
1772555390840518400,7.078518310546875,-0.20149077475070953,0.041879624128341675,0.04267280921339989
1772555390850450400,7.088450439453125,-0.15879976749420166,0.00995578058063984,0.016827894374728203
1772555390860382500,7.098382568359375,-0.1155802458524704,-0.021929461508989334,0.03151242434978485
1772555390870314500,7.108314453125,-0.07883980870246887,-0.038962241262197495,0.0762450098991394
1772555390880246500,7.11824658203125,-0.048594966530799866,-0.04304724931716919,0.1409546434879303
1772555390890178600,7.128178466796875,-0.022778015583753586,-0.02860759198665619,0.18471810221672058
1772555390900110600,7.138110595703125,-0.005045456811785698,-0.002636868506669998,0.19130413234233856
1772555390910042600,7.148042724609375,0.006636233069002628,0.031796738505363464,0.14429162442684174
1772555390919974700,7.157974609375,0.006641851272433996,0.08145742118358612,0.05774315819144249
1772555390929906700,7.16790673828125,0.007210169453173876,0.14722205698490143,-0.03930642455816269
1772555390939838500,7.17783837890625,0.013509416952729225,0.20752876996994019,-0.11406593769788742
1772555390949770500,7.1877705078125,0.02756158635020256,0.22992248833179474,-0.16520315408706665
1772555390959702500,7.19770263671875,0.036364857107400894,0.23769810795783997,-0.19418492913246155
1772555390969634600,7.207634521484375,0.05031955614686012,0.21349237859249115,-0.20258879661560059
1772555390979566600,7.217566650390625,0.06697256863117218,0.16788870096206665,-0.20064190030097961
1772555390989498600,7.22749853515625,0.07711654901504517,0.11469204723834991,-0.19626766443252563
1772555390999430400,7.237430419921875,0.07814189046621323,0.06263810396194458,-0.19031202793121338
1772555391009362400,7.247362548828125,0.06601464748382568,0.01098928414285183,-0.18452444672584534
1772555391019294500,7.25729443359375,0.04320797324180603,-0.044584356248378754,-0.17822623252868652
1772555391029226500,7.2672265625,0.01962088793516159,-0.09747393429279327,-0.16917681694030762
1772555391039158500,7.277158447265625,-0.003169524483382702,-0.14755941927433014,-0.15622495114803314
1772555391049090600,7.287090576171875,-0.03651949018239975,-0.17824755609035492,-0.13459715247154236
1772555391059022300,7.297022216796875,-0.0686238706111908,-0.20107918977737427,-0.10754512995481491
1772555391068953600,7.30695361328125,-0.09758388996124268,-0.20236709713935852,-0.08356336504220963
1772555391078885600,7.3168857421875,-0.12442615628242493,-0.18666936457157135,-0.0692795068025589
1772555391088817700,7.326817626953125,-0.1462390422821045,-0.15562328696250916,-0.06780730932950974
1772555391098749700,7.336749755859375,-0.17131569981575012,-0.12251700460910797,-0.07684320211410522
1772555391108681500,7.346681396484375,-0.19575658440589905,-0.08646818995475769,-0.10931779444217682
1772555391118613500,7.356613525390625,-0.20765136182308197,-0.05895286053419113,-0.14287416636943817
1772555391128545500,7.366545654296875,-0.2151140719652176,-0.045741189271211624,-0.18427275121212006
1772555391138477600,7.3764775390625,-0.21474125981330872,-0.060816891491413116,-0.22224563360214233
1772555391148409600,7.38640966796875,-0.2113254964351654,-0.06851928681135178,-0.2560698986053467
1772555391158341400,7.39634130859375,-0.20219206809997559,-0.05596771463751793,-0.28033703565597534
1772555391168273400,7.4062734375,-0.19550859928131104,-0.03652237728238106,-0.2823985815048218
1772555391178205400,7.416205322265625,-0.1861778348684311,-0.029366135597229004,-0.26682963967323303
1772555391188137500,7.426137451171875,-0.177385151386261,-0.024474972859025,-0.25415486097335815
1772555391198069500,7.436069580078125,-0.16722603142261505,-0.01980734057724476,-0.23909512162208557
1772555391208001500,7.44600146484375,-0.16549071669578552,-0.017007026821374893,-0.23521621525287628
1772555391217933300,7.455933349609375,-0.16469383239746094,-0.013890361413359642,-0.22392526268959045
1772555391227865300,7.465865234375,-0.15678609907627106,0.001611366868019104,-0.21434667706489563
1772555391237797400,7.47579736328125,-0.16179798543453217,0.02054966799914837,-0.20046569406986237
1772555391247729700,7.485729736328125,-0.16490136086940765,0.01952994428575039,-0.1853615790605545
1772555391257661700,7.49566162109375,-0.17070245742797852,0.014361249282956123,-0.15894228219985962
1772555391267593700,7.50559375,-0.17316028475761414,0.00958353839814663,-0.12230250984430313
1772555391277525500,7.515525390625,-0.18286417424678802,0.00456663966178894,-0.08229143917560577
1772555391287457500,7.52545751953125,-0.1890573501586914,-0.004448694176971912,-0.0475451797246933
1772555391297389600,7.5353896484375,-0.19569478929042816,-0.01721196249127388,-0.024495040997862816
1772555391307321600,7.545321533203125,-0.19716805219650269,-0.03689112514257431,-0.00507793202996254
1772555391317253600,7.555253662109375,-0.1954043060541153,-0.06324653327465057,0.0030546197667717934
1772555391327185700,7.565185546875,-0.19740194082260132,-0.08224925398826599,0.0036045624874532223
1772555391337117400,7.575117431640625,-0.2065427452325821,-0.10464610159397125,-0.006688034161925316
1772555391347049500,7.585049560546875,-0.21703000366687775,-0.10388390719890594,-0.016410434618592262
1772555391356981500,7.5949814453125,-0.22314928472042084,-0.10451847314834595,-0.020667385309934616
1772555391366912300,7.604912353515625,-0.21835453808307648,-0.11402009427547455,-0.03946451097726822
1772555391376844300,7.61484423828125,-0.20460224151611328,-0.133387953042984,-0.07166624069213867
1772555391386776300,7.6247763671875,-0.2039995640516281,-0.14956718683242798,-0.10568039864301682
1772555391396708400,7.634708251953125,-0.19957415759563446,-0.150862917304039,-0.12730243802070618
1772555391406640400,7.644640380859375,-0.1968739777803421,-0.14747671782970428,-0.13139306008815765
1772555391416572400,7.654572509765625,-0.18263742327690125,-0.15632197260856628,-0.12561936676502228
1772555391426504400,7.66450439453125,-0.1719413697719574,-0.16393062472343445,-0.10785476118326187
1772555391436436200,7.674436279296875,-0.15963101387023926,-0.1783938854932785,-0.07615616917610168
1772555391446368300,7.6843681640625,-0.14663957059383392,-0.19308441877365112,-0.025775020942091942
1772555391456300300,7.69430029296875,-0.1370781809091568,-0.20506934821605682,0.04292890429496765
1772555391466232300,7.704232421875,-0.1347164809703827,-0.21072937548160553,0.1264784038066864
1772555391476164400,7.714164306640625,-0.12399470061063766,-0.2046481966972351,0.20061498880386353
1772555391486096400,7.724096435546875,-0.12095469981431961,-0.18964767456054688,0.2612234652042389
1772555391496028200,7.734028076171875,-0.12334895879030228,-0.18551790714263916,0.29696303606033325
1772555391505960200,7.743960205078125,-0.1262829601764679,-0.18990546464920044,0.30517807602882385
1772555391515892200,7.753892333984375,-0.1253364533185959,-0.200391486287117,0.277437686920166
1772555391525824300,7.76382421875,-0.13210433721542358,-0.19683191180229187,0.22454304993152618
1772555391535756300,7.77375634765625,-0.13494162261486053,-0.18162010610103607,0.15677402913570404
1772555391545688000,7.78368798828125,-0.1408546417951584,-0.15389713644981384,0.1056077778339386
1772555391555620000,7.7936201171875,-0.1380903571844101,-0.11887019127607346,0.07229997962713242
1772555391565552000,7.80355224609375,-0.12078672647476196,-0.08892054855823517,0.05420832335948944
1772555391575484200,7.813484130859375,-0.10279729217290878,-0.06192823499441147,0.04740769788622856
1772555391585416200,7.823416259765625,-0.09445307403802872,-0.036503832787275314,0.04889613762497902
1772555391595348500,7.833348388671875,-0.080717533826828,-0.006981412880122662,0.04782887548208237
1772555391605280300,7.8432802734375,-0.07235600799322128,0.005902960896492004,0.0327410027384758
1772555391615212300,7.85321240234375,-0.06635750085115433,0.0026432033628225327,0.0020318524911999702
1772555391625144300,7.863144287109375,-0.06221522018313408,-0.020696474239230156,-0.04312923550605774
1772555391635076400,7.873076416015625,-0.05265563353896141,-0.044064249843358994,-0.09077408909797668
1772555391645007400,7.88300732421875,-0.05317574739456177,-0.04793541878461838,-0.12309475243091583
1772555391654939100,7.892939208984375,-0.05031415820121765,-0.05240406095981598,-0.1261051446199417
1772555391664871200,7.90287109375,-0.04598785191774368,-0.06214723736047745,-0.1114036962389946
1772555391674803200,7.91280322265625,-0.04036296531558037,-0.058647140860557556,-0.0951308161020279
1772555391684735200,7.9227353515625,-0.04002341255545616,-0.06598840653896332,-0.06908377259969711
1772555391694667300,7.932667236328125,-0.048957400023937225,-0.06916444003582001,-0.036014389246702194
1772555391704599300,7.942599365234375,-0.054488252848386765,-0.07490141689777374,-0.00021697767078876495
1772555391714531000,7.952531005859375,-0.057126790285110474,-0.0691915825009346,0.03590920940041542
1772555391724463000,7.962463134765625,-0.062362831085920334,-0.05410531163215637,0.054098065942525864
1772555391734395400,7.9723955078125,-0.06740950047969818,-0.03823849558830261,0.0470031201839447
1772555391744327400,7.982327392578125,-0.07584532350301743,-0.02385076694190502,0.019650328904390335
1772555391754259500,7.992259521484375,-0.081833615899086,-0.021352363750338554,-0.009193438105285168
1772555391764191200,8.002191162109375,-0.08113612979650497,-0.028437703847885132,-0.036885254085063934
1772555391774123300,8.012123291015625,-0.08021165430545807,-0.04234377294778824,-0.05326667055487633
1772555391784055300,8.02205517578125,-0.07654448598623276,-0.05689847841858864,-0.05726007744669914
1772555391793987300,8.0319873046875,-0.06642468273639679,-0.0825377106666565,-0.050663262605667114
1772555391803919400,8.04191943359375,-0.05588469281792641,-0.10675622522830963,-0.04215312749147415
1772555391813851400,8.051851318359375,-0.04958227276802063,-0.11470411717891693,-0.0307623241096735
1772555391823783200,8.061783203125,-0.04195977374911308,-0.12462146580219269,-0.009811768308281898
1772555391833715200,8.071715087890626,-0.026816651225090027,-0.14072073996067047,-0.000916697084903717
1772555391843647200,8.081647216796876,-0.01299750991165638,-0.15714392066001892,0.002545412629842758
1772555391853579300,8.091579345703124,-0.008257253095507622,-0.16730724275112152,0.004625856876373291
1772555391863511300,8.10151123046875,-0.005459336098283529,-0.15850922465324402,0.0021198224276304245
1772555391873443300,8.111443359375,-0.010046630166471004,-0.15121370553970337,0.011057361960411072
1772555391883375000,8.121375,-0.019480612128973007,-0.17573343217372894,0.026978271082043648
1772555391893307100,8.13130712890625,-0.035906676203012466,-0.2042185217142105,0.07039876282215118
1772555391903239200,8.1412392578125,-0.012472987174987793,-0.1830458641052246,0.11434917896986008
1772555391913171200,8.151171142578125,-0.02275170013308525,-0.13063651323318481,0.09146130830049515
1772555391923102500,8.1611025390625,-0.041011661291122437,-0.12339989840984344,0.043904975056648254
1772555391933034200,8.1710341796875,-0.046479713171720505,-0.11208320409059525,0.004476463887840509
1772555391942966300,8.18096630859375,-0.0520358681678772,-0.1227097436785698,-0.020915444940328598
1772555391952898300,8.190898193359375,-0.041119035333395004,-0.12585331499576569,-0.0338127501308918
1772555391962830300,8.200830322265626,-0.0280330628156662,-0.10233467817306519,-0.013208669610321522
1772555391972762400,8.210762451171876,-0.03453783318400383,-0.12724748253822327,0.019041145220398903
1772555391982694400,8.2206943359375,-0.022586898878216743,-0.13102491199970245,0.0271451435983181
