time,seconds_elapsed,z,y,x
1772555350313027800,0.06502783203125,0.20417875676453112,-0.5453223904594778,0.3610808351019397
1772555350322961000,0.0749609375,0.36206513343155383,-0.5229147438183427,0.3141756934009492
1772555350332893000,0.084892822265625,0.5411357524245977,-0.4806207857072353,0.3415104942459613
1772555350342826000,0.094825927734375,0.6262047301620245,-0.5045692320495844,0.4040165251826867
1772555350352758000,0.104758056640625,0.5986614741981029,-0.553598197504133,0.4294107498865574
1772555350362690000,0.11468994140625,0.5155956529766321,-0.5732790495298803,0.5271739356327801
1772555350372622000,0.1246220703125,0.4736410098224878,-0.5425755759693682,0.6352789210427552
1772555350382553900,0.134553955078125,0.48481765287518497,-0.4619894427344203,0.6379151147652417
1772555350392486000,0.14448583984375,0.5457184040397405,-0.36113179810419677,0.6316432679541408
1772555350402418000,0.15441796875,0.622207184958458,-0.23859540562927722,0.5494338808989152
1772555350412351000,0.16435107421875,0.7600877154290676,-0.09600786651149391,0.4710224978871643
1772555350422283000,0.174282958984375,1.0469833338469265,-0.01498670286014676,0.3655933440903201
1772555350432215000,0.184215087890625,1.3331021226733921,-0.03267594267725944,0.29293382086986675
1772555350442147000,0.19414697265625,1.696556664636731,-0.03909048589468002,0.2633556432785466
1772555350452078800,0.204078857421875,2.187823347520828,-0.02109597952067852,0.25058877189233897
1772555350462011000,0.214010986328125,2.7121803991019724,0.019371639946103095,0.2905843899331987
1772555350471943000,0.22394287109375,3.125636697074771,0.12898410730957985,0.2763613283893093
1772555350481875000,0.233875,3.5413059949219226,0.4487295636668801,0.202749454613775
1772555350491807000,0.243806884765625,3.99834892116487,0.7141109771519899,0.17438063454590738
1772555350501740000,0.253739990234375,4.432648685202002,0.8943538547948002,0.26509682439006865
1772555350511672000,0.263672119140625,4.602266416195035,0.9407797981441021,0.32313283377327023
1772555350521603800,0.273603759765625,4.577050141873955,1.0591919502958655,0.3236840379152447
1772555350531536000,0.283535888671875,4.4674026031970975,1.1932111291632055,0.11083156082965433
1772555350541468000,0.293468017578125,4.1718648286402225,1.2200418529435992,-0.23671163770928977
1772555350551400000,0.30339990234375,3.6176334477990864,1.267944883108139,-0.5784690193884074
1772555350561332000,0.31333203125,3.136882313710451,1.6035194844990968,-0.7653516273066401
1772555350571265000,0.32326513671875,2.721185543334484,1.9821210344508289,-0.5403162527352571
1772555350581197000,0.333197021484375,2.38002758885324,2.0644509426131843,0.036653614136576654
1772555350591128800,0.34312890625,2.0651181743502613,1.7938363046497106,0.45531186466664075
1772555350601060900,0.353060791015625,1.564081792601943,0.9353960592791437,0.19505597750172018
1772555350610993000,0.362992919921875,0.951186625868082,0.5097735226944089,0.1597287896633148
1772555350620925000,0.372925048828125,-0.11081541341245174,1.10940822583884,-0.0218681329369545
1772555350630857000,0.38285693359375,-0.9506260693758726,1.3289564011707902,-0.49804509097784755
1772555350640788700,0.392788818359375,-1.4078046046972275,1.1030568109855055,-0.7783769669659435
1772555350650720800,0.402720703125,-1.7445277916014192,0.8238751279458403,-0.8410572950236499
1772555350660653800,0.41265380859375,-2.152528162255883,0.5231317475698888,-0.6559637624792755
1772555350670585900,0.4225859375,-2.777023750412464,0.2311775305882096,-0.46914399066418405
1772555350680518000,0.432517822265625,-3.4479268694788217,-0.07293035778477787,-0.41968160222843287
1772555350690450000,0.442449951171875,-4.089205834653973,-0.21113705146983264,-0.49630964548736806
1772555350700382000,0.4523818359375,-4.253671005189418,-0.40787820557951926,-0.49425388200134035
1772555350710313700,0.462313720703125,-4.055798655092716,-0.7125717848859727,-0.39089170720428223
1772555350720245800,0.472245849609375,-3.652106795287132,-0.9872994111262261,-0.3923671865843236
1772555350730177800,0.482177734375,-3.0992782669812438,-1.192341360591352,-0.3464638058044016
1772555350740110800,0.49211083984375,-2.537443425399065,-1.3252746439181267,-0.2654026024036109
1772555350750043000,0.50204296875,-2.0898487109810113,-1.4151125896230339,-0.25441768253073094
1772555350759975000,0.511974853515625,-1.7580360924720764,-1.4587950794830917,-0.29039938875511284
1772555350769907000,0.521906982421875,-1.426496445685625,-1.5201783534675837,-0.2732956937409937
1772555350779838700,0.531838623046875,-1.2120143215715884,-1.5643626553699372,-0.232501911059767
1772555350789770800,0.541770751953125,-1.1022346809476613,-1.553976870433986,-0.15415814992412924
1772555350799702800,0.551702880859375,-0.8941793750107287,-1.4940791588321327,0.014633797769248485
1772555350809634800,0.561634765625,-0.7319780577540397,-1.397257199458778,0.03131641782708466
1772555350819567900,0.57156787109375,-0.6105272685587406,-1.3560508904539048,0.08067483443170785
1772555350829500000,0.5815,-0.5991635785013437,-1.3251114161804318,0.12142813897207379
1772555350839432000,0.591431884765625,-0.6550976471692324,-1.2905490752346813,0.07176306757107377
1772555350849363700,0.60136376953125,-0.6825795283347368,-1.252000879523158,0.0479981611020863
1772555350859295700,0.611295654296875,-0.7837339639544486,-1.1776106783188878,0.031925124309957024
1772555350869227800,0.621227783203125,-0.853324217531085,-1.1232163864389062,0.08526698452755808
1772555350879159800,0.631159912109375,-0.8487532563537359,-1.073490597826615,0.15975421636551618
1772555350889092000,0.641092041015625,-0.7810562691777944,-1.0501876097809524,0.24324074721708894
1772555350899025000,0.65102490234375,-0.7387596807181834,-0.9914142990991472,0.28244981799013913
1772555350908957000,0.66095703125,-0.6943985609441995,-0.8902038955084979,0.25783026745319365
1772555350918888700,0.670888671875,-0.678202043902874,-0.7808639614760875,0.15123071817010642
1772555350928820700,0.68082080078125,-0.7242267129749059,-0.7224757776543498,-0.02726575419679284
1772555350938752800,0.690752685546875,-0.7832143239945173,-0.7398781633540987,-0.12153265879247337
1772555350948685000,0.70068505859375,-0.7966641726762056,-0.780993725335598,-0.1231139001019299
1772555350958617000,0.7106171875,-0.7839180883496999,-0.802645439042896,-0.06560264524519444
1772555350968549000,0.720549072265625,-0.7901578595221043,-0.7829381374016404,-0.0018592180006206036
1772555350978482000,0.73048193359375,-0.8203969304412603,-0.7807774522364139,0.04813219927791506
1772555350988413700,0.74041357421875,-0.8610685480475425,-0.704854780767858,0.0679966825085692
1772555350998345700,0.750345703125,-0.8743786959975958,-0.6193047415152192,0.12379403698635287
1772555351008278000,0.760278076171875,-0.8274556167811155,-0.5545972915440798,0.14774450175585224
1772555351018210000,0.7702099609375,-0.6927361806899309,-0.5049240368366241,0.0669610923831351
1772555351028142000,0.78014208984375,-0.5416226591587067,-0.4300356768518686,-0.07795375717105343
1772555351038074000,0.79007421875,-0.4384884478986263,-0.3431071888528764,-0.2398947977900505
1772555351048006000,0.800005859375,-0.3577227203130722,-0.23470906571522354,-0.351577605154179
1772555351057938700,0.809938720703125,-0.248146493306756,-0.16099267211928964,-0.2771306322613731
1772555351067871000,0.81987109375,-0.06246960791647434,-0.13927812230885028,-0.1760486225570552
1772555351077803000,0.829802978515625,0.08593699274361133,-0.10549436452016234,-0.1675364494732581
1772555351087735000,0.839735107421875,0.21255553996562956,-0.060375996638089416,-0.18842565437546
1772555351097667000,0.8496669921875,0.3321282603293657,-0.0059514557503163815,-0.24253738472070543
1772555351107599000,0.85959912109375,0.3998211558520794,0.031186727032810446,-0.25050102054364976
1772555351117531000,0.86953076171875,0.38691783513724803,0.05076543385833501,-0.23363033056780694
1772555351127463000,0.879462890625,0.3399281204253435,0.09378215328603982,-0.27498419481720776
1772555351137396000,0.88939599609375,0.26541911514699457,0.12205781517773866,-0.29636158509515226
1772555351147328000,0.899327880859375,0.2211591176599264,0.11666589300632477,-0.24238617621436714
1772555351157260000,0.909260009765625,0.24042262105643747,0.10818316521272063,-0.1729854538604617
1772555351167192000,0.919192138671875,0.26812019079923627,0.09286284648403524,-0.1386308373812586
1772555351177124000,0.9291240234375,0.281091900575161,0.09956263638362288,-0.07666903285644948
1772555351187055900,0.939055908203125,0.30164369021654125,0.0922232334062457,0.006381262002326547
1772555351196988000,0.94898779296875,0.28879999073445795,0.11870981992408633,0.0714764326494187
1772555351206920000,0.958919921875,0.2228150681734085,0.1565611194126308,0.13249094638675452
1772555351216853000,0.96885302734375,0.11370762772262095,0.19178031683191657,0.15337492712456732
1772555351226785000,0.978784912109375,-0.05008534263968467,0.2124943112976849,0.15798446674663572
1772555351236717000,0.988717041015625,-0.2633101601690054,0.19300825119167564,0.14974121026471257
1772555351246648800,0.99864892578125,-0.4819634324878454,0.15912227513752877,0.1722739445902407
1772555351256580900,1.008580810546875,-0.6486380957663059,0.13510134808085858,0.2886516317723319
1772555351266513000,1.018512939453125,-0.7878408147513866,0.10393909790217876,0.46418077876623715
1772555351276445000,1.02844482421875,-0.8930342966288327,0.03898943667300045,0.6055545216474681
1772555351286377000,1.038376953125,-0.9568377834975719,0.04109773406386375,0.6632876025613397
1772555351296310000,1.04831005859375,-0.8502233289062976,0.048968613569438456,0.6806175075467675
1772555351306242000,1.058241943359375,-0.6384697529733181,0.0049365796193480485,0.7011867597796022
1772555351316173800,1.068173828125,-0.3874602714508772,-0.043999300724267956,0.7072624994967133
1772555351326105900,1.07810595703125,-0.08955869037210941,-0.07440949042662978,0.6528250260621309
1772555351336038000,1.088037841796875,0.19473054493963718,-0.12181348502784967,0.5737282180694863
1772555351345969700,1.0979697265625,0.4678974977344274,-0.2035195622034371,0.5118042613370344
1772555351355901700,1.107901611328125,0.6357733534961938,-0.29649390623793004,0.49414855846334244
1772555351365833700,1.117833740234375,0.6684007808566093,-0.3792144211530685,0.4488239274194464
1772555351375765800,1.127765869140625,0.6524690522313118,-0.4752740178517997,0.3911807898113504
1772555351385698800,1.13769873046875,0.5779775826096535,-0.5538102328196167,0.36239820131082084
1772555351395630800,1.147630859375,0.4894564185917377,-0.6183914260625839,0.3683694942727685
1772555351405563000,1.15756298828125,0.39096389565765854,-0.6677955084398388,0.3622936814904213
1772555351415494700,1.16749462890625,0.2741507031351328,-0.7403606131087989,0.3687276235280558
1772555351425426700,1.1774267578125,0.13445698576271534,-0.8276605647686869,0.41344855305775996
1772555351435358700,1.187358642578125,0.042130584242939945,-0.8298018876463175,0.42820305459722874
1772555351445290800,1.197290771484375,0.006489362019300461,-0.8514637574214488,0.43665849252510813
1772555351455222800,1.207222900390625,-0.06809913823604584,-0.9315976168442517,0.41876686200369145
1772555351465155800,1.21715576171875,-0.15139175395071505,-1.0333698921013623,0.38258546848874536
1772555351475088000,1.227087890625,-0.2513940969258547,-1.1036498815078288,0.402856651090458
1772555351485019600,1.23701953125,-0.32802725475132466,-1.1132006769243628,0.430545964461565
1772555351494951700,1.24695166015625,-0.3509644782245159,-1.1255344541229306,0.4247105728389695
1772555351504883700,1.2568837890625,-0.379679700577259,-1.1400376843150704,0.42524968468435104
1772555351514815700,1.266815673828125,-0.3811410053014755,-1.1370582301128656,0.4659484460258856
1772555351524747800,1.276747802734375,-0.32100480876863,-1.0934073044348507,0.4480814019564539
1772555351534679800,1.2866796875,-0.32413550800979135,-1.0697615673661232,0.41023897989410907
1772555351544612900,1.29661279296875,-0.4039765219658613,-1.1024270617146044,0.3819255798079073
1772555351554544600,1.306544677734375,-0.5289794506847858,-1.1080710589509457,0.4184722629712894
1772555351564476700,1.3164765625,-0.6018693303287029,-1.068653825319931,0.4907699123430997
1772555351574408700,1.32640869140625,-0.6055138243108987,-1.0466058788366615,0.580946515417844
1772555351584340700,1.3363408203125,-0.5077566299140454,-1.0183115853097289,0.6253283857189118
1772555351594272800,1.346272705078125,-0.3122907564371824,-0.9732276311539113,0.6096913291912526
1772555351604204800,1.356204833984375,-0.08777706765234469,-0.9068963793732225,0.5475480306196957
1772555351614136600,1.366136474609375,0.10980009889006614,-0.8849985819503664,0.5037027879459783
1772555351624068900,1.37606884765625,0.21512626723647116,-0.9059046649221331,0.516437802889198
1772555351634001700,1.386001708984375,0.2270370697826147,-0.8982374912951141,0.5459808909008279
1772555351643933700,1.39593359375,0.14697101489901543,-0.8693106720183044,0.5463366090033203
1772555351653865700,1.40586572265625,0.03768529527187347,-0.8418574324253946,0.556122674480453
1772555351663797800,1.4157978515625,0.027706337571144102,-0.813686180756241,0.5813098688375204
1772555351673729800,1.425729736328125,0.1368295601129532,-0.7719993216928094,0.6110261579915881
1772555351683661800,1.435661865234375,0.3191851921260357,-0.7435202461834997,0.65773150280416
1772555351693593900,1.44559375,0.5748480524122714,-0.7054301695030182,0.6600257512211799
1772555351703526000,1.45552587890625,0.8186725908666849,-0.687133538377285,0.6352044675670564
1772555351713458000,1.4654580078125,1.0202467180907726,-0.6889381035812199,0.5945950284767896
1772555351723390700,1.475390625,1.1355489215284584,-0.6688077542223035,0.5129718438116834
1772555351733322800,1.48532275390625,1.091384785631299,-0.6389876393675804,0.43814646606054153
1772555351743254800,1.4952548828125,1.016713867789507,-0.6475678361862898,0.41242542055509984
1772555351753186800,1.505186767578125,0.8872849393218755,-0.6356036960177123,0.40008901300802824
1772555351763118800,1.515118896484375,0.6713578770965337,-0.6288688348047435,0.42281478568762537
1772555351773051000,1.52505078125,0.48014673845469946,-0.6558680470198393,0.46894788357019423
1772555351782983000,1.53498291015625,0.3025917847216129,-0.6757357268545776,0.547095464546606
1772555351792915000,1.5449150390625,0.14242635720670221,-0.7163782644968479,0.6033030163936317
1772555351802847700,1.55484765625,0.004945055186748504,-0.7504879663042724,0.6358588398225605
1772555351812779800,1.56477978515625,-0.14967150602936743,-0.7578624405950307,0.6357237422008067
1772555351822711800,1.5747119140625,-0.24518530541360375,-0.7394475899171083,0.6378104122817516
1772555351832643800,1.584643798828125,-0.3296978183120489,-0.7039988215256482,0.6324740927550941
1772555351842576000,1.594575927734375,-0.4261754942923784,-0.6550414600025862,0.6022877384038642
1772555351852508000,1.6045078125,-0.5181120197117328,-0.58796180100739,0.5388690496016293
1772555351862440000,1.61443994140625,-0.6740875943213701,-0.5245877915970981,0.4669170353297144
1772555351872371700,1.624371826171875,-0.8771469916671514,-0.4917966981075704,0.39673539173118766
1772555351882303700,1.6343037109375,-1.0696130988061427,-0.5070373757287859,0.3708334732335061
1772555351892236800,1.64423681640625,-1.266305299207568,-0.48745969181656834,0.38906072891745713
1772555351902168800,1.6541689453125,-1.4579530757009982,-0.4324460989944637,0.44246622895579785
1772555351912100900,1.664100830078125,-1.64795659211874,-0.3691562607362866,0.4984119880614802
1772555351922033000,1.674032958984375,-1.783385637784004,-0.27772841549143196,0.5472639895139262
1772555351931965000,1.68396484375,-1.7472522481292485,-0.23695041490122676,0.5806388742407783
1772555351941896700,1.693896728515625,-1.661153342822194,-0.2509583358570933,0.5578428128039464
1772555351951828700,1.703828857421875,-1.5076865361630916,-0.19870923931226134,0.5011296129897237
1772555351961760800,1.7137607421875,-1.2428987046569584,-0.15648513156697152,0.4364322825537994
1772555351971693800,1.72369384765625,-0.938243557664752,-0.12746917270198463,0.3623533027231693
1772555351981625900,1.7336259765625,-0.6614040538370609,-0.09009791181534528,0.2973897408328019
1772555351991558000,1.743557861328125,-0.4041600618392229,-0.023993308397382496,0.2028904339870438
1772555352001490000,1.753489990234375,-0.1979711342960596,0.012873510098457336,0.04552738707438111
1772555352011421700,1.763421630859375,-0.0408037195533514,-0.021333441538363695,-0.07428294143751263
1772555352021353700,1.773353759765625,0.1441530348688364,-0.04265577716082334,-0.17913637770563362
1772555352031285800,1.78328564453125,0.30162323195040225,-0.021120383309572933,-0.2819481886109337
1772555352041217800,1.7932177734375,0.4766548046857118,0.010634645130485296,-0.35326669075228273
1772555352051149800,1.80314990234375,0.6574106002867222,0.07510112595260143,-0.39881585126705466
1772555352061083000,1.813082763671875,0.813539904153347,0.15816402456462383,-0.460703567642346
1772555352071015000,1.823014892578125,0.8411305063903332,0.22518296634852886,-0.5155240490451455
1772555352080946700,1.83294677734375,0.8427858723819255,0.33413667754232884,-0.569787627217546
1772555352090878700,1.842878662109375,0.8502706751793623,0.44892026393339035,-0.5755402724601328
1772555352100810800,1.852810791015625,0.8577811969399451,0.5552515176691114,-0.5628840949067846
1772555352110742800,1.86274267578125,0.8290145366609096,0.6118300217203796,-0.49944242708776143
1772555352120674800,1.8726748046875,0.7974281427860259,0.653467269488424,-0.4312622595047578
1772555352130606800,1.88260693359375,0.7271241879820823,0.7583585535489022,-0.3846011191600933
1772555352140540000,1.892539794921875,0.6055284373581409,0.9094925333462655,-0.32312826719600707
1772555352150471700,1.9024716796875,0.4249655339807272,1.0413928203634917,-0.2545273169176653
1772555352160403700,1.91240380859375,0.12856091346144674,1.107222113971412,-0.19961203337088226
1772555352170335700,1.922335693359375,-0.19287410341799258,1.1234995872944593,-0.13227310238499193
1772555352180267800,1.932267822265625,-0.45244566158056254,1.116329987926036,-0.04141933070104569
1772555352190199800,1.94219970703125,-0.6551555148363113,1.0553193466462194,0.08252864560484886
1772555352200131800,1.9521318359375,-0.7388894445776939,0.973044529671967,0.17553245319584385
1772555352210063600,1.962063720703125,-0.7580594244718551,0.8744780647188425,0.27717138439686967
1772555352219995600,1.97199560546875,-0.7015776587933301,0.8644982302352786,0.362088075915724
1772555352229928700,1.9819287109375,-0.4438134423136711,0.8935667960703373,0.36463556844145056
1772555352239860700,1.99186083984375,-0.12906944750547408,0.8135394657619297,0.31884828832186757
1772555352249792800,2.001792724609375,0.1707832676410675,0.7525951677165925,0.2297253590185195
1772555352259724800,2.011724853515625,0.4372299722701311,0.6990140919156372,0.12773315740041433
1772555352269656800,2.02165673828125,0.6052537120699882,0.617923224028945,0.03173855222929269
1772555352279588600,2.031588623046875,0.72502107822299,0.5423372371688485,-0.04919484180705622
1772555352289520600,2.041520751953125,0.8230833930462599,0.4936126614883542,-0.07312376146502793
1772555352299452700,2.05145263671875,0.8894809880614281,0.40176206078678367,-0.08362908112742007
1772555352309384700,2.061384765625,0.9302204102069139,0.2927300236597657,-0.14761530415192245
1772555352319317800,2.07131787109375,0.9121329648524522,0.23570640618950128,-0.2322845785146579
1772555352329249000,2.0812490234375,0.8295417754054069,0.18252046718597412,-0.3227714165823534
1772555352339181000,2.09118115234375,0.7674123592287302,0.1284847794853151,-0.3558379660123959
1772555352349113000,2.101113037109375,0.7420300806909799,0.1118123154953122,-0.36160230169277635
1772555352359045000,2.111045166015625,0.7122709022432565,0.08168123499527573,-0.3475751280471682
1772555352368977200,2.12097705078125,0.7009247478425502,0.01640168422460556,-0.28337971925139427
1772555352378909200,2.1309091796875,0.6736603088200092,-0.014616115982085466,-0.24057854227051137
1772555352388841000,2.140841064453125,0.7034750168472528,-0.01371536775007844,-0.22773411213606595
1772555352398773000,2.15077294921875,0.7571282811015844,-0.04027823437452316,-0.26866452680900693
1772555352408706000,2.1607060546875,0.7917132722705602,-0.06342573959752917,-0.3126745681229979
1772555352418638000,2.17063818359375,0.7057564057826995,-0.07093100066110491,-0.35051461556516583
1772555352428570000,2.180570068359375,0.5148065484255552,-0.083716394084692,-0.3719801590505987
1772555352438502100,2.190502197265625,0.3643447688013315,-0.1238011517137289,-0.3048068304225802
1772555352448434200,2.20043408203125,0.1887117230415344,-0.17316329464539884,-0.21903043506816028
1772555352458366000,2.210365966796875,-0.011162614527344702,-0.21075433576256036,-0.20908508737608789
1772555352468298000,2.220298095703125,-0.19843816728591918,-0.267356951341778,-0.2032637973440811
1772555352478230000,2.23022998046875,-0.4202192162364721,-0.27975232253447174,-0.18623064681552348
1772555352488163000,2.2401630859375,-0.5590881732225418,-0.2116742270864546,-0.20248707735054194
1772555352498095000,2.25009521484375,-0.582698765912652,-0.19976941588968036,-0.21041626291461288
1772555352508027100,2.260027099609375,-0.5217249495118856,-0.27617387952581046,-0.1920775827454403
1772555352517959200,2.269959228515625,-0.4603068964749574,-0.3221915343351662,-0.17422051208075134
1772555352527891000,2.279890869140625,-0.4158563448518514,-0.3443090389233082,-0.1580153733415529
1772555352537823000,2.289822998046875,-0.2677817526251077,-0.3452631247777492,-0.13681776007730512
1772555352547755000,2.299755126953125,-0.06384907957613468,-0.3380591116830706,-0.11874397792201488
1772555352557687000,2.30968701171875,0.09241057267189025,-0.3108664227224886,-0.16686393877286462
1772555352567619000,2.319619140625,0.14448562782406807,-0.30333200862966475,-0.24398707207236436
1772555352577552100,2.32955224609375,0.15083996528685092,-0.29992651103511453,-0.2559464995332062
1772555352587484200,2.339484130859375,0.19673253241181374,-0.30328678124845027,-0.21579916152935474
1772555352597416000,2.349416015625,0.25153964287638664,-0.3037977995105088,-0.17729305139388887
1772555352607348000,2.359347900390625,0.281640182107687,-0.3161939013555646,-0.17885496694836764
1772555352617280000,2.369280029296875,0.3320312296956777,-0.33313794882856307,-0.1287375121373683
1772555352627212000,2.3792119140625,0.39332828670144077,-0.3419091381747275,-0.06297003171928227
1772555352637144000,2.38914404296875,0.4200070347905159,-0.36177477218285203,-0.09765559718590229
1772555352647076000,2.399076171875,0.40290976951718327,-0.35630284357778724,-0.17235716589428485
1772555352657007900,2.4090078125,0.39414778639078135,-0.3577461742538959,-0.18156024385169148
1772555352666941000,2.41894091796875,0.39274610289931294,-0.36704197199605404,-0.17646580678950993
1772555352676873000,2.428873046875,0.33271979648172856,-0.3969394629359245,-0.20013737241923807
1772555352686805000,2.438804931640625,0.23445815969407557,-0.45293118007518346,-0.24240024127233772
1772555352696737000,2.448737060546875,0.1461608675599098,-0.4774054769225418,-0.27749763894286006
1772555352706669000,2.4586689453125,0.04160919071733951,-0.5206952411379665,-0.31058453704118727
1772555352716601000,2.46860107421875,-0.11799100413024424,-0.6040086804449558,-0.3118613155113533
1772555352726532900,2.478532958984375,-0.24594752195775507,-0.6376227807551622,-0.3003479513175785
1772555352736465000,2.48846484375,-0.33946693265438077,-0.6457745960939675,-0.34633236144445834
1772555352746397000,2.49839697265625,-0.4039426196962595,-0.683913918743655,-0.3916911870189011
1772555352756330000,2.508330078125,-0.42539924922287464,-0.705162896868959,-0.4184747106567025
1772555352766262000,2.518261962890625,-0.3789548934340477,-0.7233955228477716,-0.4644136742066592
1772555352776194000,2.528194091796875,-0.2997340572029352,-0.767264694386348,-0.519629365472123
1772555352786126000,2.5381259765625,-0.24749592044353483,-0.7824343525979668,-0.5827832293257117
1772555352796057900,2.548057861328125,-0.19677870964109898,-0.8200885220792145,-0.6475087264101952
1772555352805990000,2.557989990234375,-0.16903671623468397,-0.8612617325320839,-0.6614939240776002
1772555352815922000,2.567921875,-0.15515549039840698,-0.8866058710165321,-0.6313929464548825
1772555352825854000,2.57785400390625,-0.12825170138180256,-0.9056905837800353,-0.628479835487157
1772555352835786000,2.587785888671875,-0.12251461903452872,-0.9517739973019808,-0.6235287889510392
1772555352845719000,2.597718994140625,-0.07710369794666766,-0.9691055097226053,-0.5785829280916601
1772555352855651000,2.607651123046875,0.024004560443758965,-0.9666756522271781,-0.494104390528053
1772555352865582800,2.617582763671875,0.1292512338131666,-0.9635060092151164,-0.44733650187328455
1772555352875515000,2.627514892578125,0.26546061620116235,-0.9429213402174412,-0.41922048752270635
1772555352885447000,2.637447021484375,0.3966752590417862,-0.923583237214759,-0.3728339994009584
1772555352895379000,2.64737890625,0.43598552516698835,-0.9209981160923838,-0.30434600797779854
1772555352905311200,2.657311279296875,0.40592648698985573,-0.8838591295916587,-0.24982290208637714
1772555352915243300,2.6672431640625,0.3489157290011644,-0.8534676445897668,-0.22003236038601023
1772555352925175000,2.677175048828125,0.3074403937965631,-0.8487115361038595,-0.168840901401639
1772555352935107800,2.68710791015625,0.2694920636743307,-0.8650892549309879,-0.14611484559425153
1772555352945040000,2.697039794921875,0.18370704662203788,-0.8956861993771046,-0.10444000576217659
1772555352954972000,2.706971923828125,0.1031003089904785,-0.9385090036679059,-0.019720992239890617
1772555352964904200,2.716904296875,0.0596960515499115,-0.968902315300703,0.03251699838903732
1772555352974836200,2.726836181640625,0.045243747827410696,-0.9522707678429781,0.06910620551989413
1772555352984768000,2.73676806640625,0.038113165295124055,-0.8833508878085762,0.038451530404016374
1772555352994700000,2.746699951171875,-0.10109715247452258,-0.80738445026353,-0.04273618545327335
1772555353004632000,2.756632080078125,-0.36377193734943863,-0.7799007424671203,-0.08187304950663819
1772555353014564000,2.766564208984375,-0.7866349460929631,-0.7696824230525642,-0.09856571603445335
1772555353024497200,2.7764970703125,-1.2964689668029545,-0.7270097678221762,-0.10885344742340966
1772555353034429200,2.78642919921875,-1.6553502095013857,-0.6174945502880961,-0.047623222275893204
1772555353044361200,2.796361328125,-1.834959173154831,-0.5797424733903259,0.11381422076909802
1772555353054293000,2.80629296875,-1.865147975191474,-0.5472473671726882,0.20937230681963265
1772555353064225000,2.81622509765625,-1.7614748347491025,-0.5025535813782364,0.24607989789946003
1772555353074157000,2.826156982421875,-1.509931100219488,-0.4608073933430016,0.23342057854095472
1772555353084089000,2.836089111328125,-1.176309970983863,-0.4193820347599685,0.18233055237075313
1772555353094021000,2.846021240234375,-0.7894336369007825,-0.3573579786539078,0.08721715961410663
1772555353103953200,2.855953125,-0.3546189090788364,-0.2693599617272615,-0.031402972732530905
1772555353113886200,2.86588623046875,0.04052022643685341,-0.21147855838388202,-0.1821267551606521
1772555353123818000,2.87581787109375,0.36962884668409823,-0.1752969456732273,-0.319555779004097
1772555353133750000,2.88575,0.6413952850311995,-0.17161358098536728,-0.40193427554853256
1772555353143682000,2.89568212890625,0.8454711659431458,-0.15943915906697512,-0.4437634656921029
1772555353153614000,2.905614013671875,0.9799538706690073,-0.11085063085630535,-0.4487229147303849
1772555353163546000,2.915546142578125,1.0949328335016966,-0.07313274848908186,-0.43798466309495265
1772555353173478100,2.92547802734375,1.1452245123684406,-0.04139320987910032,-0.4045617014426738
1772555353183410000,2.935409912109375,1.11773561694026,0.0074279580436646935,-0.38374643855951723
1772555353193342000,2.945342041015625,1.009861517676711,0.05752177625074982,-0.3782366256294772
1772555353203275000,2.95527490234375,0.9088456137448548,0.11161825422793627,-0.30967578816581515
1772555353213207000,2.96520703125,0.7964192580044269,0.16884484692439436,-0.22193580112084746
1772555353223139000,2.97513916015625,0.7032236724346875,0.23785189378559587,-0.1133581932304427
1772555353233071000,2.985071044921875,0.6758113493740558,0.33604835638254876,-0.03973324077762663
1772555353243003100,2.995003173828125,0.5869073235183954,0.44641777959316964,0.037502851377055044
1772555353252935000,3.004934814453125,0.4562263491630554,0.5210340446382761,0.08076901552118361
1772555353262867000,3.014866943359375,0.30210253989994523,0.5820391329601406,0.13990915022138506
1772555353272799000,3.024799072265625,0.13808394408822058,0.6676080230437219,0.24653796213157472
1772555353282731000,3.03473095703125,0.007018354329466819,0.7271504914671182,0.3424177818166092
1772555353292664000,3.0446640625,-0.033493104279041286,0.7416758604258299,0.411828696770966
1772555353302596000,3.05459619140625,0.014402034839987754,0.7253155311249196,0.45124107156377286
1772555353312528100,3.064528076171875,0.10183131196796893,0.6814705441795289,0.47246436725854873
1772555353322460000,3.0744599609375,0.15631927348077296,0.6467763935476541,0.423595816530101
1772555353332391700,3.0843916015625,0.11970423778891563,0.6175196116641164,0.3571855081638321
1772555353342323700,3.09432373046875,0.01360007080733776,0.6230364753894507,0.34282782392222433
1772555353352255700,3.104255859375,-0.11293722787201405,0.6433716996707022,0.3869687250742689
1772555353362187800,3.114187744140625,-0.27385025888383385,0.6244698691934347,0.46600357374660667
1772555353372119600,3.12411962890625,-0.4421434632748365,0.6002395371697843,0.5267848267173394
1772555353382052900,3.134052978515625,-0.5468120444953442,0.6234948866814375,0.5592146856790409
1772555353391984600,3.143984619140625,-0.6217980196356773,0.630293753041327,0.5823306267200038
1772555353401916700,3.153916748046875,-0.665202861598134,0.6204717394679784,0.579358150247857
1772555353411848700,3.1638486328125,-0.6408733069837093,0.5813190019920468,0.6367023049093783
1772555353421780700,3.17378076171875,-0.5754664765715599,0.5151841495662928,0.7259017335150391
1772555353431712800,3.183712646484375,-0.5012088157057761,0.40707478024214505,0.7827060091461986
1772555353441644500,3.19364453125,-0.3592641045361757,0.2881672457888722,0.8353937163040042
1772555353451576800,3.203576904296875,-0.17605273247659206,0.19530366865247487,0.8899632186204195
1772555353461508900,3.2135087890625,0.03208382200300693,0.08657105286344885,0.9149324593778699
1772555353471441700,3.223441650390625,0.1915922469139099,-0.05489917266219854,0.94589378015697
1772555353481373700,3.233373779296875,0.34588615204691886,-0.1803248568378389,0.9366168332457542
1772555353491305700,3.2433056640625,0.5148953957527875,-0.2690263458587229,0.9154128633059561
1772555353501237800,3.25323779296875,0.6911591406315565,-0.33608868839293715,0.8558147922378033
1772555353511169800,3.263169677734375,0.8404711656987667,-0.36909766241684555,0.7844017802134156
1772555353521101800,3.273101806640625,0.9211854553580283,-0.4231412411630153,0.7788438538253307
1772555353531033900,3.283033935546875,0.8837035737037658,-0.5108733006298541,0.8153099825657903
1772555353540966000,3.2929658203125,0.7756956189274787,-0.5926828381799161,0.868231644609943
1772555353550898000,3.30289794921875,0.688629329892993,-0.6401753878474236,0.8843009550750255
1772555353560830700,3.312830810546875,0.6831511907428502,-0.671118150056526,0.8666604497704654
1772555353570762800,3.3227626953125,0.6363964538305997,-0.7068737193748355,0.8000358410663903
1772555353580694800,3.33269482421875,0.5303022237211465,-0.7313068074289709,0.6922589185670017
1772555353590626800,3.342626708984375,0.3726706985980272,-0.7319293232414871,0.6243270997218787
1772555353600558800,3.352558837890625,0.2157780091434717,-0.7144609596334397,0.5985673661738634
1772555353610491000,3.362490966796875,0.11482348001003265,-0.7032780329704285,0.5863192214321344
1772555353620423000,3.3724228515625,0.037493572092056275,-0.7027970445204526,0.5322049886025488
1772555353630355000,3.38235498046875,-0.0008265139520168304,-0.7182162935789674,0.46077948242276906
1772555353640286700,3.39228662109375,0.012812135300040245,-0.7460473535083234,0.4146294334053993
1772555353650219800,3.4022197265625,-0.01063771387040615,-0.7673989152252674,0.36241650415249166
1772555353660151800,3.41215185546875,-0.10102350271642208,-0.7729395982176065,0.26714104356877505
1772555353670083800,3.422083740234375,-0.1700035154402256,-0.7631570398718118,0.24714973735436796
1772555353680016000,3.432015869140625,-0.24059856214523315,-0.7680236229948699,0.24999869704470037
1772555353689948000,3.441947998046875,-0.2717278599023819,-0.8181252591822296,0.24201105929166078
1772555353699880000,3.4518798828125,-0.2622866623401642,-0.8463120006814598,0.1827507688105106
1772555353709811700,3.461811767578125,-0.2276946569085121,-0.8650731805790215,0.13428747441470623
1772555353719743700,3.47174365234375,-0.17358312749266624,-0.8759380542688071,0.12092362351603805
1772555353729675800,3.48167578125,-0.14962006810307502,-0.875314880869165,0.1403483088236302
1772555353739608800,3.49160888671875,-0.16472002207934855,-0.8431153235320001,0.1450475725557655
1772555353749540900,3.501540771484375,-0.1933054805725813,-0.7855924513027072,0.12919292775467037
1772555353759473000,3.511472900390625,-0.18966858537495135,-0.7707239679947495,0.0819766742778942
1772555353769405000,3.521405029296875,-0.21013269673287868,-0.7950042766399681,0.005510068658366799
1772555353779336700,3.531336669921875,-0.23802315869927404,-0.818549256747961,-0.07513985052779316
1772555353789268700,3.541268798828125,-0.28962767373025416,-0.819138454812765,-0.13510869113709778
1772555353799200800,3.55120068359375,-0.3964215765416622,-0.8129530441761016,-0.14452804219368845
1772555353809132800,3.5611328125,-0.5232119731992483,-0.8188987277727574,-0.11540073190871626
1772555353819064800,3.57106494140625,-0.6688292354017495,-0.8363655570108443,-0.02422631343565881
1772555353828996900,3.580996826171875,-0.8271797224491834,-0.8230771094359457,0.10142232930827885
1772555353838930000,3.590929931640625,-0.9097557143270969,-0.8483978670448065,0.23170681515932082
1772555353848861700,3.60086181640625,-0.8372153787732124,-0.9097693775262683,0.3363980831356719
1772555353858793700,3.610793701171875,-0.792674226257205,-0.8597465787287801,0.37757870971001684
1772555353868725800,3.620725830078125,-0.8334639172852039,-0.6998910208806395,0.33959512561131266
1772555353878657800,3.63065771484375,-0.9908949514001607,-0.5527489602636546,0.2759471946304664
1772555353888589800,3.64058984375,-1.2704729402810335,-0.5134518458809704,0.25368531313557174
1772555353898521600,3.650521484375,-1.6566431719213723,-0.5023731833100319,0.3062888491412625
1772555353908453600,3.66045361328125,-2.0973691696137187,-0.3740719436980784,0.4031188091579824
1772555353918385700,3.6703857421875,-2.471858900332451,-0.21217793882489203,0.5159012483270838
1772555353928318700,3.680318603515625,-2.6593986569851635,-0.06749547325447201,0.6582127835150807
1772555353938250800,3.690250732421875,-2.519229723316431,0.01418152395710349,0.7756044335126876
1772555353948182800,3.700182861328125,-2.030536105790734,0.08567841487266123,0.8529073803585022
1772555353958114800,3.71011474609375,-1.3063012095093727,0.2067183582447469,0.8235059293072671
1772555353968046600,3.720046630859375,-0.47106677542030806,0.3004857523530721,0.6604733488582074
1772555353977978600,3.729978515625,0.31221944476664065,0.36287484237924217,0.4139427297828719
1772555353987910700,3.73991064453125,0.9445569785952568,0.4057727577328682,0.16899689568094908
1772555353997842700,3.7498427734375,1.4197604154288768,0.4340709237173199,-0.02028959504123777
1772555354007774700,3.759774658203125,1.7006588392585515,0.41423239691182967,-0.14114307593051342
1772555354017707800,3.769707763671875,1.7935311842232942,0.41689270216226576,-0.2078732639009133
1772555354027639800,3.779639892578125,1.7495640322029589,0.48915845855846996,-0.19274090549238024
1772555354037571600,3.789571533203125,1.5882716464847326,0.5947009000040591,-0.15678853496033698
1772555354047503600,3.799503662109375,1.468008021247387,0.6422380194656551,-0.14613281050920485
1772555354057435600,3.809435546875,1.4120628466635943,0.6859428672879934,-0.2011535271918401
1772555354067367700,3.81936767578125,1.3678425966650247,0.7483340031407774,-0.26064068523142486
1772555354077299700,3.8292998046875,1.3801385991364716,0.813255388123542,-0.3320762013485655
1772555354087232000,3.83923193359375,1.4206681779235601,0.8871854244701564,-0.3864101413434371
1772555354097163800,3.849163818359375,1.428980663716793,0.9648539166927337,-0.45454727350231255
1772555354107095800,3.859095703125,1.3981564863860607,1.0223981970362364,-0.5217675830772146
1772555354117028600,3.869028564453125,1.2642770082503556,1.1168199634000657,-0.4964082835562527
1772555354126960600,3.878960693359375,1.0213391895025967,1.2302017201691866,-0.45820280033517624
1772555354136892700,3.888892578125,0.6536269900947809,1.2940617595307529,-0.43843065329678355
1772555354146825000,3.898824951171875,0.1669312683880329,1.2843116421498357,-0.4056792707631364
1772555354156757000,3.908757080078125,-0.3724357207983732,1.2446890952050684,-0.35878059533555057
1772555354166688800,3.918688720703125,-0.9115425977438688,1.1260808359593153,-0.29451033120527864
1772555354176620800,3.928620849609375,-1.3452227685779332,1.0084569115757942,-0.21266188641693443
1772555354186552800,3.938552734375,-1.5795733762443065,0.9587016776733099,-0.12051138945333659
1772555354196484900,3.94848486328125,-1.6319313399910926,0.92356489784047,-0.06416084893904626
1772555354206418000,3.95841796875,-1.4779115756243466,0.853241069292277,-0.049659043519012624
1772555354216350000,3.968349853515625,-1.1378425854235887,0.7562003526017069,-0.08308847144469618
1772555354226282000,3.978281982421875,-0.7159796936333179,0.6679091979473829,-0.1508857771899551
1772555354236213800,3.9882138671875,-0.31207214525043964,0.5648014363028109,-0.2040820549244061
1772555354246145800,3.998145751953125,0.052015433919429775,0.4192025865398347,-0.22295199242606759
1772555354256077800,4.008077880859375,0.2693862652122974,0.2781169764176011,-0.24686087394300846
1772555354266009900,4.018009765625,0.4000795145273208,0.1500019070275128,-0.24195582197308538
1772555354275942000,4.02794189453125,0.48457916794419287,0.028558132094889877,-0.21777871797401457
1772555354285874000,4.0378740234375,0.5877537112146616,-0.0603873948149383,-0.18513667756635693
1772555354295805700,4.0478056640625,0.6623977410495281,-0.131853086874634,-0.1671906499765813
1772555354305738800,4.05773876953125,0.7303706225574016,-0.17987696693986654,-0.1821280338022858
1772555354315670800,4.0676708984375,0.7829244011372327,-0.19938830761760473,-0.2357519258316606
1772555354325603300,4.077603271484375,0.7973580001592636,-0.20840295033082365,-0.2621395820196718
1772555354335535000,4.08753515625,0.7804910365104675,-0.2106735256113112,-0.26470344115830957
1772555354345467100,4.097467041015625,0.7412742938876151,-0.21286051426157354,-0.27720015383362767
1772555354355399200,4.107399169921875,0.6885796455323696,-0.20522110542431474,-0.3074851827863604
1772555354365331200,4.117331298828125,0.6286632292300462,-0.1825083383567631,-0.3183086650198325
1772555354375263200,4.12726318359375,0.537328761357069,-0.17954525076746938,-0.28433775062859057
1772555354385195300,4.1371953125,0.4155862957388162,-0.16255495299994946,-0.2655791280142963
1772555354395128300,4.14712841796875,0.23696751216650008,-0.12964768578484653,-0.2881536921875551
1772555354405060000,4.15706005859375,0.03232113789021969,-0.08330759408809243,-0.33425223021339623
1772555354414992100,4.1669921875,-0.12797697609364986,-0.039505350305885076,-0.3513208539141342
1772555354424924200,4.176924072265625,-0.2706453253626823,-0.030843685748800635,-0.32125432655028996
1772555354434856200,4.186856201171875,-0.400271237707138,-0.015833748143538832,-0.3397829398009926
1772555354444788200,4.196788330078125,-0.47184945023059843,0.004156096766144037,-0.37145529492627827
1772555354454720300,4.20672021484375,-0.5124795667827129,-0.011400514936447143,-0.3669958312993869
1772555354464652000,4.216652099609375,-0.4922194535642862,-0.039788697291910646,-0.3576215614935383
1772555354474584000,4.226583984375,-0.3993973774820566,-0.05218991370350122,-0.34883502844776954
1772555354484516000,4.23651611328125,-0.2826671870678663,-0.0891536167025566,-0.35429775083307175
1772555354494449200,4.24644921875,-0.10809271045029163,-0.15660963472947478,-0.3177056210927665
1772555354504381200,4.256381103515625,0.07142974396348,-0.22465119755938648,-0.2746658861156553
1772555354514313200,4.266313232421875,0.23801263730525968,-0.29740999816954133,-0.2237400740638375
1772555354524245200,4.276245361328125,0.34884558637440205,-0.3854262083400041,-0.18729104258865117
1772555354534177000,4.286177001953125,0.41731998766362666,-0.43310237094610926,-0.1416971296167001
1772555354544109000,4.296109130859375,0.5118050285220146,-0.44493660112470385,-0.09452175613958388
1772555354554041000,4.306041015625,0.5809089598864317,-0.5048721605189145,-0.09728614281900226
1772555354563973000,4.31597314453125,0.5956465102910995,-0.5792722985953093,-0.09021693508513272
1772555354573905200,4.3259052734375,0.5755307739794254,-0.6296142463445663,-0.05696286372635513
1772555354583837200,4.335837158203125,0.5342226120352744,-0.7052427571721375,0.020486688515916465
1772555354593770200,4.345770263671875,0.4391986419945955,-0.7559392905127257,0.07351860600151121
1772555354603702000,4.355701904296875,0.23389584963619708,-0.8314654369443655,0.10321933226026594
1772555354613634000,4.365634033203125,-0.00905658215880394,-0.8972359861023723,0.11798163351370021
1772555354623566000,4.375566162109375,-0.1762210747808218,-0.9309230785835534,0.18246448094872758
1772555354633498000,4.385498046875,-0.282639714539051,-0.966471434891969,0.23743841761387882
1772555354643430100,4.39543017578125,-0.3564163138896227,-0.9980240726277232,0.2303563321321271
1772555354653362000,4.40536181640625,-0.4060246866673231,-1.0063494179025292,0.18037450466584412
1772555354663294000,4.4152939453125,-0.43996728827953335,-0.9905842780157923,0.1341306764177978
1772555354673226200,4.425226318359375,-0.44699557948112484,-1.003020200414583,0.09499454301679507
1772555354683159000,4.435158935546875,-0.45851533688306806,-1.017103816955164,0.07004409829135984
1772555354693091000,4.445091064453125,-0.5076075768321753,-1.0195425153441726,0.02631740396339446
1772555354703023000,4.455023193359375,-0.5948351939082145,-1.029038000376895,-0.011579689161945133
1772555354712955100,4.464955078125,-0.6720446903169155,-1.0322196260876952,-0.019055998125672338
1772555354722887000,4.474886962890625,-0.7084025363773108,-1.0431775848884135,-0.022756350480951367
1772555354732819200,4.484819091796875,-0.6155249307155609,-1.0364279644977301,-0.059419590962398794
1772555354742751200,4.494751220703125,-0.43963820245563984,-0.9702035340923816,-0.11167526337848975
1772555354752683300,4.504683349609375,-0.1966939539670944,-0.8785345005027949,-0.15722254246342926
1772555354762615300,4.514615234375,-0.02338555176258087,-0.7812219080682844,-0.26978947571832684
1772555354772547300,4.52454736328125,-0.019123218142986297,-0.6803110719460994,-0.37573450661543756
1772555354782480100,4.534480224609375,-0.12991700424551963,-0.5241127944964915,-0.4211322394281625
1772555354792412200,4.544412109375,-0.35715339599251744,-0.41959713881537314,-0.40035650483779606
1772555354802344200,4.55434423828125,-0.646985652384162,-0.3741686820708215,-0.3426069842457771
1772555354812276200,4.564276123046875,-0.9808440975069999,-0.30082813604995606,-0.27156516188764945
1772555354822208300,4.574208251953125,-1.290981475302577,-0.16043664567172528,-0.20331815787982194
1772555354832140300,4.584140380859375,-1.44679689091444,-0.023423253424465655,-0.12241364287808537
1772555354842072300,4.594072265625,-1.412148771381378,0.10906199387386441,-0.041776692771352826
1772555354852004000,4.604004150390625,-1.2413304324269294,0.21034853144064544,-0.03594162994232029
1772555354861936000,4.61393603515625,-0.9413871163874864,0.27746976455524563,-0.09386628790553658
1772555354871869200,4.623869140625,-0.5738263081490993,0.35906171383187174,-0.16274715110380203
1772555354881801200,4.63380126953125,-0.20426468148231505,0.4856042732082307,-0.21851726138163358
1772555354891733200,4.643733154296875,0.16528642379045486,0.6165725400723516,-0.3093768782844767
1772555354901665300,4.653665283203125,0.5618278273195028,0.6772793761000037,-0.4124400701349601
1772555354911597300,4.663597412109375,0.90035017260015,0.6604346242830157,-0.49019317190106954
1772555354921529000,4.673529052734375,1.1416121670901775,0.6692004068017006,-0.5183145930791273
1772555354931461000,4.683461181640625,1.301958796390891,0.6713837421901524,-0.5416535292210057
1772555354941393200,4.69339306640625,1.4212638057291507,0.6389741953641176,-0.5586707515280693
1772555354951325200,4.7033251953125,1.421802150389552,0.5982914718419313,-0.5452189666176215
1772555354961257200,4.71325732421875,1.2973422425061463,0.5611952285043895,-0.508511357271485
1772555354971190300,4.723190185546875,1.1301958700627088,0.543836681946367,-0.4617984867395833
1772555354981122300,4.733122314453125,0.9592471827268599,0.5281307249009609,-0.42996710512768477
1772555354991054000,4.74305419921875,0.775801417389512,0.49150487555414435,-0.3986624142710119
1772555355000986000,4.752986083984375,0.6089864688575267,0.4701641274921596,-0.34605953585244714
1772555355010918100,4.762918212890625,0.4307341805100441,0.45936026327461,-0.2848835844757035
1772555355020850200,4.77285009765625,0.18497195199131963,0.40365006649047136,-0.2762355100525543
1772555355030782200,4.7827822265625,-0.10949614750742911,0.3505804473429918,-0.21576748774945734
1772555355040714200,4.79271435546875,-0.42316754464805123,0.3319479353263974,-0.17004793910384178
1772555355050646000,4.80264599609375,-0.6950497183293104,0.2876616343542933,-0.141861709061265
1772555355060578000,4.812578125,-0.9181699069291352,0.23182298888489603,-0.033250600760057564
1772555355070511000,4.822510986328125,-0.9934300228357315,0.19626915268376469,0.1369795995755121
1772555355080443100,4.832443115234375,-0.8629115455657244,0.21579510640874502,0.32433201696258035
1772555355090375200,4.842375244140625,-0.5798427919596433,0.26168022087961434,0.4346743695031851
1772555355100307200,4.85230712890625,-0.15700725574493407,0.3070835431829095,0.4838903088971972
1772555355110239200,4.8622392578125,0.2946902178168297,0.3648601709775626,0.4847016618127003
1772555355120171000,4.8721708984375,0.6430822152048349,0.4076381132133305,0.48599772950522596
1772555355130103000,4.88210302734375,0.8515116151511669,0.43385421222671866,0.4848942252427339
1772555355140035000,4.89203515625,0.895488119521737,0.44646644104048605,0.5195047892443836
1772555355149967000,4.901967041015625,0.8053940070986747,0.44214726266711946,0.5584991578208283
1772555355159900200,4.911900146484375,0.6705898153334856,0.41787163019701834,0.596150916149281
1772555355169832200,4.921832275390625,0.5011638075202703,0.3851876503437757,0.6245543326064944
1772555355179764200,4.93176416015625,0.3352139513850212,0.35655996014401314,0.6162140820235014
1772555355189696000,4.941696044921875,0.15107728117406366,0.3719606506325304,0.6010875688338652
1772555355199628000,4.9516279296875,-0.07626724712252617,0.3822475052386522,0.5482323230894283
1772555355209560000,4.96156005859375,-0.29731647466719147,0.3731486913733184,0.49491870258562265
1772555355219492000,4.9714921875,-0.46911564135253425,0.3370043419331312,0.4714370335048064
1772555355229424000,4.981424072265625,-0.5552268216192722,0.2833193673662841,0.46563302340116347
1772555355239356200,4.991356201171875,-0.6142687931746245,0.21164967716708777,0.4741675544472411
1772555355249288200,5.0012880859375,-0.6609224077999591,0.12206219909191131,0.4620600237525999
1772555355259221000,5.011220947265625,-0.6516121431410312,0.027710429224371908,0.4423015764459967
1772555355269153000,5.021153076171875,-0.6051210256010293,-0.08761880835071205,0.4346086838558316
1772555355279085000,5.0310849609375,-0.5053764567792415,-0.1651093136578798,0.4246531800959259
1772555355289017000,5.04101708984375,-0.3779074302077293,-0.22010639373660087,0.435065597310476
1772555355298949000,5.05094921875,-0.18728899676203728,-0.23678587198927997,0.4082243886686861
1772555355308881200,5.060881103515625,0.03538929328918457,-0.25212460315749047,0.33955607224255796
1772555355318813200,5.070813232421875,0.24187983412742614,-0.27652532331198454,0.27456459943195805
1772555355328745500,5.080745361328125,0.45194005014598365,-0.3270144244469702,0.2416597799022682
1772555355338677500,5.090677490234375,0.6519885752379894,-0.35757702823206783,0.23890390532286837
1772555355348609500,5.100609619140625,0.7438415140271186,-0.3745218794226646,0.25580396752366796
1772555355358542300,5.110542236328125,0.7560299644708633,-0.3924899361811578,0.271324156206008
1772555355368474400,5.120474365234375,0.6917074221640825,-0.40155682053826747,0.27379043672168624
1772555355378406400,5.130406494140625,0.5629477712601423,-0.40171734486222266,0.2659201965369284
1772555355388338400,5.14033837890625,0.4103822973549366,-0.3900109057817608,0.2777789401022717
1772555355398270500,5.1502705078125,0.24555998394489287,-0.35148448351062833,0.2877753421281464
1772555355408202500,5.160202392578125,0.07899579530358314,-0.30715397807061673,0.29861520924083884
1772555355418134500,5.170134521484375,-0.015108137282729148,-0.26806546493731437,0.3084539547532797
1772555355428066600,5.180066650390625,-0.07259352704584598,-0.24811850932128726,0.2842573423361406
1772555355437998300,5.189998291015625,-0.1515033976316452,-0.23436017921231686,0.25432368410434575
1772555355447930400,5.199930419921875,-0.19046645775437354,-0.238962704571709,0.22647972816079853
1772555355457863400,5.209863525390625,-0.19219839611351489,-0.24847433702163396,0.21195848738793283
1772555355467795500,5.21979541015625,-0.2169943991959095,-0.26017946092784405,0.1598184772407636
1772555355477727500,5.2297275390625,-0.2720411636352539,-0.2808518812742084,0.099231185072707
1772555355487659500,5.239659423828125,-0.3107996410965919,-0.3226033300064504,0.09184495641207321
1772555355497591600,5.249591552734375,-0.33379648580253124,-0.3459270685791969,0.11447932448117062
1772555355507523300,5.2595234375,-0.2787427071005106,-0.3547076102755964,0.13717305805468932
1772555355517455400,5.269455322265625,-0.20229542723596095,-0.35520291951186955,0.12070716775376349
1772555355527387400,5.279387451171875,-0.15574819559454917,-0.33922844772338867,0.08567024983251467
1772555355537319400,5.2893193359375,-0.11137304729521275,-0.351151671359688,0.11746023998809978
1772555355547252500,5.29925244140625,-0.0910275938808918,-0.3734198364648968,0.15952144878925756
1772555355557184500,5.3091845703125,-0.1034188734203577,-0.40768494802974165,0.191278285593912
1772555355567116500,5.319116455078125,-0.0811935976088047,-0.4335310446869582,0.21534001958500593
1772555355577048300,5.32904833984375,-0.05498889677226543,-0.4581374434813857,0.23587414570553228
1772555355586980400,5.33898046875,-0.055874447435140605,-0.49104200728274877,0.2447318625576794
1772555355596912400,5.348912353515625,-0.031171383333206175,-0.5308780508477241,0.24956722855856642
1772555355606844400,5.358844482421875,-0.024563363370299338,-0.5885844629503786,0.3099812739184126
1772555355616776400,5.3687763671875,-0.08918518088459967,-0.6497250142201781,0.36818836555220186
1772555355626708500,5.37870849609375,-0.18583938247561455,-0.694813571485877,0.4061425408933311
1772555355636640300,5.38864013671875,-0.19273557173013686,-0.7433226777847856,0.49789187317751343
1772555355646572300,5.398572265625,-0.18418986170291898,-0.7655674620144068,0.5596161426194012
1772555355656505300,5.40850537109375,-0.19772797318994997,-0.7851509180802851,0.554163466704078
1772555355666437400,5.418437255859375,-0.2439934652805328,-0.8099719094734639,0.5407399945726618
1772555355676369400,5.428369384765625,-0.2540770523995161,-0.8209270917952061,0.5708372093357146
1772555355686301400,5.438301513671875,-0.2634323252439499,-0.8305523406874388,0.6336871948719024
1772555355696233500,5.4482333984375,-0.26766660181283947,-0.8372283843852579,0.6551787495814263
1772555355706165200,5.458165283203125,-0.22055881367921829,-0.8491068920969963,0.6420905007537454
1772555355716097300,5.46809716796875,-0.19662556490600108,-0.8302305613871663,0.6425500080242753
1772555355726029300,5.478029296875,-0.17218319756686687,-0.8048363001506775,0.6357588865794241
1772555355735961300,5.48796142578125,-0.170670454916358,-0.7904433984652162,0.619491130932793
1772555355745894400,5.497894287109375,-0.18206454011201859,-0.7640625373441725,0.6034769847210496
1772555355755826400,5.507826416015625,-0.24148586637377736,-0.7501159911867231,0.564998347114399
1772555355765758500,5.517758544921875,-0.2809305725336075,-0.7759999356362969,0.5601541219536215
1772555355775690200,5.527690185546875,-0.32597032222151756,-0.809504072766006,0.5563046434512362
1772555355785622300,5.537622314453125,-0.3403232572227716,-0.8099627763189375,0.5816943746430799
1772555355795554300,5.54755419921875,-0.34418636239171024,-0.785754583061859,0.5772369933754206
1772555355805486300,5.557486328125,-0.2893599627047777,-0.7644935491725802,0.5432879620224237
1772555355815418400,5.56741845703125,-0.23786884492039678,-0.7534989846885204,0.5061100317507982
1772555355825350400,5.577350341796875,-0.27259236777722834,-0.7635984269637615,0.46336843947004525
1772555355835282400,5.587282470703125,-0.3818289875656366,-0.7628115874350071,0.46400582405813035
1772555355845215200,5.59721533203125,-0.5650573107600212,-0.7035397526465356,0.46981889425106343
1772555355855147300,5.607147216796875,-0.7800485534399747,-0.598764057789743,0.5095553864317014
1772555355865079300,5.617079345703125,-0.9997790996015071,-0.4972986565247178,0.5527003718815744
1772555355875011300,5.62701123046875,-1.171007772922516,-0.4186632189661264,0.6209546276140958
1772555355884943400,5.636943359375,-1.2471867572396993,-0.35149960801452396,0.718668786586821
1772555355894875400,5.64687548828125,-1.1673621098965405,-0.27133476893156766,0.7455493408583104
1772555355904807400,5.656807373046875,-0.9293202464967966,-0.18507731206193564,0.6701721744433045
1772555355914739500,5.666739501953125,-0.5983721358627081,-0.1118399341545999,0.5454771060971543
1772555355924671500,5.67667138671875,-0.24752631558179855,-0.018652531891316174,0.42719749428387727
1772555355934603500,5.686603515625,0.06857727714180946,0.0570335543423891,0.34470180110055954
1772555355944536300,5.696536376953125,0.3377355788171291,0.12780483439713716,0.2526152362186462
1772555355954468600,5.706468505859375,0.5684861161649227,0.18852482216730712,0.15692403444088995
1772555355964400400,5.716400390625,0.7560843250066042,0.22820289869159457,0.08642605490218848
1772555355974332400,5.72633251953125,0.8789742070943116,0.2512020814850926,0.08546652568764984
1772555355984264400,5.736264404296875,0.9114519968509673,0.2653765911795199,0.14345540799349546
1772555355994196500,5.746196533203125,0.8057488118857145,0.26870047490522264,0.22615111726094037
1772555356004128500,5.75612841796875,0.6221352887660264,0.31582915969640013,0.3260252672791481
1772555356014060500,5.766060546875,0.4047743943452835,0.3978340736880898,0.42974356203749775
1772555356023992300,5.775992431640625,0.13884382254481314,0.4765149578236043,0.504359425223805
1772555356033924400,5.78592431640625,-0.1843377457410097,0.561907614557445,0.5529155855348333
1772555356043856400,5.7958564453125,-0.503786557239294,0.676671619465202,0.5871447490034625
1772555356053789400,5.80578955078125,-0.8316852171748876,0.7979032129518687,0.600717018488422
1772555356063721500,5.815721435546875,-1.1515139679014683,0.8702876272916793,0.5897090830661356
1772555356073653500,5.825653564453125,-1.3531991542845965,0.8885353777743875,0.5491166316432878
1772555356083585500,5.83558544921875,-1.3765928893536328,0.9097212275356054,0.5287769138500094
1772555356093517300,5.845517333984375,-1.2535147912174462,0.9287463921315967,0.4951121427984908
1772555356103449300,5.855449462890625,-0.9539519989281893,0.9395585857860743,0.4025833140417933
1772555356113381400,5.86538134765625,-0.5521399615198374,0.9190458129808307,0.3027205622004345
1772555356123313400,5.8753134765625,-0.10298048200309276,0.892283039870113,0.12187219294514506
1772555356133245400,5.885245361328125,0.370306307554245,0.8839359211549163,-0.03891005129385739
1772555356143177500,5.895177490234375,0.8658224645763635,0.8760711791291832,-0.22557529013436287
1772555356153110500,5.905110595703125,1.2975193526387214,0.8516665134519338,-0.41803434647805987
1772555356163042300,5.915042236328125,1.5768787303328513,0.8187275359243154,-0.6057927873827517
1772555356172974300,5.924974365234375,1.7230939584285019,0.8023053934335708,-0.7659033429052681
1772555356182906400,5.93490625,1.7534698074698447,0.8200938558414578,-0.8676924962319433
1772555356192838400,5.94483837890625,1.7317600799649953,0.8276920558854937,-0.9597166999347507
1772555356202770400,5.9547705078125,1.6399118173509835,0.8051255654208361,-0.993834658113867
1772555356212702500,5.964702392578125,1.4289672197133303,0.7517015798777341,-0.946340501011163
1772555356222634200,5.97463427734375,1.1797229942977427,0.6564478927344083,-0.8192278866618872
1772555356232566300,5.984566162109375,0.894831701439619,0.6020670448578894,-0.687988182445243
1772555356242498300,5.994498291015625,0.559751605567336,0.5817933415055274,-0.5855016945041716
1772555356252431400,6.004431396484375,0.28648236144185063,0.5969862344622612,-0.4821662981161847
1772555356262363400,6.01436328125,0.07249474284648895,0.6011731647580861,-0.41376229518204927
1772555356272295400,6.02429541015625,-0.11001812555491923,0.5689053644903004,-0.4270402213629335
1772555356282227500,6.0342275390625,-0.28554069667756554,0.5391093611635267,-0.48947428304199125
1772555356292159200,6.0441591796875,-0.4494897343844175,0.5097982187442481,-0.5259725604863837
1772555356302091300,6.05409130859375,-0.5733493382871151,0.46424949662089343,-0.5430790319794788
1772555356312023300,6.064023193359375,-0.6935182709783315,0.41104032287225123,-0.5390794774819165
1772555356321955300,6.073955322265625,-0.7736702505797147,0.35056232716441155,-0.5291031866623088
1772555356331887400,6.083887451171875,-0.8147901964753865,0.2266441249422729,-0.5266084107045084
1772555356341819600,6.093819580078125,-0.7898767044931649,0.08956059006825089,-0.5349501591248438
1772555356351752400,6.10375244140625,-0.704507867026329,-0.0290146436907351,-0.5486859486084431
1772555356361684500,6.1136845703125,-0.5538327369123697,-0.12430939349681139,-0.552782387609221
1772555356371616500,6.123616455078125,-0.3629202889561653,-0.20073796866089105,-0.5578549416331574
1772555356381548500,6.133548583984375,-0.15712006846964358,-0.2522309861414134,-0.560778829723224
1772555356391480300,6.143480224609375,0.10425473972260951,-0.2836019836999476,-0.561951965155825
1772555356401412600,6.15341259765625,0.3563344808250665,-0.35044103887230155,-0.5755535703331232
1772555356411344600,6.1633447265625,0.5269067360639572,-0.4094948469959199,-0.5753371145708486
1772555356421276700,6.173276611328125,0.6095470253497361,-0.43873570065796375,-0.5628193591075018
1772555356431208700,6.183208740234375,0.6468611492216587,-0.459046959541738,-0.4949740495020523
1772555356441140500,6.193140380859375,0.6410235291093588,-0.5270673334531486,-0.4596388610202819
1772555356451073500,6.203073486328125,0.6088654728263616,-0.6048886781498789,-0.4282885409235954
1772555356461005600,6.213005615234375,0.5725000279814004,-0.6627730041027069,-0.40289427968710656
1772555356470937600,6.2229375,0.5322615410953759,-0.6921535584963858,-0.36639183752425014
1772555356480869600,6.23286962890625,0.4999345579862594,-0.6902765125781297,-0.35454825499542053
1772555356490801700,6.2428017578125,0.4231821576952934,-0.6703358405724168,-0.3914625293621793
1772555356500733700,6.252733642578125,0.3074848174601793,-0.6473275976896286,-0.4621842711867764
1772555356510665500,6.26266552734375,0.25990005946457384,-0.6273308115825057,-0.4384958640201017
1772555356520597500,6.272597412109375,0.23340017507374286,-0.5922801025979221,-0.36559480539504435
1772555356530529500,6.282529541015625,0.20438217038214204,-0.5520962685085833,-0.3140662051444873
1772555356540461600,6.292461669921875,0.16243395696878432,-0.5557882548943162,-0.27226368381213395
1772555356550393600,6.3023935546875,0.0926221695959568,-0.5549675861611962,-0.25180760963018983
1772555356560326700,6.31232666015625,-0.013085107022523879,-0.5354930703625083,-0.21475063885711132
1772555356570258700,6.3222587890625,-0.14912030188739298,-0.49956177915111183,-0.2040003314577043
1772555356580190500,6.3321904296875,-0.2521048755437136,-0.4772594925805926,-0.23349329671729355
1772555356590122500,6.34212255859375,-0.3245709768176079,-0.4562489993862808,-0.1941480323439464
1772555356600054500,6.352054443359375,-0.403350499022007,-0.42158992006778717,-0.1365488434754312
1772555356609986600,6.361986572265625,-0.43736675039231776,-0.42253976813852784,-0.05996288579255342
1772555356619918600,6.371918701171875,-0.4036076886534691,-0.42270504170283674,-0.00402764808088541
1772555356629850600,6.3818505859375,-0.3727618840128183,-0.40771351653710003,0.015941373236477374
1772555356639782400,6.391782470703125,-0.28922610719203945,-0.3974403981953859,0.025883907916955648
1772555356649714400,6.40171435546875,-0.14406769467294214,-0.38816447419747707,0.03880713890865445
1772555356659647500,6.4116474609375,-0.003932078751921654,-0.38492110836207866,0.041293073972873386
1772555356669579500,6.42157958984375,0.09683364981114864,-0.3978697295233607,-0.004957074418105185
1772555356679511600,6.431511474609375,0.1788958469480276,-0.4320550538502633,-0.031655951979756354
1772555356689443600,6.441443603515625,0.28368425515592094,-0.48569940414577717,-0.05755341349802911
1772555356699375600,6.451375732421875,0.3716822720825672,-0.5462203622125089,-0.09297770503535867
1772555356709307400,6.461307373046875,0.4144686898857355,-0.6300346637137234,-0.09481851059645414
1772555356719239400,6.471239501953125,0.43795477941334243,-0.7185239712886512,-0.01734477376099676
1772555356729171500,6.48117138671875,0.41836394375860686,-0.7614080042473972,0.04297079792674631
1772555356739103500,6.491103515625,0.382094945025444,-0.8022514712892472,-0.009646620473824441
1772555356749035500,6.501035400390625,0.4113502656042576,-0.8643056302726269,-0.05480137484353036
1772555356758967600,6.510967529296875,0.4902285720080137,-0.8947289717175066,-0.09349950041975826
1772555356768900600,6.520900634765625,0.5979799216747284,-0.9559550093136727,-0.11130272200535982
1772555356778832400,6.530832275390625,0.714759796449542,-1.0425871447145938,-0.15881090763341635
1772555356788764400,6.540764404296875,0.7791384528577328,-1.1021956641115247,-0.232684902943857
1772555356798696400,6.550696533203125,0.8060679608374833,-1.1503177438542247,-0.2749354968372732
1772555356808628500,6.56062841796875,0.7875503073722123,-1.2494852434404193,-0.2764975219896063
1772555356818560500,6.570560546875,0.682448595431447,-1.281652798204124,-0.3006415639692917
1772555356828492500,6.580492431640625,0.5361684854060411,-1.244119478623569,-0.3865934620210901
1772555356838424300,6.59042431640625,0.4610971700698137,-1.1992238135814666,-0.4223326647264883
1772555356848356600,6.600356689453125,0.39639878018796443,-1.1847167109318077,-0.46966699162498116
1772555356858288600,6.61028857421875,0.3913549408018589,-1.1814061250790953,-0.5108100992005318
1772555356868220700,6.620220703125,0.4181991085857153,-1.2092528940342366,-0.5963420182745903
1772555356878153500,6.630153564453125,0.4159498683542013,-1.257924132092297,-0.6832062819309532
1772555356888085500,6.64008544921875,0.40902269943952557,-1.3010073408849536,-0.7486041983842849
1772555356898017500,6.650017578125,0.3241863614141941,-1.316222299543023,-0.7632837349914013
1772555356907949600,6.659949462890625,0.24637071580588815,-1.3271464291393755,-0.8090168737709522
1772555356917881600,6.669881591796875,0.15921616396605967,-1.3441785202220082,-0.8698509894400834
1772555356927813600,6.679813720703125,0.10607610993087291,-1.3766226999700069,-0.8711457784909754
1772555356937745700,6.68974560546875,0.11335223841369152,-1.384507900261879,-0.8699195246316492
1772555356947677700,6.699677734375,0.06884089651405811,-1.4002788853675125,-0.8934806521568447
1772555356957609500,6.709609375,-0.07222936990857123,-1.4241405302092431,-0.9540679534580558
1772555356967542500,6.71954248046875,-0.23773849653899667,-1.458542858287692,-0.9638470046725124
1772555356977474600,6.729474609375,-0.414523634943366,-1.480025791299343,-0.985803911871463
1772555356987406600,6.739406494140625,-0.5437082332611084,-1.4647564721055328,-0.8749603683430701
1772555356997338600,6.749338623046875,-0.6482949814170599,-1.4715183674558996,-0.8679908946566283
1772555357007270700,6.759270751953125,-0.6955564988076687,-1.5332099767372012,-0.8639148773893713
1772555357017202700,6.76920263671875,-0.6194722070366144,-1.6062554853342472,-0.8261326976142823
1772555357027134500,6.779134521484375,-0.4966670806229114,-1.6297864369168877,-0.7866974899351596
1772555357037066500,6.78906640625,-0.3855699276596308,-1.6550000808894634,-0.8166887235730886
1772555357046998500,6.79899853515625,-0.34156302815079687,-1.7699901496380566,-0.7957537067677826
1772555357056930600,6.8089306640625,-0.35807460249066353,-1.807285568809509,-0.6611280133746564
1772555357066862600,6.818862548828125,-0.3506815696299076,-1.529052126405388,-0.43272272397875783
1772555357076795600,6.828795654296875,-0.2462824530005455,-0.9538589138172566,-0.24536058891527354
1772555357086727700,6.838727783203125,-0.29941023207604883,-0.5299624703727662,-0.4679421040611341
1772555357096659500,6.848659423828125,-0.7259358549803495,-0.3901338745743036,-0.9402642498373984
1772555357106591500,6.858591552734375,-1.4403437692523002,-0.22838746147826314,-1.0458420548573135
1772555357116523500,6.8685234375,-2.1438573645442722,0.07060454518571496,-0.8006589414007961
1772555357126455600,6.87845556640625,-2.783978391855955,0.3616692659817636,-0.3785040809266269
1772555357136387600,6.8883876953125,-3.1520617626637217,0.48876741341426966,0.10248831457197666
1772555357146319600,6.898319580078125,-3.113398562270403,0.47343591570444404,0.45583062784373757
1772555357156251400,6.90825146484375,-2.6675451385617253,0.4762019463516772,0.6153687903057784
1772555357166183400,6.918183349609375,-1.8768477653354405,0.5665921191118657,0.44916386343091724
1772555357176115500,6.928115478515625,-0.9767021753966808,0.6274918473631144,0.1509924159022048
1772555357186048500,6.938048583984375,-0.16742518938481807,0.5874047516465186,-0.12332816390711814
1772555357195980500,6.94798046875,0.40948797886371613,0.5006089501164853,-0.2456330857137218
1772555357205912600,6.95791259765625,0.7443792741656303,0.3933062210001051,-0.15641217592861503
1772555357215844600,6.9678447265625,0.8637246155142784,0.2620410170160234,0.06650211483556777
1772555357225776400,6.9777763671875,0.8795382707178592,0.1737286734431982,0.3469042795808986
1772555357235708400,6.98770849609375,0.8381061901330947,0.1625869555734098,0.5996743775676936
1772555357245640400,6.997640380859375,0.7631114471644163,0.22178645577803252,0.7538458253648131
1772555357255572500,7.007572509765625,0.7080062305361032,0.3095880733497441,0.8324927341654896
1772555357265504500,7.01750439453125,0.752901018795371,0.40670419336408375,0.8999334815580398
1772555357275436500,7.0274365234375,0.8725538186579942,0.4763317102111876,0.9346233213409781
1772555357285369600,7.03736962890625,0.9581056114763021,0.5462086717747151,0.915641922821477
1772555357295301400,7.04730126953125,0.9621148471176624,0.6670442516811191,0.893549698805064
1772555357305233400,7.0572333984375,0.8741361194133758,0.7993089880965649,0.837504644043371
1772555357315165400,7.06716552734375,0.7166542318940162,0.9060179891034961,0.8126271732226014
1772555357325097500,7.077097412109375,0.5139449631601571,1.0134342615969478,0.7928492905631661
1772555357335029200,7.087029296875,0.33005437666475773,1.13508919506222,0.7689683564990758
1772555357344961300,7.096961181640625,0.13818565089702606,1.2937437796227633,0.786915589665249
1772555357354893300,7.106893310546875,-0.02750000134408474,1.4487657067693769,0.8184513493314385
1772555357364825300,7.116825439453125,-0.12117606390714644,1.56819945705384,0.8706336642503738
1772555357374757400,7.12675732421875,-0.205104054915905,1.6576229767389594,0.9202430599413811
1772555357384689200,7.136689208984375,-0.24917700539827345,1.6870967623740434,0.9148232268497347
1772555357394622200,7.146622314453125,-0.27637480892539024,1.660035298577696,0.9458343050546943
1772555357404554200,7.15655419921875,-0.2764204016327858,1.6003857165180146,1.0082118507735431
1772555357414486300,7.166486328125,-0.1901204207956791,1.5476605268940329,1.1087192206613719
1772555357424418300,7.176418212890625,-0.09336568143963814,1.4798369907289743,1.1132276379965245
1772555357434350300,7.186350341796875,0.0021820202142000195,1.350977094320953,1.0930663089774548
1772555357444282400,7.196282470703125,0.09916296954154968,1.17371381701082,1.0950520029019564
1772555357454214100,7.206214111328125,0.16659399925768376,0.9925053092062472,1.1002676186583935
1772555357464146200,7.216146240234375,0.17659458426833152,0.8674355988614261,1.127672927456349
1772555357474078200,7.226078125,0.2155044528990984,0.782795221799612,1.0643958025492728
1772555357484010200,7.23601025390625,0.19882628982067108,0.6569140489414333,0.9194495714761316
1772555357493942300,7.2459423828125,0.11415127983689308,0.5325003182873129,0.7527347223177552
1772555357503875300,7.255875244140625,0.16133096416294573,0.4193808657161891,0.7009304469309747
1772555357513807400,7.265807373046875,0.34297640208005903,0.29772330190241336,0.7632641535080968
1772555357523739100,7.2757392578125,0.571693387773633,0.19589900419712067,0.8410793607249856
1772555357533671200,7.285671142578125,0.7478542567998171,0.1223166122443974,0.8259333756498992
1772555357543603200,7.295603271484375,0.84432550303936,0.045721594472229475,0.764468560861796
1772555357553535200,7.30553515625,0.8912585191279649,-0.03171630386486649,0.7176344751030206
1772555357563467300,7.31546728515625,0.821171421945095,-0.06860752614960074,0.6263802328594028
1772555357573399300,7.3253994140625,0.688825144726038,-0.14876637388318775,0.4940659947464242
1772555357583331000,7.3353310546875,0.5572025056064128,-0.27626813368052244,0.4638394545152783
1772555357593263000,7.34526318359375,0.45801030997037884,-0.36227044674530623,0.44536947611663485
1772555357603195100,7.355195068359375,0.33725860895514487,-0.39020357880964873,0.40785109837688505
1772555357613128200,7.365128173828125,0.2122621099770069,-0.4437120277658105,0.36359574053231625
1772555357623060200,7.375060302734375,0.07806289836764335,-0.46868148771896956,0.3281800706928596
1772555357632992300,7.3849921875,-0.05945756661891937,-0.47377705729231234,0.2960543457768857
1772555357642924300,7.39492431640625,-0.20410861413776873,-0.4913019003279507,0.2751148719921708
1772555357652856000,7.40485595703125,-0.37542788835167884,-0.5043066355906427,0.25772479778472335
1772555357662788000,7.4147880859375,-0.4704524429142475,-0.5307407612688839,0.23955836890991775
1772555357672720100,7.42472021484375,-0.5388730681896209,-0.5722653424426913,0.20997929626945405
1772555357682652200,7.434652099609375,-0.6033879181981087,-0.6274072378195822,0.20368753918148577
1772555357692584200,7.444584228515625,-0.5545622202306986,-0.6492838463239371,0.20011231104321778
1772555357702516000,7.454515869140625,-0.4403524882048368,-0.6576660363525152,0.15622008742261678
1772555357712449300,7.46444921875,-0.2620622059345245,-0.6599316431969404,0.11981964432951062
1772555357722381000,7.474381103515625,-0.031119945406913756,-0.6565414162367582,0.09128580642566084
1772555357732313000,7.48431298828125,0.17603811942934988,-0.6342835533298552,0.09156400231253355
1772555357742245000,7.4942451171875,0.3342424760043621,-0.6317356224127113,0.06922525618914514
1772555357752177200,7.50417724609375,0.4512485607504844,-0.6534035566024482,0.0404830727642402
1772555357762109200,7.514109130859375,0.5746580827981234,-0.6867560833670199,0.03743544869665056
1772555357772041000,7.524041015625,0.6622481034457683,-0.723924515157938,0.05069960208050906
1772555357781973200,7.53397314453125,0.7093611522763967,-0.7773194207370281,0.1109117133937776
1772555357791905300,7.5439052734375,0.7296428928047418,-0.8125090998008847,0.16379096106830984
1772555357801837300,7.55383740234375,0.7759697596937417,-0.8547923903875052,0.1776367502650246
1772555357811769300,7.563769287109375,0.7582470559984446,-0.8839705540768802,0.1990162229022011
1772555357821702100,7.5737021484375,0.6912222689956427,-0.8755728742182254,0.21931191889066248
1772555357831634200,7.58363427734375,0.663112026798725,-0.8518165894471108,0.2519404422296211
1772555357841566200,7.593566162109375,0.6281044263035058,-0.8582453073203563,0.2928088975822553
1772555357851498200,7.603498291015625,0.5513654700160027,-0.8784145273849367,0.33233013957701624
1772555357861430300,7.61343017578125,0.45590544664561744,-0.9559113163024187,0.3816005856372416
1772555357871362300,7.6233623046875,0.3963070102512836,-1.0151895808316767,0.40228999365102497
1772555357881294300,7.63329443359375,0.341340909832716,-1.0555733214072882,0.42164081000480796
1772555357891226400,7.643226318359375,0.2547960143238306,-1.101475971534848,0.3853167200835421
1772555357901158100,7.653158203125,0.12151391755938529,-1.1318884993247686,0.27816297098379583
1772555357911090200,7.663090087890625,-0.052309448429942125,-1.1269782231904566,0.23169950863569974
1772555357921022200,7.673022216796875,-0.22386662305295466,-1.1252404396124183,0.24859036461673675
1772555357930955300,7.682955322265625,-0.39103286924064157,-1.1670293708108366,0.3094410295618698
1772555357940887300,7.69288720703125,-0.6069768826007843,-1.2224534441299735,0.4012716469213366
1772555357950819300,7.7028193359375,-0.8445610653609037,-1.2315357452519238,0.496704015099816
1772555357960751400,7.71275146484375,-1.0652332762867212,-1.2214392986513674,0.5574409540047869
1772555357970683100,7.72268310546875,-1.331961135944724,-1.271004416809231,0.5753619567511603
1772555357980615200,7.732615234375,-1.5780980429947375,-1.3905479110784829,0.5858191994881257
1772555357990547200,7.742547119140625,-1.7497481565982103,-1.5261847542755305,0.576165199425444
1772555358000479200,7.752479248046875,-1.839403293082118,-1.5802020295366643,0.6093523795604705
1772555358010411300,7.762411376953125,-1.8160253401041029,-1.558865226997435,0.7470293502829969
1772555358020343300,7.77234326171875,-1.8092331957459449,-1.5230435336403547,0.8093199483707547
1772555358030275000,7.782275146484375,-1.9722002366781233,-1.5111134418718517,0.8137194985039532
1772555358040208100,7.7922080078125,-2.3073007908165453,-1.4713872884221375,0.9473113188046961
1772555358050140200,7.80214013671875,-2.7483278172820804,-1.2758983263306318,1.1816998473286628
1772555358060072200,7.812072265625,-3.2274194937258955,-1.0503845205925404,1.3559247798562049
1772555358070004200,7.822004150390625,-3.6910248472243543,-0.7022846380189061,1.5172269563160836
1772555358079936300,7.831936279296875,-4.037334777641296,-0.42661242440491914,1.6170289544135332
1772555358089868300,7.841868408203125,-4.067377449205518,-0.21258593510389326,1.6980432499326765
1772555358099800000,7.851800048828125,-3.6006525023818012,-0.01009440077394247,1.807084493279457
1772555358109732000,7.861732177734375,-2.685041632285714,0.21276450654119253,1.7758467667117714
1772555358119664000,7.8716640625,-1.550055020815134,0.5032832838922738,1.5508509934984147
1772555358129596200,7.88159619140625,-0.4006044151842594,0.8029898685663938,1.1874151562355457
1772555358139528200,7.891528076171875,0.7328180157095193,1.0503000571794807,0.8419135465268045
1772555358149460000,7.9014599609375,1.7061796485066414,1.2207739666104316,0.5158934668794274
1772555358159393300,7.911393310546875,2.398048398712277,1.2577417612627149,0.17474698364026844
1772555358169325000,7.921324951171875,2.780060341629386,1.2641311700388789,-0.08407736375103704
1772555358179257000,7.931257080078125,2.8578578670591113,1.261171151189506,-0.2595219651334919
1772555358189189000,7.941189208984375,2.755296487250924,1.2390659946262836,-0.34766127196066077
1772555358199121200,7.95112109375,2.5447674846768376,1.2327899830967186,-0.3890517053607851
1772555358209053200,7.96105322265625,2.2669494912058115,1.2194111538246273,-0.45249695337638257
1772555358218985000,7.97098486328125,1.9717098228126764,1.271877838642895,-0.5172580697635188
1772555358228917200,7.980917236328125,1.6992893044710158,1.3718468638703227,-0.609090184960328
1772555358238849300,7.990849365234375,1.3537281465947628,1.4937795913636684,-0.7359109402235597
1772555358248781300,8.00078125,0.9911159006744623,1.6035335130244492,-0.9211541834369301
1772555358258714000,8.010714111328125,0.695850513318181,1.7010276725709437,-1.1250744353957474
1772555358268646100,8.020646240234376,0.4651508293747902,1.775599221691489,-1.2594076486483217
1772555358278578200,8.030578125,0.33633097271621226,1.8115926183536648,-1.2583673458151519
1772555358288510200,8.04051025390625,0.25306758309602734,1.8468740673542021,-1.204200725211203
1772555358298442200,8.050442138671874,0.11149287428259849,1.8404820282295344,-1.1403382016316055
1772555358308374300,8.060374267578124,-0.14679507381021975,1.8331728742599487,-1.143856073559448
1772555358318306300,8.070306396484375,-0.49501697532832617,1.7796528809964656,-1.1641130449727177
1772555358328238300,8.08023828125,-0.8552496326357125,1.7227312625959514,-1.1311480562210083
1772555358338171000,8.0901708984375,-1.1542390089511871,1.6830296590656042,-1.099900685042143
1772555358348102700,8.1001025390625,-1.3685498681515453,1.6423831759005785,-1.0665519576698541
1772555358358034700,8.11003466796875,-1.4575889185637234,1.566237509331107,-0.9864937938317656
1772555358367966700,8.119966796875,-1.4130910206675529,1.4245274837002158,-0.9123866473525762
1772555358377899500,8.1298994140625,-1.2041618545055388,1.3480752353996037,-0.8505626438632607
1772555358387831800,8.139831787109374,-0.8841986637443303,1.302241997246444,-0.7975342335090041
1772555358397763800,8.149763916015624,-0.4673404483735561,1.2451081973999738,-0.756518186379224
1772555358407696000,8.15969580078125,0.043639819762110704,1.1496332687214017,-0.6787561706542968
1772555358417627600,8.169627685546875,0.5450730918735266,1.0405039086997507,-0.6315148192688822
1772555358427559700,8.1795595703125,0.9887871654659509,0.9398778808683157,-0.6281758841045201
1772555358437491700,8.18949169921875,1.3168459843993185,0.8513578858941793,-0.6134075001701712
1772555358447423700,8.199423828125,1.5206354495853185,0.7354822664827108,-0.6059157561752945
1772555358457355800,8.209355712890625,1.532135917764902,0.6144920805364846,-0.639756870174408
1772555358467287600,8.21928759765625,1.2722937259674072,0.539120905470848,-0.6842597365066408
1772555358477219600,8.229219482421875,0.8729904565095901,0.495088286998868,-0.7088834517620504
1772555358487152600,8.239152587890626,0.5506558604419232,0.473567944586277,-0.6100877080976963
1772555358497084700,8.249084716796874,0.35387598175704477,0.4245549073532223,-0.4429145207125693
1772555358507016700,8.2590166015625,0.19456863237619398,0.3561600010409951,-0.3215428611680865
1772555358516948700,8.26894873046875,0.13282616969048977,0.3628697278127074,-0.25281309687830505
1772555358526880800,8.278880859375,0.18422201040685177,0.3433487425237894,-0.15976218047626314
1772555358536812500,8.2888125,0.19561141942739485,0.27205782250911,-0.08016282978896051
1772555358546744600,8.29874462890625,0.19974165109992026,0.26447379712089897,-0.014354067512415348
1772555358556676600,8.308676513671875,0.22228198421001433,0.3369502736583352,0.01626749991830438
1772555358566608600,8.318608642578125,0.12847498874366284,0.38489480487704275,0.020681590033508834
1772555358576540700,8.328540771484375,-0.121622638630867,0.4145157438978553,0.039589594523236155
1772555358586472700,8.33847265625,-0.41908933542370796,0.24077055771127343,-0.17143446155879646
1772555358596405800,8.34840576171875,-0.6133353117167949,0.2326335746154189,-0.016500578021816908
1772555358606337500,8.358337646484374,-0.6396399657964706,0.22454656814113258,0.5025048833983019
1772555358616269600,8.36826953125,-0.6563368335753679,0.1734789364658296,0.6579121200680732
1772555358626201600,8.37820166015625,-0.7421662742912769,0.20177710245028138,0.5675351355830207
1772555358636133600,8.388133544921875,-0.7352659933835267,0.3433709543555975,0.45787521234862505
