time,seconds_elapsed,z,y,x
1772555383828541200,0.066541259765625,0.33584698859155176,-0.2540459996741265,0.5069754164084792
1772555383838473200,0.07647314453125,0.7534697585940361,-0.35230098752528427,0.44822336771041155
1772555383848404200,0.086404296875,1.0353291364103554,-0.5068719560340047,0.32499563197046516
1772555383858337300,0.096337158203125,1.186043429490924,-0.6192214471459389,0.2879530185163021
1772555383868269300,0.106269287109375,1.2341665321469306,-0.6481457822047174,0.3415146589644253
1772555383878200300,0.116200439453125,1.2168313664644956,-0.6479480676755309,0.4037625138889998
1772555383888132400,0.12613232421875,1.1518617584258317,-0.6412587991699576,0.47148638907186685
1772555383898065400,0.1360654296875,1.1116776320755481,-0.5700000278592109,0.5123206498939543
1772555383907996200,0.14599609375,1.0235995356500147,-0.46727176705151796,0.47460517867952584
1772555383917929200,0.15592919921875,0.9307675226956605,-0.4080209750510752,0.4360872319757938
1772555383927860200,0.165860107421875,0.878776054173708,-0.3824270995892584,0.41435631555244323
1772555383937792300,0.175792236328125,0.7935171068221331,-0.3979427947595715,0.4229847354270518
1772555383947724300,0.185724365234375,0.634622429895401,-0.46696591597273945,0.49345995514467356
1772555383957656300,0.19565625,-0.13017302483320237,-0.5755686217717826,0.5315282583847641
1772555383967588000,0.205588134765625,-0.405787955302,-0.5612305920787155,0.37747970631495115
1772555383977520000,0.21552001953125,-0.26871757217049597,-0.3898386910200119,0.4048069814406335
1772555383987452200,0.2254521484375,0.04983925892412662,-0.2962069059900939,0.3833437029775232
1772555383997384200,0.23538427734375,0.39142975960373877,-0.3482020277738571,0.45959684850946064
1772555384007316200,0.245316162109375,0.6296534093111753,-0.22337518627420067,0.4160075898908078
1772555384017248300,0.255248291015625,0.5581669667243957,0.2237871280759573,0.12127199856229126
1772555384027180300,0.26518017578125,0.3949082493692636,0.437730030746758,-0.12963782197795806
1772555384037112300,0.2751123046875,0.1274912384033203,0.28683818914219733,-0.22515600527636706
1772555384047044400,0.28504443359375,-0.17104221083819865,0.2753675315789878,-0.2556253778200596
1772555384056976400,0.294976318359375,-0.4268336659401655,0.4073370844401419,-0.28903489546887573
1772555384066908400,0.304908447265625,-0.7144815640300511,0.34078605242893095,-0.14598689923249183
1772555384076840200,0.314840087890625,-0.8502648299604654,0.1803499912790954,0.00817154295258224
1772555384086772200,0.324772216796875,-0.8774895214945078,0.10401669318303465,0.13234488897956906
1772555384096704300,0.334704345703125,-0.7103074932157993,-0.03637508945614099,0.2133206791192293
1772555384106636300,0.34463623046875,-0.4978910694599151,-0.1951917327105999,0.1781527004305273
1772555384116568300,0.354568359375,-0.21146832925081252,-0.10349573804885148,0.09519311606250702
1772555384126500400,0.364500244140625,0.1563613590568304,0.048278731609135865,0.02839322385676205
1772555384136432000,0.37443212890625,0.36411154456734657,0.037003742748498915,-0.0483795616351068
1772555384146364200,0.3843642578125,0.41218788547217844,-0.05850406528636813,-0.07426723241172731
1772555384156296200,0.394296142578125,0.36580665804743767,-0.09070376875400543,-0.11136376801021397
1772555384166228200,0.404228271484375,0.22676526710391043,-0.05746361632272601,-0.14080558760445563
1772555384176160300,0.41416015625,0.07103519168794155,0.002914280011504888,-0.15034385233297942
1772555384186092300,0.42409228515625,-0.012110709032416343,0.012162439219653605,-0.12661040044818073
1772555384196024000,0.434024169921875,0.006263736569881439,-0.04279986180663108,0.0004386471455916762
1772555384205956000,0.4439560546875,0.14315642504692078,-0.10360241329371929,0.15126827370151877
1772555384215888400,0.453888427734375,0.4004109384387731,-0.11946283024847507,0.28864659027103334
1772555384225820400,0.4638203125,0.6059305884182453,-0.08121741687580943,0.3302703209703788
1772555384235752400,0.47375244140625,0.736067372894287,-0.020686375806480646,0.3324617300674319
1772555384245684500,0.4836845703125,0.7335019063204526,0.032784225357323886,0.28436054698228835
1772555384255616300,0.4936162109375,0.5980903963118791,0.008091828779876232,0.24387002156395463
1772555384265548300,0.50354833984375,0.39911739149689673,-0.0531605123013258,0.2144967006286606
1772555384275480300,0.513480224609375,0.18840075739622114,-0.15005013008341192,0.19175123686790466
1772555384285412400,0.523412353515625,-0.08231061893999576,-0.23349735183790324,0.15895053529981523
1772555384295344400,0.533344482421875,-0.30038053841292855,-0.23965631285905836,0.14578151285350321
1772555384305276200,0.543276123046875,-0.2567635150045156,-0.26481895729675886,0.1488624181361869
1772555384315208200,0.553208251953125,-0.2601023040384054,-0.3163775873593986,0.0955007572395727
1772555384325140200,0.56314013671875,-0.2772919237703085,-0.3186965318262577,0.0905746624816209
1772555384335072300,0.573072265625,-0.21290333048999308,-0.3003888678498566,0.10082958757951856
1772555384345004300,0.58300439453125,-0.1337257488787174,-0.29273645340055227,0.06641012570317834
1772555384354935800,0.592935791015625,-0.053119595769047734,-0.28454437911659475,-0.01783821983374655
1772555384364867800,0.602867919921875,-0.02106499986052513,-0.3126085902146995,-0.014693345936760305
1772555384374800000,0.6127998046875,-0.04654840068519115,-0.40927229028642176,0.06469619792476296
1772555384384731600,0.622731689453125,-0.0658393766105175,-0.46803149937763805,0.06328596580065786
1772555384394664000,0.632663818359375,-0.10295651660561561,-0.4235271717406809,-0.0013823212038725614
1772555384404596000,0.642595947265625,-0.20304303073287008,-0.3678834643214941,-0.0438652625484392
1772555384414528000,0.652528076171875,-0.2580985630005598,-0.3541894316203892,-0.05453631243286654
1772555384424460000,0.6624599609375,-0.3007517098128795,-0.3431733859568834,-0.05252650698041543
1772555384434391800,0.672391845703125,-0.26956980508565903,-0.3420703931510448,-0.03593499927213415
1772555384444323800,0.68232373046875,-0.21696926475465297,-0.3399535471275449,-0.057107350230962035
1772555384454255900,0.692255859375,-0.13689561108648776,-0.3502371868632734,-0.10345365247279405
1772555384464188000,0.70218798828125,-0.050877369800209994,-0.3758366152830422,-0.15776110631953924
1772555384474120000,0.712119873046875,-0.031794483667612075,-0.3826626619108021,-0.16303451667781918
1772555384484052000,0.722052001953125,-0.06051204410791397,-0.4209006226293742,-0.13648998942766338
1772555384493983700,0.731983642578125,-0.11515256583392619,-0.4378307146422565,-0.09428100618626922
1772555384503915800,0.741915771484375,-0.14898819994032383,-0.4205943331591785,-0.10529274100083857
1772555384513847800,0.751847900390625,-0.12576222265362738,-0.42454818535149097,-0.21266082697100935
1772555384523779800,0.76177978515625,-0.05210194315910339,-0.39957302630990743,-0.339143326723203
1772555384533712000,0.7717119140625,0.058018473726511,-0.4118332268156111,-0.3969959058308974
1772555384543644000,0.781643798828125,0.16272855600118635,-0.43794856886826455,-0.41519459300749
1772555384553575700,0.79157568359375,0.22194296151399612,-0.4816030016776174,-0.43741121058855204
1772555384563507700,0.8015078125,0.22609891214966774,-0.498372057909891,-0.45578949211575087
1772555384573439700,0.811439697265625,0.19285890584886073,-0.5056890298597514,-0.44959472912885245
1772555384583371800,0.821371826171875,0.1335480542242527,-0.5122774683393537,-0.42990211360007524
1772555384593303800,0.8313037109375,-0.02308744559884071,-0.5270557891458273,-0.39786271526068445
1772555384603235800,0.84123583984375,-0.19382395148873327,-0.5251544855691492,-0.30667196670733393
1772555384613167900,0.85116796875,-0.26832828059196473,-0.5337620087862014,-0.17025164498239756
1772555384623100000,0.861099853515625,-0.2627209621042013,-0.6041596332229674,-0.0811807746598497
1772555384633032000,0.871031982421875,-0.24706278972327708,-0.6747220928326249,-0.018591266690753398
1772555384642964000,0.8809638671875,-0.19938158561587332,-0.7208537294104694,0.023831359301321207
1772555384652896000,0.89089599609375,-0.13152385492026805,-0.7657547282148152,0.020571298059448597
1772555384662828000,0.900828125,-0.10039689525067806,-0.8361807750284671,0.043734987232275306
1772555384672759800,0.910759765625,-0.06351005688011646,-0.9030220952231437,0.06924670083597302
1772555384682691800,0.92069189453125,-0.08418401159644126,-0.9449049152500927,0.08991221651751548
1772555384692624000,0.930623779296875,0.035702597022056574,-0.9676404056061059,0.13034512999709694
1772555384702556000,0.940555908203125,0.2106722104370594,-0.9521757099706679,0.11501805273406207
1772555384712488000,0.950488037109375,0.4100824376255274,-0.9882608765695243,0.11764065632261335
1772555384722419700,0.960419677734375,0.6335293739616871,-1.0128726821914316,0.1032123179975897
1772555384732351700,0.970351806640625,0.7775204962670803,-1.026614061165601,0.0586159281630069
1772555384742283800,0.98028369140625,0.844127934640646,-1.037896648810804,0.055071095163002605
1772555384752215800,0.9902158203125,0.9060375705868006,-1.02363394937627,0.058611325053125614
1772555384762147800,1.00014794921875,0.9599304888159036,-1.031595648970455,0.03239690654017031
1772555384772079900,1.010079833984375,1.015769864937663,-0.9803103559564799,-0.002152647989243269
1772555384782011600,1.02001171875,1.0163175619482994,-0.9254903129450976,-0.010429843273386358
1772555384791943700,1.029943603515625,0.9202654179036617,-0.8872080746933817,0.03818542681373656
1772555384801875700,1.039875732421875,0.7254016019731759,-0.8784626043103635,0.11695566973313688
1772555384811807700,1.049807861328125,0.4883633626580238,-0.8743130834154784,0.18455482255779207
1772555384821740000,1.059739990234375,0.30104455527961255,-0.802272514077276,0.1735194146066904
1772555384831672000,1.069672119140625,0.20558862356245516,-0.725905167581141,0.15008900078907608
1772555384841603800,1.079603759765625,0.16315642602443695,-0.6657707246139645,0.12185666658245026
1772555384851536000,1.089535888671875,0.13838029668629168,-0.6615814562305807,0.01942892309129238
1772555384861468000,1.099468017578125,0.1028261682242155,-0.6819112736843526,-0.10462781081870198
1772555384871400000,1.10939990234375,0.02709551219642162,-0.7325739778205752,-0.21167495773881673
1772555384881332000,1.11933203125,-0.12835574627816676,-0.806296216635406,-0.31903409321755166
1772555384891264000,1.129263916015625,-0.31279169169664384,-0.833794610544294,-0.3431837612204253
1772555384901195800,1.13919580078125,-0.5315203673392533,-0.8930126693189143,-0.28319398742094637
1772555384911127800,1.1491279296875,-0.7803034049838781,-0.9900014366265386,-0.17491437609642743
1772555384921059800,1.159059814453125,-1.1159545787423848,-1.099134084583819,-0.02393244505561888
1772555384930991900,1.168991943359375,-1.456560160037875,-1.1388693711880593,0.11599387549627571
1772555384940924000,1.178923828125,-1.6822814710468053,-1.1323908958889544,0.22541911319196223
1772555384950856000,1.18885595703125,-1.6727631165951489,-1.1184043830472976,0.31738311114013196
1772555384960787700,1.19878759765625,-1.5468500872939823,-1.1465289460305124,0.3670234499586746
1772555384970719700,1.2087197265625,-1.3461907368272543,-1.2107850720375775,0.32805487341061235
1772555384980651800,1.21865185546875,-1.0772066226750612,-1.2497697594702244,0.24703623050991444
1772555384990583800,1.228583740234375,-0.8566676827400922,-1.271358637074381,0.08457220719642937
1772555385000515800,1.238515869140625,-0.7121160039424895,-1.2747124775469303,-0.0809397689782083
1772555385010447600,1.248447509765625,-0.6932868003100157,-1.2567466127455234,-0.2516311936173588
1772555385020380000,1.2583798828125,-0.8246931663304566,-1.2344206530384718,-0.40971711144447326
1772555385030312000,1.26831201171875,-1.0865700788259505,-1.2293445188179613,-0.5011958831589669
1772555385040244000,1.278243896484375,-1.38014152174592,-1.1810460595950483,-0.48702020442076027
1772555385050176000,1.288176025390625,-1.5578151334226131,-1.0740573648639022,-0.4167418955147266
1772555385060108000,1.29810791015625,-1.5521499472677707,-0.8974987286917865,-0.3368472516752779
1772555385070039800,1.308039794921875,-1.406332194057107,-0.6909595994714647,-0.2871150333222002
1772555385079970800,1.317970703125,-1.137287874150276,-0.5129577056884765,-0.2790122447568923
1772555385089902800,1.32790283203125,-0.7206634675353765,-0.327997590265423,-0.24598025518357752
1772555385099835000,1.3378349609375,-0.3244429665237665,-0.13379603763595221,-0.19850421825945377
1772555385109767000,1.347766845703125,-0.024105098208785057,0.04858297525271773,-0.20462876555435358
1772555385119698700,1.35769873046875,0.14196750752329826,0.18508812571689484,-0.2185297190044075
1772555385129630700,1.367630615234375,0.2187935575723648,0.29033655265197156,-0.16292495535612106
1772555385139562800,1.377562744140625,0.2578279293656349,0.4075814145900309,-0.11010989549160002
1772555385149494800,1.387494873046875,0.32523733177185055,0.5241150595188141,0.0011940320901572704
1772555385159426800,1.3974267578125,0.4579349066466093,0.5802237541012466,0.09018208296746015
1772555385169358800,1.40735888671875,0.6868360167354345,0.6036719958364963,0.09459244675561786
1772555385179291000,1.417290771484375,0.87804481728971,0.6298159063965082,0.14750811745040118
1772555385189223000,1.427222900390625,1.0097744239151478,0.6300976459473371,0.1778265006834641
1772555385199155000,1.437155029296875,1.0860089378118514,0.6573897036291658,0.21890735667776315
1772555385209087000,1.4470869140625,1.0561077205449343,0.726820821121335,0.22926731305271386
1772555385219019000,1.45701904296875,1.0071113421857356,0.7709779427558183,0.2510343237027526
1772555385228950800,1.46695068359375,0.9561837035030126,0.8124252209097147,0.28286800686959174
1772555385238882800,1.4768828125,0.8604781809389591,0.8604800806351005,0.2938276096381247
1772555385248814800,1.48681494140625,0.6916086379647255,0.8657299639873206,0.3337408100925386
1772555385258747000,1.496746826171875,0.47320729458034033,0.8543710962355137,0.37992399419452993
1772555385268679000,1.506678955078125,0.16250643768310546,0.835759627006948,0.4595902361055836
1772555385278611000,1.51661083984375,-0.0618874241143465,0.8307179795779287,0.5730224078876898
1772555385288542700,1.526542724609375,-0.22128186725676058,0.8737121949128807,0.6302686916653066
1772555385298474800,1.536474853515625,-0.33385318442583084,0.9029808133646845,0.566101120724529
1772555385308406800,1.54640673828125,-0.38519875625967975,0.8802285910695791,0.5450073696935549
1772555385318338800,1.5563388671875,-0.33350656294524667,0.8617280348695814,0.5662883503923193
1772555385328270800,1.566270751953125,-0.20419512337744236,0.8396864450618624,0.6214306476280093
1772555385338203000,1.576202880859375,-0.04747077622711658,0.8008293295316398,0.6906131971865892
1772555385348134700,1.586134765625,0.15319968015551566,0.7661534452088177,0.7401385678559541
1772555385358066700,1.596066650390625,0.42979368478953833,0.7616317300006746,0.8030227479226887
1772555385367998700,1.605998779296875,0.6653063219726085,0.7930112031266093,0.8065092748641968
1772555385377930800,1.6159306640625,0.8584872993826865,0.8175202059611678,0.7665369646336883
1772555385387863000,1.625863037109375,0.9034440469622611,0.8314302195005119,0.6925038332387805
1772555385397795000,1.635795166015625,0.790993725824356,0.8151873790994286,0.5618584416534751
1772555385407727000,1.64572705078125,0.6519757157564163,0.7752681872956454,0.4504890110874548
1772555385417659000,1.655658935546875,0.4902759182810783,0.6631601037241518,0.44018937006499614
1772555385427591000,1.6655908203125,0.3321639161646366,0.5448356298558413,0.5130483796466142
1772555385437523000,1.67552294921875,0.23414368691742418,0.43270109666883944,0.5718495281834155
1772555385447455000,1.685455078125,0.15245032309293746,0.3409313061185181,0.5356587823182344
1772555385457387000,1.695386962890625,0.08049860108196735,0.2753378670930862,0.4665106464859098
1772555385467319000,1.705319091796875,-0.059818801146745676,0.19253223117776214,0.397877109112218
1772555385477250800,1.715250732421875,-0.24075638305544853,0.11230470212213695,0.3040597931812517
1772555385487182800,1.725182861328125,-0.4213870909720659,0.060989379296079275,0.21246464681178331
1772555385497115000,1.735114990234375,-0.551506339791417,-0.0018951660968363284,0.17424855086514726
1772555385507047000,1.745046875,-0.6137672733932733,-0.06546433275304735,0.2409114274866879
1772555385516979000,1.75497900390625,-0.5953028114199638,-0.1350515175897628,0.33477402559779584
1772555385526910700,1.76491064453125,-0.46156537210345266,-0.19111922257468103,0.3833623346127569
1772555385536842800,1.7748427734375,-0.3002338234186172,-0.2346460834816098,0.39242096259817477
1772555385546774800,1.78477490234375,-0.12306699222028254,-0.26264636249803003,0.39525074266400184
1772555385556706800,1.794706787109375,0.049910570594668385,-0.30201698050834236,0.37927988760471343
1772555385566638800,1.804638916015625,0.18290625163316726,-0.31984000277295704,0.32907248948793855
1772555385576571000,1.81457080078125,0.2929284688413143,-0.33474779517799613,0.2889499936643988
1772555385586503000,1.8245029296875,0.3211889331638813,-0.35424174632951616,0.27549660131875425
1772555385596435000,1.83443505859375,0.25426234583854673,-0.3915048706665635,0.2625058032498695
1772555385606367000,1.844366943359375,0.18435878852903842,-0.41465325267240405,0.2953939273730852
1772555385616299000,1.854299072265625,0.1328635790914297,-0.4438832196142524,0.3396285529568791
1772555385626231000,1.86423095703125,0.07071779630184173,-0.4836206251103431,0.36511407267339524
1772555385636163000,1.8741630859375,-0.045104631617665286,-0.49687707011178134,0.3823656517256051
1772555385646094800,1.8840947265625,-0.08009703454375267,-0.5104593130014836,0.40546431283820417
1772555385656027000,1.89402685546875,-0.0559270544052124,-0.5218946069903672,0.43027434444595125
1772555385665959000,1.903958984375,-0.04498363558650016,-0.5421768589753657,0.43843956725560124
1772555385675891000,1.913890869140625,-0.08873042285442352,-0.586106601594761,0.43613545503169293
1772555385685823000,1.923822998046875,-0.09169453335702418,-0.5874108891263604,0.4299143520271405
1772555385695755000,1.933755126953125,-0.05612520732581615,-0.6057714523337782,0.43127146572452035
1772555385705686800,1.943686767578125,-0.05818623150885105,-0.6417482631873339,0.4164109830599278
1772555385715618800,1.953618896484375,-0.054447044980525966,-0.6536651301480829,0.42770219240300356
1772555385725550800,1.96355078125,-0.04179214606881142,-0.6996803738046438,0.45351614035628735
1772555385735483000,1.97348291015625,-0.05535130034387111,-0.7509139366313815,0.4784090279418975
1772555385745415000,1.983414794921875,-0.05621580821871757,-0.7570159798335283,0.4895661991091445
1772555385755347000,1.993346923828125,-0.052614568856358526,-0.7708025131236761,0.5189431002410129
1772555385765278000,2.00327783203125,-0.11224924560785293,-0.7958828130401671,0.5476741046847775
1772555385775210800,2.013210693359375,-0.19059972874522207,-0.8256483481634408,0.5648394302256405
1772555385785142000,2.02314208984375,-0.21826924143731594,-0.827567041266337,0.6033728667594492
1772555385795074000,2.033073974609375,-0.22800562255382537,-0.8075959010571241,0.6108000576181337
1772555385805005800,2.043005859375,-0.18120003223717213,-0.7939615626540034,0.6083571214454249
1772555385814937900,2.052937744140625,-0.1444569862514734,-0.805116505331546,0.615910715162754
1772555385824870000,2.062869873046875,-0.11375438947379589,-0.7883822281517088,0.6328783627070487
1772555385834802000,2.072802001953125,-0.06097323187887668,-0.7599476493712514,0.6250302064899355
1772555385844734000,2.08273388671875,0.01683949111998081,-0.7450663796469569,0.6314490605562925
1772555385854666000,2.092666015625,0.10063538018167019,-0.7358734577573836,0.6206402279026806
1772555385864597800,2.10259765625,0.1749620146304369,-0.7386481101024895,0.5742869113981723
1772555385874529800,2.11252978515625,0.20445172848701476,-0.748164053401351,0.5252531967032701
1772555385884461800,2.1224619140625,0.16528291665911674,-0.7583994700811802,0.48836453170180316
1772555385894393900,2.132393798828125,0.08241583288013934,-0.7562220529768615,0.46525728542394934
1772555385904326000,2.142325927734375,-0.08681903627514839,-0.7653671171367168,0.49985301718264813
1772555385914258000,2.1522578125,-0.3037210810124874,-0.789720052626729,0.5551480207620189
1772555385924189700,2.162189697265625,-0.4737228428870439,-0.7823858372811228,0.6305303382761777
1772555385934121700,2.172121826171875,-0.4736117837280035,-0.7440348446421324,0.721801093263179
1772555385944054000,2.182053955078125,-0.41253041529953477,-0.7053220329534262,0.7598830597024411
1772555385953986000,2.191986083984375,-0.3533031503051519,-0.7136402178350836,0.736086442920938
1772555385963918000,2.20191796875,-0.31182664605677124,-0.7494282281182706,0.6981238650776446
1772555385973850000,2.21185009765625,-0.3261538620948791,-0.8188769543323665,0.7082170968078076
1772555385983782000,2.221781982421875,-0.4125567187845707,-0.8733231955952941,0.7533584071740508
1772555385993714000,2.2317138671875,-0.39538171209990974,-0.8807923624321817,0.7147966213285922
1772555386003646000,2.24164599609375,-0.41894028234183783,-0.7930784962091595,0.5808854694129899
1772555386013578000,2.251577880859375,-0.5517892483860254,-0.6640195700976997,0.49817679106611756
1772555386023510000,2.261510009765625,-0.7504600553840398,-0.5697562822312117,0.47702758352085944
1772555386033441800,2.27144189453125,-1.0279226595461368,-0.47420032420568164,0.4790511983029544
1772555386043373800,2.281373779296875,-1.2994494439184665,-0.3784069772277027,0.4577912603922188
1772555386053305900,2.291305908203125,-1.5320119991242884,-0.26342596856839956,0.4575631872573867
1772555386063238000,2.30123779296875,-1.673389724060893,-0.15596856034696102,0.48136437061615284
1772555386073170000,2.311169921875,-1.7169418655395507,-0.1068314583428204,0.5316650730395689
1772555386083102000,2.32110205078125,-1.590840620189905,-0.0850497615803033,0.5707271000247448
1772555386093033700,2.33103369140625,-1.2650807258486747,-0.024680267748236655,0.6108999377960339
1772555386102965800,2.3409658203125,-0.9129705847203731,-0.002329465860873461,0.624470672911033
1772555386112897800,2.350897705078125,-0.6000175649821758,0.09866071910783648,0.5752095426684245
1772555386122829800,2.360829833984375,-0.2866892821907997,0.22537951183393595,0.45140992532465607
1772555386132761900,2.370761962890625,-0.06067395667135715,0.3390004841864109,0.3801265675619244
1772555386142694000,2.38069384765625,0.054847442474961275,0.41300007863789795,0.363964756507799
1772555386152626000,2.3906259765625,0.244526549243927,0.4849249126419425,0.2509475404684432
1772555386162558000,2.400557861328125,0.5136211380332708,0.5951378301165997,0.13426721707796677
1772555386172490000,2.410489990234375,0.810194100856781,0.7272578973643481,0.09051432886281982
1772555386182422000,2.420422119140625,1.1412263826429843,0.8380529986411333,0.04982562312441878
1772555386192354000,2.43035400390625,1.4525111769080161,0.9650091072544454,-0.040249903329182414
1772555386202286000,2.4402861328125,1.6815800447791813,1.0780949498169123,-0.1624004017590545
1772555386212217900,2.4502177734375,1.7940064005196092,1.142279837218672,-0.2774859302387573
1772555386222150000,2.46014990234375,1.8231015621006488,1.202329232250899,-0.39598698451668024
1772555386232082000,2.47008203125,1.7184674676716327,1.2268199687764048,-0.4505151319094002
1772555386242014000,2.480013916015625,1.308512455818057,1.2129112704113125,-0.36284514136072243
1772555386251946000,2.489946044921875,0.7726034981310367,1.210914543636143,-0.32547954302988946
1772555386261877800,2.499877685546875,0.27921850791871544,1.2353260774455963,-0.3514934705346823
1772555386271809800,2.509809814453125,-0.2734726577430963,1.227532647090405,-0.2973495001539588
1772555386281741800,2.519741943359375,-0.7379927879989147,1.1326172519907354,-0.13561335272360592
1772555386291673900,2.529673828125,-0.9535404955178499,1.0322563779015093,-0.01892287326529622
1772555386301606000,2.53960595703125,-0.9359954864770174,0.9257615311019122,-0.01643449051566422
1772555386311538000,2.549537841796875,-0.7921727064758539,0.8569390470273792,-0.07071874614991247
1772555386321469700,2.5594697265625,-0.5309662405878305,0.7425919523574411,-0.1121842175476253
1772555386331401000,2.56940087890625,-0.2827285618662834,0.5745202817626297,-0.10430822347551584
1772555386341333800,2.579333740234375,-0.06808861684203148,0.41651378584727644,-0.03793002728056162
1772555386351265000,2.58926513671875,0.08351181142330169,0.29858320666737853,0.06374879753943533
1772555386361197600,2.599197509765625,0.22256313923895357,0.20793993592895565,0.12935060253441333
1772555386371129600,2.609129638671875,0.3732546359658241,0.12811682295575738,0.15768489927817136
1772555386381061400,2.619061279296875,0.5327981321901083,0.03829422095045447,0.18828670256249605
1772555386390993400,2.628993408203125,0.773149441576004,-0.06771583800688386,0.22190427347142247
1772555386400925400,2.638925537109375,0.9815928700476885,-0.14572196468599138,0.21477164511252195
1772555386410857500,2.648857421875,1.1470359457045793,-0.21176307441368697,0.23127211353648452
1772555386420789500,2.65878955078125,1.2350222721934319,-0.29800087673477826,0.1755345538213849
1772555386430721300,2.66872119140625,1.2368465650111435,-0.3950113444175571,0.13851364074237643
1772555386440653300,2.6786533203125,1.175332650384307,-0.48446153291389343,0.1681887941684574
1772555386450585300,2.68858544921875,1.0995412040799855,-0.5456983841650188,0.19165062603764235
1772555386460517400,2.698517333984375,0.9935592021733521,-0.580804403533414,0.18549100742936134
1772555386470449400,2.708449462890625,0.8751718922019004,-0.5862451332826167,0.1711788428299129
1772555386480381400,2.71838134765625,0.716686380597949,-0.5843983363721519,0.16922423816341906
1772555386490313200,2.728313232421875,0.5871452239274978,-0.5694556918494403,0.2442875528562814
1772555386500245200,2.738245361328125,0.40766076343655583,-0.5553312318418174,0.3077208181731403
1772555386510177300,2.74817724609375,0.19421324306726453,-0.5691127966959029,0.3369549133008346
1772555386520109300,2.758109375,-0.008263385954499243,-0.5744559843547642,0.37394601576346903
1772555386530041300,2.768041259765625,-0.23652795170545576,-0.6034060383766889,0.43259840347934514
1772555386539973400,2.777973388671875,-0.4818903672516346,-0.6187911659698933,0.47970714146103705
1772555386549905400,2.787905517578125,-0.6301794790118932,-0.5983304886780679,0.45188459363169964
1772555386559837400,2.79783740234375,-0.7059966442793607,-0.5622398421864956,0.40850879510063676
1772555386569769500,2.80776953125,-0.7086416058301925,-0.5169024247262627,0.4484836260817945
1772555386579701500,2.817701416015625,-0.720970341527462,-0.5254729038685559,0.5070551671138033
1772555386589633500,2.827633544921875,-0.7387409760177135,-0.5346778815221042,0.5694244929935783
1772555386599565600,2.837565673828125,-0.6891162366271019,-0.5033839677877724,0.5861910650078207
1772555386609497300,2.847497314453125,-0.5809826096445322,-0.49140024613589045,0.5670424201626331
1772555386619429400,2.857429443359375,-0.4489548968553543,-0.5106364961992949,0.5393456906700507
1772555386629361400,2.867361328125,-0.32859482550621033,-0.5306152351930737,0.46804256876092404
1772555386639293400,2.87729345703125,-0.18758710292577743,-0.521319583581388,0.4161834579143673
1772555386649225500,2.8872255859375,-0.03721007897555828,-0.5538055566444993,0.3808546626407653
1772555386659157200,2.8971572265625,0.07925590754449367,-0.6069656305544078,0.322045915319398
1772555386669089300,2.90708935546875,0.162042911824584,-0.6291794351238758,0.2233329180350527
1772555386679021300,2.917021240234375,0.2600216400176287,-0.6391400534503161,0.15135112967938183
1772555386688953300,2.926953369140625,0.30511458119750023,-0.6668482176523656,0.06790303114205598
1772555386698885400,2.936885498046875,0.3053846303105354,-0.7145395047623664,-0.019064473693072796
1772555386708817400,2.9468173828125,0.30285949574708937,-0.7547492770105599,-0.08864347522333264
1772555386718749200,2.956749267578125,0.3276338715195656,-0.7791828034561127,-0.11814082439709454
1772555386728681200,2.96668115234375,0.34276948133110996,-0.7931647862531245,-0.10915540777835994
1772555386738613200,2.97661328125,0.28794015903472897,-0.7804543577618896,-0.12183178786952048
1772555386748545500,2.986545654296875,0.1883066493719816,-0.771647074189037,-0.1295752781357616
1772555386758477600,2.9964775390625,0.0809539436340332,-0.7926288527455181,-0.17073884397745132
1772555386768409600,3.00640966796875,-0.04878068978190422,-0.8255329050902277,-0.19005780388824642
1772555386778341400,3.01634130859375,-0.19822247870862483,-0.8712881826363503,-0.1658794212475419
1772555386788273400,3.0262734375,-0.3065302932143211,-0.8996832331240177,-0.1795481003116816
1772555386798205400,3.036205322265625,-0.33721476981341836,-0.8570615774285048,-0.23853224073257295
1772555386808137500,3.046137451171875,-0.3558329610437155,-0.8353541149459779,-0.3085345091762021
1772555386818069500,3.056069580078125,-0.33492812018096446,-0.8703927681665867,-0.31255178199354555
1772555386828001500,3.06600146484375,-0.3304132731050253,-0.9413438617676496,-0.30049839263893663
1772555386837933300,3.075933349609375,-0.30388942331671714,-1.0357741767641155,-0.3418104270406067
1772555386847865300,3.085865234375,-0.235389887586236,-1.0865589729100464,-0.3659494640516117
1772555386857797400,3.09579736328125,-0.1581213544666767,-1.0963302792094647,-0.3588838365143165
1772555386867729400,3.1057294921875,-0.17150749026238918,-1.0493966055337338,-0.41116124583818014
1772555386877661400,3.115661376953125,-0.31422610841393467,-0.9661945907119661,-0.5180543347077444
1772555386887592200,3.12559228515625,-0.578981791216135,-0.8821250723406672,-0.6223265735544264
1772555386897524500,3.1355244140625,-0.9783727389574051,-0.7836698857422918,-0.6474421639800071
1772555386907456500,3.14545654296875,-1.456168530371785,-0.6098398708164692,-0.6148630327407271
1772555386917388500,3.155388427734375,-1.9138550152152776,-0.4019311337433755,-0.5622533592551946
1772555386927320600,3.165320556640625,-2.2560861518859863,-0.26229886423461135,-0.4163123449910432
1772555386937252400,3.17525244140625,-2.4363667311906814,-0.1301437256734818,-0.24511066927481442
1772555386947184400,3.185184326171875,-2.4252584771990775,0.058132528560236096,-0.10968973385076969
1772555386957116400,3.195116455078125,-2.156824982666969,0.24763313695713876,0.029218313036672768
1772555386967048400,3.20504833984375,-1.6531699428528546,0.40684959318414327,0.18112937815375624
1772555386976980500,3.21498046875,-1.0675158342659472,0.5167174235481768,0.26582049902211874
1772555386986912500,3.22491259765625,-0.45880409069657324,0.639977307992056,0.31870339995846153
1772555386996844300,3.23484423828125,0.12475859856903553,0.7419205559018999,0.304049143923074
1772555387006776300,3.2447763671875,0.6972364147186279,0.8044270617626607,0.19758385201152412
1772555387016708400,3.254708251953125,1.2098562667548656,0.8370281856380403,0.08125683557074516
1772555387026640400,3.264640380859375,1.6695499997675418,0.8742296429157257,0.022020766215398908
1772555387036572400,3.274572509765625,2.0375281566351653,0.9243886353135108,0.004059321860782802
1772555387046504400,3.28450439453125,2.2509791841357947,0.9472168454542755,-0.007128390575200319
1772555387056436200,3.294436279296875,2.305937685769796,1.014719771362841,-0.058172093385644254
1772555387066368300,3.3043681640625,2.2267975135594607,1.13515436925292,-0.16657861902546137
1772555387076300300,3.31430029296875,2.037975900402665,1.1603536924391984,-0.20413553867731243
1772555387086232300,3.324232421875,1.7681512437731026,1.1452036157108842,-0.1849265054143965
1772555387096164400,3.334164306640625,1.4388643443495035,1.1777116544753312,-0.1456451731227338
1772555387106096400,3.344096435546875,1.0017746573328972,1.262195964192599,-0.10399966898299753
1772555387116028400,3.3540283203125,0.5710328780382872,1.3256946228958666,-0.08198321361653506
1772555387125960400,3.36396044921875,0.13437690626382828,1.3767133008629082,-0.04432148188333958
1772555387135892500,3.373892578125,-0.37422669586837287,1.4167707320936023,-0.03921155499108135
1772555387145824500,3.383824462890625,-0.8866314438492059,1.4845517442911862,-0.05011223064661026
1772555387155756500,3.393756591796875,-1.311791039097309,1.5575199498683214,-0.05474705084040761
1772555387165688300,3.403688232421875,-1.626708636906743,1.5880875220894812,-0.040932168238610026
1772555387175620400,3.413620361328125,-1.7586375654965638,1.576879022593796,-0.0015626462068408728
1772555387185552400,3.423552490234375,-1.7176684262484312,1.5103195150151847,0.07762750262506306
1772555387195484400,3.433484375,-1.563212608551979,1.362576200569421,0.16867931763175875
1772555387205416400,3.44341650390625,-1.313808808660507,1.1833898462422192,0.24164346808828413
1772555387215348500,3.453348388671875,-1.014568672454357,0.9961838515885174,0.3194229098720476
1772555387225280300,3.4632802734375,-0.6708586954027413,0.8338159455932677,0.3755613420056179
1772555387235212300,3.47321240234375,-0.275252526897192,0.6981662429146468,0.4003478466073051
1772555387245144300,3.483144287109375,0.1200537818789482,0.5634276637315749,0.4258459335444495
1772555387255076400,3.493076416015625,0.4737076453179121,0.442359882504493,0.4402741257390007
1772555387265008400,3.50300830078125,0.7461112125247716,0.33158655466809867,0.39556521544065326
1772555387274940400,3.5129404296875,0.8890788370013236,0.25521716234534975,0.3650886094385758
1772555387284872200,3.5228720703125,0.9202700940787791,0.17972119185626506,0.3842617311378941
1772555387294804200,3.53280419921875,0.9327262555480003,0.08517053841575979,0.430733815183863
1772555387304736300,3.542736328125,0.9063719171077013,-0.0037714813627302644,0.43281332487165924
1772555387314668500,3.55266845703125,0.8432908992946148,-0.06456511889100075,0.4559603551706299
1772555387324600600,3.5626005859375,0.7693202386766672,-0.1261296677265316,0.5081869110900908
1772555387334532600,3.57253271484375,0.6111234808862209,-0.21714783619195221,0.5344007085485384
1772555387344464400,3.58246435546875,0.3902700681746006,-0.2701969240080565,0.5679796644801274
1772555387354395400,3.5923955078125,0.1696937188386917,-0.28608415590450165,0.603957461714372
1772555387364328200,3.602328125,0.05644961697459221,-0.28097068534828723,0.6430941248383373
1772555387374259200,3.61225927734375,0.02418985388278961,-0.2993980301816016,0.697927173461765
1772555387384191200,3.622191162109375,0.07929448598921299,-0.3361733710017055,0.6948560223881155
1772555387394123300,3.632123291015625,0.24097324067652223,-0.3405823465503752,0.5811093047641217
1772555387404055000,3.642054931640625,0.3611772446811199,-0.3103700905729085,0.45064175396375356
1772555387413987000,3.651987060546875,0.4225555502295494,-0.32091413481049236,0.3763557437863201
1772555387423919000,3.661919189453125,0.4532704219669103,-0.34830899527966974,0.32613311156779523
1772555387433851100,3.67185107421875,0.4292477413445711,-0.3601045008830726,0.31407354820072647
1772555387443783200,3.681783203125,0.4084907845199108,-0.3609954583734274,0.2744669294774532
1772555387453715200,3.691715087890625,0.39719782161116596,-0.3579955459050834,0.24596867434363812
1772555387463647200,3.701647216796875,0.37817572575509545,-0.3219869516737759,0.2516679454311728
1772555387473579300,3.711579345703125,0.31287644737064835,-0.30205051745176315,0.29090072587337346
1772555387483511300,3.72151123046875,0.24738544580638408,-0.29714637879729267,0.349016778222844
1772555387493443300,3.731443359375,0.21858605230152606,-0.2869837350927293,0.4200061580076813
1772555387503375400,3.741375244140625,0.20751170057952403,-0.3059131842292845,0.4905675216387957
1772555387513307400,3.751307373046875,0.23432430418133735,-0.33083551710508763,0.5049698122071102
1772555387523239200,3.7612392578125,0.2626122410327196,-0.3453090828113258,0.48647247087750584
1772555387533171200,3.771171142578125,0.2580225751549005,-0.3641014615647495,0.47588582960721104
1772555387543103200,3.781103271484375,0.2685492298662662,-0.3998408834658563,0.4711487911479547
1772555387553035300,3.79103515625,0.2527303139656782,-0.45062304926328356,0.47399943133872
1772555387562967300,3.80096728515625,0.21976854008436203,-0.504721938393265,0.4625436425510794
1772555387572899300,3.8108994140625,0.19066577971875667,-0.5866499146912246,0.47486861538868397
1772555387582831000,3.8208310546875,0.13704817129969596,-0.6764259741410613,0.5328469397678971
1772555387592763100,3.83076318359375,0.09974047716856002,-0.7848677902899682,0.5747293944686651
1772555387602695200,3.840695068359375,0.07971358818411826,-0.881630786017701,0.5963639013128355
1772555387612627200,3.850627197265625,0.06745908676683902,-0.9743539317701011,0.6043531465010717
1772555387622559200,3.860559326171875,0.07266016254127025,-1.0552330566022545,0.58195777481962
1772555387632491000,3.870490966796875,0.05692424874901771,-1.1428126289211213,0.5314387534704059
1772555387642423000,3.880423095703125,-0.004239537265896797,-1.2138614838082342,0.515784161286056
1772555387652355000,3.89035498046875,-0.08344634497165679,-1.2682920891106129,0.5030896975489333
1772555387662287400,3.900287353515625,-0.23406243837475776,-1.3458131356865166,0.5059053760241716
1772555387672219400,3.910219482421875,-0.45704584885239596,-1.4016907979920505,0.5241906455056742
1772555387682151400,3.9201513671875,-0.7195669044703245,-1.4034832343667745,0.5219580641480163
1772555387692083200,3.930083251953125,-1.0229723436623812,-1.3616919650807975,0.4560143138475716
1772555387702015200,3.94001513671875,-1.2676736649513245,-1.2707190239965915,0.40637839547581966
1772555387711947300,3.949947265625,-1.465609143412113,-1.2354977807506917,0.42966530916951595
1772555387721879300,3.95987939453125,-1.5524088904649018,-1.3021562186591327,0.3980724490212276
1772555387731811300,3.969811279296875,-1.510218100467324,-1.3636752478525043,0.3563334579117596
1772555387741743400,3.979743408203125,-1.4009312117964028,-1.3749772708505392,0.3688563279416412
1772555387751675100,3.989675048828125,-1.2450152584195135,-1.3331898009568453,0.3247031518299132
1772555387761607200,3.999607177734375,-1.1617892782002688,-1.2183417710274458,0.2136810733968392
1772555387771539200,4.009539306640625,-1.2888842107623815,-1.0938609664864838,0.16122838057130573
1772555387781471200,4.01947119140625,-1.678359913688898,-0.9978397290367632,0.20519480193927883
1772555387791403300,4.0294033203125,-2.253520685312152,-0.8104507790315896,0.32081418156735597
1772555387801335300,4.039335205078125,-2.9201082792669535,-0.5206662342391908,0.4189737462200224
1772555387811267000,4.04926708984375,-3.4249235950320958,-0.1835378275349736,0.4955913411501795
1772555387821198300,4.0591982421875,-3.6666619748622176,0.12204802443608641,0.557769528372027
1772555387831130400,4.06913037109375,-3.5513469119429586,0.3685878862638026,0.6841974849253892
1772555387841062400,4.0790625,-3.007781302022934,0.5009818020168691,0.8260230997599661
1772555387850994200,4.088994140625,-2.11909467920959,0.5617061006359756,0.8616926712952554
1772555387860926200,4.09892626953125,-1.089476906183362,0.5923780830796808,0.8240805873900652
1772555387870858200,4.108858154296875,-0.07857377049922942,0.5734511181611568,0.7301618021123111
1772555387880790300,4.118790283203125,0.7864122432529926,0.5592867645345628,0.6060733578898012
1772555387890722300,4.128722412109375,1.483397898080945,0.561950576916337,0.45636378487236795
1772555387900654300,4.138654296875,1.9774065731495618,0.5656701819613575,0.3225250406058505
1772555387910586000,4.148586181640625,2.318376311582327,0.556390896962583,0.21352303329091518
1772555387920518100,4.15851806640625,2.531870009180903,0.5289797429457307,0.14367887801844625
1772555387930450200,4.1684501953125,2.636767722982168,0.5929834285616874,0.05586549694370478
1772555387940382200,4.17838232421875,2.6219915941327807,0.7275795305341481,-0.11389540537968278
1772555387950314200,4.188314208984375,2.4795149680435657,0.8572305773198604,-0.26884141774587333
1772555387960246300,4.198246337890625,2.2940017487823963,0.9564622281834483,-0.4124657525654882
1772555387970178000,4.208177978515625,2.0904414161771534,1.0316472330272197,-0.4329703420642763
1772555387980110000,4.218110107421875,1.8773370101571083,1.0634402553901077,-0.38875272241421044
1772555387990042000,4.2280419921875,1.6502987713307142,1.0980120948165655,-0.42221426251120864
1772555387999974100,4.23797412109375,1.3025596848934888,1.2072307405568659,-0.48732400967292483
1772555388009906200,4.24790625,0.8716817119985818,1.3908723207272589,-0.5833698701072484
1772555388019838200,4.257838134765625,0.4320411714553833,1.527367095927894,-0.6464099713880568
1772555388029770200,4.267770263671875,0.02416939561665058,1.5827189807936548,-0.6773051681283861
1772555388039702300,4.277702392578125,-0.34713176819384095,1.6191737113572655,-0.7029417867533863
1772555388049634300,4.28763427734375,-0.7152005259543657,1.6737899754248557,-0.734480395963788
1772555388059566300,4.29756640625,-1.065159042006731,1.7165838458821177,-0.6732215520765632
1772555388069498400,4.307498291015625,-1.355730718588829,1.7099822556599973,-0.5615593856416642
1772555388079430400,4.317430419921875,-1.594292806470394,1.6193571051001547,-0.40622393556647
1772555388089362200,4.327362060546875,-1.6689859361439943,1.5478003737561403,-0.27795455239750444
1772555388099294200,4.337294189453125,-1.490229205405712,1.499280965258926,-0.19105390225350855
1772555388109226200,4.347226318359375,-1.0497674116075038,1.4553139593690634,-0.07659172983653843
1772555388119158300,4.357158203125,-0.4552063584655523,1.348616648799926,-0.005401347586885094
1772555388129090300,4.36709033203125,0.1314040279328823,1.2168806124337017,0.04787241583056748
1772555388139022000,4.37702197265625,0.619922288891673,1.0776071662999689,0.09066007574275135
1772555388148954000,4.3869541015625,1.0164981792122125,0.9438703115053474,0.139983640229702
1772555388158886100,4.39688623046875,1.3226999711245297,0.8027310714997351,0.18043591599687933
1772555388168818200,4.406818115234375,1.520552447476983,0.6719083505861461,0.2105705036282539
1772555388178750200,4.416750244140625,1.6223697309195995,0.5732660439178348,0.2010313255842775
1772555388188682200,4.42668212890625,1.6313246062695979,0.47918227733671664,0.19453889482505618
1772555388198614000,4.436614013671875,1.5703496208250523,0.3571807223908603,0.15908493880182503
1772555388208546000,4.446546142578125,1.4661813903421164,0.23892376080080865,0.1500364668842405
1772555388218478000,4.45647802734375,1.3618646912992,0.11640855724439024,0.19877887048237025
1772555388228410400,4.466410400390625,1.1953969487696885,-0.03475698673501611,0.23414763244017958
1772555388238342400,4.47634228515625,1.0100012184083462,-0.15609890872836113,0.22330687027834353
1772555388248274400,4.4862744140625,0.816622672599554,-0.23827611054703593,0.17861651854999364
1772555388258206200,4.496206298828125,0.5920896945923566,-0.29161081037148834,0.12781842453107237
1772555388268138200,4.50613818359375,0.24440146155953407,-0.32190088082551954,0.03542224571071565
1772555388278069200,4.5160693359375,-0.1983592568308115,-0.33005393827334045,-0.06774528329707681
1772555388288001300,4.526001220703125,-0.64223348942101,-0.36408933273553845,-0.053839580606669185
1772555388297933300,4.535933349609375,-1.0936515615195035,-0.45267961646690963,0.008951514349132775
1772555388307865000,4.545864990234375,-1.407754920336604,-0.5155669383388012,0.0849052385430783
1772555388317797000,4.555797119140625,-1.5729402218401431,-0.542198120959103,0.1367305567178875
1772555388327729200,4.565729248046875,-1.6010247450739143,-0.577466929673776,0.16689634320512414
1772555388337661200,4.5756611328125,-1.502223010060191,-0.6068447075884789,0.19521708634756504
1772555388347593200,4.58559326171875,-1.3612258088737725,-0.6316560543704778,0.23480704619698226
1772555388357525000,4.59552490234375,-1.082694114175439,-0.6493681636065244,0.25294848676100373
1772555388367458000,4.6054580078125,-0.6747638861477374,-0.6467299971226602,0.22561478189453482
1772555388377389800,4.615389892578125,-0.22560440663099288,-0.6272812733523547,0.16275478642098604
1772555388387321900,4.62532177734375,0.14391045828461646,-0.6243795605614781,0.08027231804542242
1772555388397254000,4.63525390625,0.4178133241385221,-0.647538098635152,0.02828238389343023
1772555388407186000,4.64518603515625,0.5837035590410232,-0.6570080839004367,-0.03333002267181873
1772555388417118000,4.655117919921875,0.7095645658940076,-0.6450578261267393,-0.07362374687641858
1772555388427050200,4.66505029296875,0.7901987760543823,-0.6357943232189863,-0.09412029919922352
1772555388436982000,4.67498193359375,0.814860339102149,-0.6352343512486666,-0.1284727967865765
1772555388446914000,4.6849140625,0.8019044114172458,-0.6315160613778978,-0.14850147586930543
1772555388456846000,4.69484619140625,0.7096937452316284,-0.6211869020000099,-0.1893191874153912
1772555388466778000,4.704778076171875,0.5817874962866306,-0.6328529360048473,-0.21193828485012053
1772555388476710100,4.714710205078125,0.4886977091789245,-0.6707360919363796,-0.21787395850941538
1772555388486642200,4.72464208984375,0.43297932908833026,-0.7072269897919148,-0.20442867640499024
1772555388496574000,4.734573974609375,0.3608943360865116,-0.7045198497250675,-0.19026545528955757
1772555388506506000,4.744506103515625,0.29560967074930666,-0.7090715947452932,-0.21528299216814337
1772555388516438000,4.75443798828125,0.304492065384984,-0.7243364569596946,-0.2938215817561373
1772555388526370000,4.7643701171875,0.3029863369971514,-0.7426524503730237,-0.4076086313905194
1772555388536302000,4.774302001953125,0.30149229904711244,-0.7897454793289304,-0.48064065945148465
1772555388546234000,4.784234130859375,0.3160948248952627,-0.8447213704891502,-0.502049540846236
1772555388556166000,4.794165771484375,0.21416706681549547,-0.8723687444146722,-0.49299800018873063
1772555388566098000,4.804097900390625,0.006784545573592185,-0.8940556025005877,-0.4992627231393009
1772555388576030000,4.814030029296875,-0.1557686538606882,-0.9029412120066582,-0.5008112677555531
1772555388585962000,4.8239619140625,-0.24634032066762446,-0.9175662419475614,-0.489787148383446
1772555388595894000,4.83389404296875,-0.2998866174161434,-0.931849326582998,-0.4504902897290885
1772555388605825800,4.84382568359375,-0.34841362469792364,-0.9564892623208463,-0.4133082312716171
1772555388615757800,4.8537578125,-0.3892185132950544,-0.9799250829659402,-0.40182792909722775
1772555388625689900,4.86368994140625,-0.42662616066932674,-0.9755041977837681,-0.3737469495274126
1772555388635622100,4.8736220703125,-0.43488311688303943,-0.9860739609844982,-0.276856126168929
1772555388645554200,4.88355419921875,-0.39634558869600295,-1.0069472376652062,-0.15414627682324497
1772555388655486200,4.893486328125,-0.368428238722682,-1.0422016525283455,-0.056785863191634416
1772555388665418000,4.90341796875,-0.35625089419484135,-1.0591482572846114,0.03126801210809499
1772555388675350000,4.91335009765625,-0.3610457272559404,-1.089540326808393,0.10276559714339673
1772555388685281000,4.923281005859375,-0.40149055036902426,-1.1510331986472009,0.1781027603415772
1772555388695214000,4.933214111328125,-0.48498891778886316,-1.2328332377165556,0.23557857855875045
1772555388705145000,4.94314501953125,-0.5711790085107088,-1.3248800916425882,0.2781508786872029
1772555388715076900,4.953076904296875,-0.6329471901595592,-1.387724816481769,0.31090763151571155
1772555388725009000,4.9630087890625,-0.6037549979448318,-1.3638541115507483,0.30400081126932055
1772555388734941000,4.97294091796875,-0.5306020834505558,-1.2443576712936162,0.22317569991303607
1772555388744873000,4.982873046875,-0.5135433966219425,-1.0677380987145006,0.09426708725877106
1772555388754805000,4.992804931640625,-0.6239800398498773,-0.9198064220897852,-0.03519638279927894
1772555388764737000,5.002737060546875,-0.9301222105294465,-0.8016929606236517,-0.12837264261404052
1772555388774669000,5.0126689453125,-1.3713310233026743,-0.6569913519613444,-0.16740012800879775
1772555388784601000,5.02260107421875,-1.8676473907917737,-0.46964068813994525,-0.11725414122305809
1772555388794533000,5.032533203125,-2.3574743962615727,-0.29580577784329654,-0.06426356039484962
1772555388804465200,5.042465087890625,-2.6549896083712574,-0.1327959206826985,0.01390601321766153
1772555388814397200,5.052397216796875,-2.6454315064311027,0.03732683722302317,0.08980358677757903
1772555388824329200,5.0623291015625,-2.234766300481558,0.21815204479843378,0.09724210274787619
1772555388834261000,5.072260986328125,-1.4911872367829084,0.43032355388253923,0.10453037832621484
1772555388844193000,5.082193115234375,-0.594976063683629,0.6111074065342545,0.05676043648943305
1772555388854125000,5.092125,0.2572650347858667,0.7483760887168347,-0.010752791617438197
1772555388864057000,5.10205712890625,0.9877624985933303,0.8541881408840417,-0.038147323293052614
1772555388873989000,5.111989013671875,1.5430395890951156,0.9231409733399748,-0.09172061764635145
1772555388883921000,5.1219208984375,1.934095254689455,0.9929442851454019,-0.13144684416130184
1772555388893853000,5.13185302734375,2.175132208251953,1.034142995365709,-0.140323283980228
1772555388903785000,5.141784912109375,2.295436165499687,1.075882680594921,-0.11806604212783277
1772555388913717000,5.151717041015625,2.2783558513611553,1.0724705340638756,-0.05049103736374527
1772555388923649000,5.16164892578125,2.1564514731794593,1.065232837895304,0.004110467526130378
1772555388933581000,5.1715810546875,1.9185493105113505,1.10813557555452,-0.03378068904876709
1772555388943512800,5.181512939453125,1.5427303770154714,1.1970366788007318,-0.09189140763599425
1772555388953444900,5.19144482421875,1.086759463918209,1.2219614228293298,-0.11928893498629331
1772555388963377000,5.201376953125,0.6578600976198912,1.250196606580168,-0.07544434989970177
1772555388973309000,5.211308837890625,0.2746153980374336,1.330002987614274,0.050679436075314874
1772555388983241000,5.221240966796875,-0.07373977447152137,1.4003906751789152,0.12954294676873832
1772555388993173200,5.23117333984375,-0.42825697674155233,1.4651973477408289,0.13181973259430377
1772555389003105000,5.24110498046875,-0.7275701781839132,1.519859642907232,0.11182433472666889
1772555389013037000,5.251037109375,-0.9108212977319955,1.5425028518699109,0.14005849556419997
1772555389022969000,5.260968994140625,-0.9994488447338342,1.538958165000379,0.2141465172178112
1772555389032901000,5.270901123046875,-1.0727391218721867,1.4959613193169234,0.274602721218951
1772555389042833200,5.280833251953125,-1.1557839003056287,1.403251617567986,0.33681634508036074
1772555389052765200,5.29076513671875,-1.182794072306156,1.2904815629564226,0.39904392440188674
1772555389062697000,5.300697021484375,-1.043784245544672,1.1971886544920503,0.45693847948778415
1772555389072629000,5.31062890625,-0.760109342738986,1.1053811622798442,0.5058934663906693
1772555389082560000,5.32056005859375,-0.4195820873767137,1.0351103790931404,0.5231229797415435
1772555389092492000,5.330491943359375,-0.10905950965583323,0.9729774557851254,0.49818333040475843
1772555389102423800,5.340423828125,0.16958499776721,0.8851385749429463,0.46795901866331696
1772555389112355800,5.35035595703125,0.36013270406424996,0.7875707656383514,0.4164338524788618
1772555389122287900,5.360287841796875,0.49056642566025255,0.6813119926169514,0.38025830418281253
1772555389132220000,5.370219970703125,0.6045160454452038,0.5866393202319741,0.35483967569004743
1772555389142152200,5.380152099609375,0.6650584846913814,0.5264182218946516,0.347427755465731
1772555389152084200,5.390084228515625,0.6513865176916122,0.441695865637809,0.3478175585009157
1772555389162016000,5.40001611328125,0.5913111114352941,0.34732466041743754,0.37680231851004065
1772555389171948000,5.409947998046875,0.4918880296528339,0.256366478510946,0.3619355157025158
1772555389181880000,5.419880126953125,0.4312824620425701,0.18600304860472677,0.3249311518995091
1772555389191812000,5.42981201171875,0.42435178599655626,0.13240429101660847,0.2958983149649575
1772555389201744100,5.439744140625,0.4404921889364719,0.08603679985627531,0.2458964858902618
1772555389211676200,5.44967626953125,0.4828834699422121,0.057023763600736854,0.21240376520371063
1772555389221608000,5.45960791015625,0.5202233127772807,0.03767068222463131,0.17747966000717133
1772555389231540000,5.4695400390625,0.460108159032464,0.020642975056171416,0.1383083548280876
1772555389241472000,5.479471923828125,0.3749345518767834,-0.0012253040112555026,0.1067293588083703
1772555389251404000,5.489404052734375,0.369006330871582,-0.0029892449438571928,0.07404052925007418
1772555389261336000,5.499336181640625,0.3698170627325773,0.010588614031672477,0.015391466002445666
1772555389271268000,5.50926806640625,0.39105157394111156,-0.008635288006812333,-0.0007500694486312567
1772555389281199900,5.519199951171875,0.36278467987775803,-0.06134834880158305,0.008267313210945575
1772555389291132000,5.5291318359375,0.3432961355537176,-0.06762172998264432,0.03170658618845045
1772555389301064000,5.53906396484375,0.23220132067799568,-0.07992898450046777,0.06314865795550867
1772555389310996000,5.548995849609375,0.11675298676788806,-0.08595818166211247,0.11393858693428337
1772555389320928000,5.558927978515625,0.01072656119763851,-0.10770604922026396,0.1877424213516526
1772555389330860000,5.568860107421875,-0.11016133341789244,-0.09723477795794605,0.2506246103907004
1772555389340792000,5.5787919921875,-0.22759528818726538,-0.09928659592121838,0.31201376612670717
1772555389350724000,5.58872412109375,-0.28883973822295667,-0.11105711321383714,0.379432228622213
1772555389360656000,5.59865576171875,-0.26600539060235023,-0.13248115564510227,0.4323565940801054
1772555389370588000,5.608587890625,-0.2122872444182634,-0.18281901174113152,0.4994521812967956
1772555389380520000,5.61852001953125,-0.15170213507413863,-0.23446532008722423,0.5518108026307076
1772555389390452000,5.628451904296875,-0.060820087143778796,-0.2692982946678996,0.5930194131905213
1772555389400384000,5.638384033203125,0.03890577697753906,-0.2896982547484338,0.6312090412553399
1772555389410315800,5.648315673828125,0.14277882390618324,-0.3257365134656429,0.6311237741246819
1772555389420247800,5.658247802734375,0.167746091902256,-0.3772591954320669,0.628415684209764
1772555389430179800,5.668179931640625,0.17901333584785462,-0.4188130027003586,0.6303443141847849
1772555389440111900,5.67811181640625,0.2072299610286951,-0.4680749001279473,0.6535704376019537
1772555389450044000,5.6880439453125,0.17967267653942107,-0.5404438246376813,0.7366877698149532
1772555389459976000,5.697975830078125,0.07331365801393985,-0.6501978924289346,0.7711730269365012
1772555389469906700,5.70790673828125,-0.007401216167211532,-0.7382211899273097,0.7508605990089475
1772555389479839000,5.7178388671875,-0.08693944778442382,-0.7959929954163729,0.7315275375075638
1772555389489771000,5.72777099609375,-0.16491116073727607,-0.8685675255008042,0.7051135778345167
1772555389499703000,5.737703125,-0.24137597625851628,-0.9223692583151161,0.6473317624080925
1772555389509635000,5.747635009765625,-0.3216606423288584,-0.9685748369120061,0.6152869572412222
1772555389519566800,5.75756689453125,-0.421351435136795,-1.0188656389959156,0.6134294197410345
1772555389529499000,5.767498779296875,-0.5050076234668492,-1.0699550441116095,0.588098725260049
1772555389539431000,5.777430908203125,-0.5731506008446217,-1.1118646790802478,0.5229002769015729
1772555389549363000,5.787363037109375,-0.6397311512112617,-1.1149456939607858,0.5075654547234997
1772555389559295000,5.797294921875,-0.7304793436288833,-1.1410454731181263,0.51511941376701
1772555389569226800,5.807226806640625,-0.8640618846446275,-1.1914238073550163,0.5411322818258777
1772555389579158800,5.81715869140625,-0.9636310968995093,-1.2474801872283219,0.5858984022041782
1772555389589090800,5.8270908203125,-1.0021686250865458,-1.2819744313739239,0.6367525007266551
1772555389599022800,5.83702294921875,-0.9887649536341429,-1.2890915699027479,0.7010393141329289
1772555389608955000,5.846954833984375,-0.9155009799808264,-1.275088763513416,0.767385617352277
1772555389618887000,5.856886962890625,-0.7836649903714656,-1.2858780146837234,0.8220121105529368
1772555389628818700,5.866818603515625,-0.5937158344894647,-1.3211656011641024,0.88277272259444
1772555389638750700,5.876750732421875,-0.3493704870313406,-1.3179795184738934,0.9335784153979271
1772555389648682800,5.886682861328125,-0.14146657226383685,-1.253734425317496,0.97778529445827
1772555389658614800,5.89661474609375,-0.07854103727340697,-1.1782777639254927,0.9527087208688259
1772555389668546800,5.906546875,-0.17375789953768253,-1.097471996590495,0.8975362842231989
1772555389678478800,5.916478759765625,-0.4613812477082014,-1.0025998561106622,0.8690320742726325
1772555389688411000,5.926410888671875,-0.913453984323144,-0.855757143766433,0.8832759959414601
1772555389698343000,5.936343017578125,-1.4265513907432554,-0.5690317673489451,0.8209853247884661
1772555389708275000,5.94627490234375,-1.8838924231499432,-0.2581114224821329,0.7404472684789448
1772555389718207000,5.95620703125,-2.1862012992769477,-0.006383855818212032,0.750149235869199
1772555389728139000,5.966138916015625,-2.305716151973605,0.1243662382505834,0.8362752483788877
1772555389738071000,5.976071044921875,-2.227844392263889,0.2365861116334796,0.8889096909794956
1772555389748002800,5.9860029296875,-1.9178776948601006,0.3328621275618672,0.8246614560179412
1772555389757934800,5.995934814453125,-1.4236714513927697,0.41121027261167764,0.6812403886854648
1772555389767867000,6.005866943359375,-0.8067635418862104,0.49073579087778924,0.5092070479180664
1772555389777799000,6.015798828125,-0.13372165722548962,0.5893659687168896,0.294549622036051
1772555389787731000,6.02573095703125,0.5312696074485779,0.6931487070135772,0.06738549180766568
1772555389797662700,6.035662841796875,1.0847428633987903,0.7692024575158953,-0.14361866313065402
1772555389807594800,6.0455947265625,1.5425164420038462,0.8659693257011473,-0.3279440334472805
1772555389817526800,6.05552685546875,1.8566829291850326,0.9753392164804041,-0.5309168850207701
1772555389827457800,6.065457763671875,2.090550137248635,1.0888375853665173,-0.7117303656257689
1772555389837389800,6.075389892578125,2.312510049897432,1.1997548517182468,-0.8833840594258159
1772555389847321900,6.08532177734375,2.394962707656622,1.2901305575616657,-1.1040759249001741
1772555389857254000,6.09525390625,2.3843758471906185,1.380581958989799,-1.2820185627765952
1772555389867186000,6.10518603515625,2.271219423609972,1.447275468211621,-1.4164301019623875
1772555389877118000,6.115117919921875,2.018375127875805,1.5074644178450107,-1.497355404023826
1772555389887050000,6.125050048828125,1.685717290714383,1.5650319329336284,-1.4998520431451499
1772555389896982000,6.13498193359375,1.1961188333034514,1.6313452106662094,-1.4205075805343688
1772555389906913800,6.144913818359375,0.5941115558087825,1.6886669343002139,-1.3619935783758759
1772555389916845800,6.154845703125,-0.1357265673071146,1.7268962733209132,-1.263073477679491
1772555389926777900,6.16477783203125,-0.9048129972279071,1.7293243772506712,-1.129586286797002
1772555389936710000,6.1747099609375,-1.5558815350115298,1.7024363703250884,-1.0022696743082256
1772555389946642000,6.184641845703125,-1.9745979454696176,1.6816694766283034,-0.8528253280982374
1772555389956574000,6.194573974609375,-2.024178845718503,1.6430999458678066,-0.682069094594568
1772555389966505700,6.204505615234375,-1.7500369104117155,1.5786112532138823,-0.5166020535402
1772555389976437800,6.214437744140625,-1.2158417709052562,1.470138749665767,-0.39871392526254057
1772555389986369800,6.224369873046875,-0.581820229512453,1.3158910217620432,-0.27349068659013137
1772555389996301800,6.2343017578125,0.004466331759095192,1.1784769397594035,-0.1893550259137526
1772555390006233900,6.24423388671875,0.4849480012565851,1.015489440561086,-0.0993736896827817
1772555390016166000,6.254165771484375,0.8309826218634844,0.8273558096684515,-0.01758492092611268
1772555390026097700,6.26409765625,1.05766371781528,0.6420316832385957,0.05760939973527565
1772555390036029700,6.27402978515625,1.1438257514864205,0.4655506423473358,0.07357028595639858
1772555390045962000,6.2839619140625,1.1760030969917774,0.3319660555049777,0.05575199466582853
1772555390055894000,6.29389404296875,1.1653548617273568,0.2027123374737799,0.04896519320306834
1772555390065826000,6.303825927734375,1.075931195911765,0.06645940820500254,0.048842260943143624
1772555390075757800,6.3137578125,0.9254945507287978,-0.04530541488677263,0.03783091428764164
1772555390085689900,6.32368994140625,0.72041446121037,-0.135838649379462,0.02660347719604615
1772555390095622000,6.333621826171875,0.45438042903542514,-0.23858809910565612,0.061400448881578626
1772555390105554000,6.343553955078125,0.17355565496385097,-0.33442426231205463,0.12320782546307892
1772555390115486000,6.35348583984375,-0.08237257826030255,-0.39382425352483985,0.1757280123005621
1772555390125418000,6.36341796875,-0.3065647800058126,-0.4272200349092483,0.19140196677250787
1772555390135349800,6.373349853515625,-0.4590203637957573,-0.4162704786106944,0.2172740563875064
1772555390145280800,6.38328076171875,-0.5306114358007907,-0.3713476333007216,0.23058287089699878
1772555390155212800,6.393212890625,-0.5851134258389472,-0.33600831663310526,0.23027849938925354
1772555390165144800,6.403144775390625,-0.6567530131608247,-0.3281222395583987,0.21553265608027578
1772555390175076900,6.413076904296875,-0.7401531809031963,-0.33141777397245165,0.280514867872186
1772555390185008600,6.423008544921875,-0.7563128730654716,-0.3432116721406579,0.3297539689460769
1772555390194941000,6.43294091796875,-0.7423579974710941,-0.3236104612223804,0.31644440551791336
1772555390204873000,6.442873046875,-0.681958181566,-0.26931144641041754,0.32169319289159026
1772555390214805000,6.452804931640625,-0.5654559546887874,-0.2540055945985019,0.35194713258631527
1772555390224737000,6.462737060546875,-0.42205578401386734,-0.2458626201532781,0.3681103318799287
1772555390234669000,6.4726689453125,-0.26704057886898513,-0.21896394570320843,0.3493309952711686
1772555390244600800,6.482600830078125,-0.11121814899444579,-0.1761915564253926,0.3456489457575604
1772555390254532900,6.492532958984375,0.02371931376159191,-0.16100918486267327,0.35419863784015176
1772555390264465000,6.50246484375,0.09877543152868747,-0.1414823543548584,0.3292193140801042
1772555390274397000,6.51239697265625,0.1630360145151615,-0.11796148577481508,0.29252525833528487
1772555390284329000,6.522328857421875,0.24283669646084308,-0.13799670419618487,0.2321180080424063
1772555390294260700,6.5322607421875,0.33823476051092144,-0.14537585466206074,0.19050322783449664
1772555390304192800,6.54219287109375,0.42277942211329933,-0.13663520658463238,0.14588287260243668
1772555390314124800,6.552124755859375,0.47631461294591426,-0.1306647538729012,0.11524457323262467
1772555390324056800,6.562056884765625,0.5281862544804811,-0.13764014584347606,0.08767305928859859
1772555390333988900,6.57198876953125,0.5015110135227442,-0.1574348335072398,0.0724197596478276
1772555390343921000,6.5819208984375,0.40024142709076405,-0.16818550623282788,0.026603582227323203
1772555390353852700,6.591852783203125,0.32019816856086253,-0.18942747009545563,-0.03205278754392639
1772555390363784400,6.601784423828125,0.3343342459410429,-0.2018305862031877,-0.08386831497708334
1772555390373716500,6.611716552734375,0.3654840019643307,-0.21983473718836902,-0.10352193193603307
1772555390383648500,6.6216484375,0.4051841441899538,-0.27686361535564064,-0.0876157030781731
1772555390393580500,6.63158056640625,0.4240642012268305,-0.3292502206750214,-0.09843081934209913
1772555390403512600,6.6415126953125,0.4114887972921133,-0.35480727125778794,-0.11659878258686512
1772555390413444600,6.651444580078125,0.39276831473112106,-0.39543592650517817,-0.1350329407534562
1772555390423376600,6.661376708984375,0.3802683141201734,-0.44273865268900986,-0.16474986922834067
1772555390433308700,6.67130859375,0.3599251987934112,-0.5101568229235709,-0.17343014715434982
1772555390443240400,6.681240478515625,0.3417214335829019,-0.577715424542129,-0.18322434113901107
1772555390453172500,6.69117236328125,0.2820446712553501,-0.6812210994631052,-0.1729615067292936
1772555390463104500,6.7011044921875,0.1930997288674116,-0.7627638027705251,-0.14745143709341063
1772555390473035500,6.711035400390625,0.10236030427813529,-0.8410650399386882,-0.12441835203031078
1772555390482967600,6.720967529296875,0.008337035712599753,-0.9353985434971749,-0.13830717665115372
1772555390492899300,6.7308994140625,-0.04110182571709156,-1.0186813684701919,-0.16394856278281658
1772555390502831400,6.740831298828125,-0.13834288728535174,-1.0941527890399099,-0.18650593835925683
1772555390512763400,6.750763427734375,-0.273247616815567,-1.1912031503416598,-0.18272413653191177
1772555390522695400,6.7606953125,-0.4130173220336437,-1.2826723505102098,-0.21441137869907542
1772555390532627500,6.77062744140625,-0.583138910895586,-1.3674873534865677,-0.23730543888397512
1772555390542559700,6.780559814453125,-0.7372101131886244,-1.441136380934715,-0.2694633125038817
1772555390552491500,6.790491455078125,-0.8791717754930257,-1.4916579230345786,-0.30089599538808687
1772555390562423600,6.800423583984375,-1.0201011721402407,-1.5263357070535422,-0.2916336432578042
1772555390572355600,6.81035546875,-1.131913195374608,-1.5323432769052683,-0.2864772286090068
1772555390582287600,6.82028759765625,-1.1847902145594358,-1.5082640437901018,-0.29105027214558793
1772555390592219600,6.8302197265625,-1.148043661442399,-1.447893453979492,-0.2924959774418734
1772555390602151700,6.840151611328125,-1.1097422800987957,-1.41226173023656,-0.29739624363882466
1772555390612083500,6.85008349609375,-1.0410960293740033,-1.39158806778118,-0.31641802896764126
1772555390622015500,6.860015380859375,-0.8504939625412226,-1.3060893203243613,-0.24813717748913913
1772555390631947500,6.869947509765625,-0.6181733993977307,-1.1020433961592615,-0.22528049017256124
1772555390641879600,6.879879638671875,-0.509499089667201,-0.8474513799749315,-0.32002474822271615
1772555390651811600,6.8898115234375,-0.48157706351876256,-0.6464597288139164,-0.4088225006923079
1772555390661743400,6.899743408203125,-0.5512877286046743,-0.502535095873475,-0.43434316478744145
1772555390671675400,6.90967529296875,-0.7088689848452806,-0.34680823532789945,-0.3920146468196064
1772555390681607400,6.919607421875,-0.9117571172773837,-0.10306991385221481,-0.3010855448771268
1772555390691539500,6.92953955078125,-1.0960159525632858,0.1638223425872624,-0.2326690295212902
1772555390701471500,6.939471435546875,-1.292926764151454,0.3889389657013118,-0.2102300561601296
1772555390711403500,6.949403564453125,-1.4377970073789357,0.5843586619488894,-0.1675593919574283
1772555390721335300,6.959335205078125,-1.4675947642713785,0.769902422478795,-0.09674619072340428
1772555390731267300,6.969267333984375,-1.3869330815821885,0.9244073400139808,-0.012957955245207995
1772555390741199600,6.97919970703125,-1.236193069538474,1.0305055156461893,-0.05937450971165672
1772555390751131600,6.989131591796875,-0.921417510548234,1.1416684273220599,-0.0903557316344697
1772555390761063700,6.999063720703125,-0.5381722264438867,1.226927813065052,-0.06329776583630592
1772555390770994400,7.008994384765625,-0.07123918982744216,1.2507812746003268,0.014780786758195608
1772555390780926500,7.018926513671875,0.4691542197972536,1.2430559410452842,0.08966063464293256
1772555390790858500,7.0288583984375,0.9917664735376834,1.2372422863304615,0.08769945410517975
1772555390800790500,7.03879052734375,1.3696692275702953,1.2247367327615617,0.051683754279650745
1772555390810722600,7.04872265625,1.6363059018135069,1.17842243309319,-0.005796840577339753
1772555390820654600,7.058654541015625,1.7781389693021774,1.1438548314504324,0.01048637293332722
1772555390830586400,7.06858642578125,1.7045207753837108,1.123417315838486,0.03528915281638037
1772555390840518400,7.078518310546875,1.459602011951804,1.1164569753065705,0.09623840559804811
1772555390850450400,7.088450439453125,1.1119394978821278,1.1021313667036592,0.23445560241080818
1772555390860382500,7.098382568359375,0.7400204944342375,1.0786622283108531,0.3801386233258992
1772555390870314500,7.108314453125,0.37812019617557524,1.0916741239666938,0.5597632229398936
1772555390880246500,7.11824658203125,0.10396949304044246,1.1395400369912385,0.6749750446803867
1772555390890178600,7.128178466796875,-0.02192600060403347,1.199854366569966,0.7236798927471041
1772555390900110600,7.138110595703125,0.012829670956730842,1.2749310887336731,0.725050523513183
1772555390910042600,7.148042724609375,0.1746557251602411,1.366011727976054,0.6808085000742227
1772555390919974700,7.157974609375,0.36447219457328317,1.4982209348119795,0.5927691282238811
1772555390929906700,7.16790673828125,0.4683125082761049,1.599369379082322,0.4858984338492155
1772555390939838500,7.17783837890625,0.4018541229844093,1.6726640401348472,0.40244496501702814
1772555390949770500,7.1877705078125,0.16228022771179676,1.7345203384585677,0.361311757780984
1772555390959702500,7.19770263671875,-0.10621288805305958,1.7538250506483017,0.38991562871374186
1772555390969634600,7.207634521484375,-0.3505459605515003,1.7055324366442859,0.48453660744410004
1772555390979566600,7.217566650390625,-0.5510176794916392,1.6172956425257026,0.5326697200374677
1772555390989498600,7.22749853515625,-0.6891062997549772,1.5715245098233221,0.5443606327552348
1772555390999430400,7.237430419921875,-0.7519991015195846,1.5190011263817549,0.512846609996818
1772555391009362400,7.247362548828125,-0.7617588635116815,1.4483553724028169,0.44203897998705505
1772555391019294500,7.25729443359375,-0.7426280465841293,1.3804285219937562,0.39976913340389725
1772555391029226500,7.2672265625,-0.7085504204154014,1.2888292657047509,0.37441133172027763
1772555391039158500,7.277158447265625,-0.6366811159908771,1.1376733663365244,0.3997457159956917
1772555391049090600,7.287090576171875,-0.5234931282281875,1.0030592903159559,0.4248339800229296
1772555391059022300,7.297022216796875,-0.3816711666554212,0.8897615585684776,0.3968396923558786
1772555391068953600,7.30695361328125,-0.19035013789832592,0.780902247659862,0.3627549423266202
1772555391078885600,7.3168857421875,0.03550093697011471,0.7231785190962254,0.3429161963254213
1772555391088817700,7.326817626953125,0.26890929535031316,0.7057929384008049,0.2859169095788151
1772555391098749700,7.336749755859375,0.4868693247079849,0.679024466201663,0.238274064720422
1772555391108681500,7.346681396484375,0.6699369043827057,0.6369429817974567,0.1775371440817602
1772555391118613500,7.356613525390625,0.8102034532070159,0.5775595033280551,0.18703502200096844
1772555391128545500,7.366545654296875,0.8394728023111819,0.5479287735655903,0.2427363778915256
1772555391138477600,7.3764775390625,0.7893576490551233,0.5019828688181937,0.2870758886219002
1772555391148409600,7.38640966796875,0.6834206553339958,0.4642024426087737,0.36010081108864395
1772555391158341400,7.39634130859375,0.5499573567837477,0.4430287216767668,0.41128607779424636
1772555391168273400,7.4062734375,0.3339502150595188,0.40264351979643104,0.4043163849120959
1772555391178205400,7.416205322265625,0.1075315694361925,0.4052009491942823,0.3876948108591139
1772555391188137500,7.426137451171875,-0.06750058782100678,0.4044517382621765,0.410630938353762
1772555391198069500,7.436069580078125,-0.18822598535120486,0.38511882289126514,0.4724117602884769
1772555391208001500,7.44600146484375,-0.28061317714750766,0.3449671375058591,0.4794572583531961
1772555391217933300,7.455933349609375,-0.3869710266292095,0.30868469476923344,0.47699108743537216
1772555391227865300,7.465865234375,-0.4699374791294336,0.2705455182500183,0.5000198251169174
1772555391237797400,7.47579736328125,-0.5455471391260623,0.23699147756397723,0.49361525530423966
1772555391247729700,7.485729736328125,-0.6434434497326612,0.21231369403377173,0.4692124893231317
1772555391257661700,7.49566162109375,-0.7458183670580387,0.16916414200663565,0.49522185025066134
1772555391267593700,7.50559375,-0.7651713023036718,0.1055610000155866,0.562731425095722
1772555391277525500,7.515525390625,-0.768652714678645,0.0637540947690606,0.5704031287673861
1772555391287457500,7.52545751953125,-0.696174922966957,0.03410743678510189,0.5281628370722755
1772555391297389600,7.5353896484375,-0.5713099414139986,-0.0019641396798193455,0.5038933420820162
1772555391307321600,7.545321533203125,-0.43635260491371153,-0.034117665918171405,0.5060632334670052
1772555391317253600,7.555253662109375,-0.30718145059943197,-0.09414178037866949,0.5070712049331516
1772555391327185700,7.565185546875,-0.1629974360704422,-0.16396452753692864,0.5040677122682332
1772555391337117400,7.575117431640625,-0.0327782340079546,-0.20184578377231954,0.4914124845629558
1772555391347049500,7.585049560546875,0.03939326823353767,-0.21738339851349592,0.4472126197652891
1772555391356981500,7.5949814453125,0.03194178318381309,-0.21717983876541255,0.33038660429380834
1772555391366912300,7.604912353515625,-0.06719196026325225,-0.2504831195607781,0.245914916596096
1772555391376844300,7.61484423828125,-0.12861702756285667,-0.2987435848608613,0.23445541974771766
1772555391386776300,7.6247763671875,-0.23251520893275737,-0.32999197895303367,0.17909399986863137
1772555391396708400,7.634708251953125,-0.36748891204595563,-0.3068206544630229,0.08290922415396199
1772555391406640400,7.644640380859375,-0.5594242733091116,-0.24398557423502204,0.0004466980213066563
1772555391416572400,7.654572509765625,-0.7563795085608959,-0.16786708793342112,-0.03123438839970622
1772555391426504400,7.66450439453125,-0.9206307440847158,-0.07253317516073585,-0.06870294021493754
1772555391436436200,7.674436279296875,-1.0678823294907807,0.02562880064472556,-0.0632522553273011
1772555391446368300,7.6843681640625,-1.1723235316962004,0.0828010328054428,-0.08375921944626606
1772555391456300300,7.69430029296875,-1.2350801398605107,0.1662494236037135,-0.07320772255458868
1772555391466232300,7.704232421875,-1.1952514028191565,0.29419863490760323,-0.058497087556309994
1772555391476164400,7.714164306640625,-1.052600004684925,0.33765213831737634,-0.09017088572001083
1772555391486096400,7.724096435546875,-0.7425923907488584,0.37990386472195387,-0.02627013075556606
1772555391496028200,7.734028076171875,-0.3678086455196142,0.46714024962633843,-0.07742211624607444
1772555391505960200,7.743960205078125,0.07589023050367832,0.5629236597321927,-0.10642474070545285
1772555391515892200,7.753892333984375,0.5042173498719931,0.6229512813240289,-0.0659085876555182
1772555391525824300,7.76382421875,0.8815537021934986,0.6198479084812104,-0.0799473969399929
1772555391535756300,7.77375634765625,1.1190601435422898,0.6191171099886298,-0.09578518193783238
1772555391545688000,7.78368798828125,1.218587270221114,0.6202220024906099,-0.11488549412926659
1772555391555620000,7.7936201171875,1.170295240738988,0.6186445240408182,-0.13935290457811206
1772555391565552000,7.80355224609375,1.0273884065389634,0.6205472889222204,-0.1432160097470507
1772555391575484200,7.813484130859375,0.8901794917196035,0.6055370590560137,-0.028681795007176696
1772555391585416200,7.823416259765625,0.7417056710422039,0.5831177219770849,0.008141750602517277
1772555391595348500,7.833348388671875,0.6179542036890984,0.5903682776272297,-0.00009575199205428361
1772555391605280300,7.8432802734375,0.5460509969949722,0.5493649438485503,0.0022837452893145383
1772555391615212300,7.85321240234375,0.5144622650325298,0.48055093534141774,0.013199289720412344
1772555391625144300,7.863144287109375,0.47729310258924956,0.4022947063587606,0.049320806274283674
1772555391635076400,7.873076416015625,0.3951981722265482,0.34315088186413045,0.09836834856513887
1772555391645007400,7.88300732421875,0.24176234522759912,0.3180088418230414,0.09226650629239157
1772555391654939100,7.892939208984375,0.010953355690836906,0.3392071126744151,0.04701139682075008
1772555391664871200,7.90287109375,-0.19382570505440233,0.348120194709301,0.044613158306293185
1772555391674803200,7.91280322265625,-0.3341740869432688,0.2886348633006215,0.11599592132288962
1772555391684735200,7.9227353515625,-0.3914332667350769,0.20326880231276154,0.1931321332996711
1772555391694667300,7.932667236328125,-0.4043763349384069,0.14756138200759886,0.22662282642591744
1772555391704599300,7.942599365234375,-0.3753425481557846,0.11287000785470008,0.27560192485675217
1772555391714531000,7.952531005859375,-0.3123345955789089,0.08099193755686282,0.30842735900729895
1772555391724463000,7.962463134765625,-0.19907938779890536,0.061981239877641196,0.29753300349470224
1772555391734395400,7.9723955078125,-0.036539632368087764,0.05045052269026637,0.23915450081676243
1772555391744327400,7.982327392578125,0.12294658071100711,0.04427373375147581,0.1895358258407563
1772555391754259500,7.992259521484375,0.26491408823430534,0.023994915832579136,0.14703593336138873
1772555391764191200,8.002191162109375,0.3000087824910879,0.024848610052466392,0.11453092680424451
1772555391774123300,8.012123291015625,0.2503594931811094,0.03253010446578264,0.1170044042456895
1772555391784055300,8.02205517578125,0.14370353753566742,0.028859014737606048,0.11127364204134792
1772555391793987300,8.0319873046875,0.000720130968093872,0.01935673463791609,0.11312895105183124
1772555391803919400,8.04191943359375,-0.12053016721904278,0.03445917283222079,0.0919349545167759
1772555391813851400,8.051851318359375,-0.2284048510044813,0.04980258017554879,0.06612798429355025
1772555391823783200,8.061783203125,-0.34997780527472494,0.06544555498734116,0.00033964375052601096
1772555391833715200,8.071715087890626,-0.43567280595600605,0.09483283138275146,-0.0634577056383714
1772555391843647200,8.081647216796876,-0.43105332946181296,0.08401216216087341,-0.08707315716668963
1772555391853579300,8.091579345703124,-0.4100859447568655,0.07090045939236879,-0.10487067966386675
1772555391863511300,8.10151123046875,-0.33090894766747947,0.0916156229019165,-0.1420298687024042
1772555391873443300,8.111443359375,-0.29174656558036804,0.11947685877382755,-0.18841434753015637
1772555391883375000,8.121375,-0.25246260294020173,0.14958660422489045,-0.24245474793855099
1772555391893307100,8.13130712890625,-0.13387246387302876,0.11328969457149506,-0.17010624516233802
1772555391903239200,8.1412392578125,-0.027235212928056717,0.06606105653718114,-0.05252721936646849
1772555391913171200,8.151171142578125,0.029944471886754035,0.09343874667584895,-0.047643502445518966
1772555391923102500,8.1611025390625,0.04607844508588314,0.13265256668925285,-0.27314470443036404
1772555391933034200,8.1710341796875,0.1608189229875803,0.07529986339509487,-0.3513740819387138
1772555391942966300,8.18096630859375,0.21963643813729286,0.07691855063810944,-0.11271657085865736
1772555391952898300,8.190898193359375,0.20141104561686515,0.01707373826727271,-0.11501019822116941
1772555391962830300,8.200830322265626,0.18215572552680967,-0.023019348798692225,-0.06161763072963804
1772555391972762400,8.210762451171876,0.02015489927828312,0.11285510254651307,-0.036648061178624625
1772555391982694400,8.2206943359375,-0.005171265158057213,0.10930427819713949,0.027502156768552957
