time,seconds_elapsed,z,y,x
1772555805300948700,0.06994873046875,0.01764938049018383,-0.18943430483341217,-0.2289893925189972
1772555805310880000,0.0798798828125,0.0047215973027050495,-0.18880340456962585,-0.2449694126844406
1772555805320811000,0.08981103515625,-0.0006411820650100708,-0.1813446581363678,-0.25551605224609375
1772555805330742800,0.09974267578125,0.00010024197399616241,-0.17154687643051147,-0.2638746500015259
1772555805340674000,0.109674072265625,0.006925239693373442,-0.1708812117576599,-0.26362866163253784
1772555805350606000,0.119606201171875,0.022129226475954056,-0.16801752150058746,-0.2625540494918823
1772555805360537000,0.129537109375,0.03981529921293259,-0.16100850701332092,-0.26134350895881653
1772555805370468900,0.13946875,0.060133084654808044,-0.15425845980644226,-0.24339088797569275
1772555805380399900,0.14939990234375,0.07576364278793335,-0.13574594259262085,-0.21953235566616058
1772555805390331100,0.1593310546875,0.10045886784791946,-0.11234554648399353,-0.19116489589214325
1772555805400263200,0.16926318359375,0.12750785052776337,-0.09121747314929962,-0.15993091464042664
1772555805410194000,0.17919384765625,0.15734855830669403,-0.06256718933582306,-0.1252451092004776
1772555805420126000,0.1891259765625,0.18266882002353668,-0.04195309802889824,-0.08843688666820526
1772555805430057000,0.199056884765625,0.19835908710956573,-0.05400203913450241,-0.05128152668476105
1772555805439988700,0.20898876953125,0.21192283928394318,-0.08081953227519989,-0.03229904919862747
1772555805449920000,0.218919921875,0.21742679178714752,-0.10783597826957703,-0.03867066279053688
1772555805459852000,0.22885205078125,0.23685812950134277,-0.11920379847288132,-0.07634249329566956
1772555805469783000,0.238782958984375,0.27140891551971436,-0.11269982904195786,-0.13887324929237366
1772555805479713800,0.2487138671875,0.3119439482688904,-0.1027483120560646,-0.20475873351097107
1772555805489646000,0.25864599609375,0.3502223491668701,-0.0905342623591423,-0.2684447765350342
1772555805499577000,0.2685771484375,0.379314124584198,-0.06640776991844177,-0.33971989154815674
1772555805509508900,0.2785087890625,0.40809759497642517,-0.02858581952750683,-0.4026147127151489
1772555805519440000,0.28843994140625,0.44174253940582275,0.04050400108098984,-0.4505138397216797
1772555805529372000,0.298371826171875,0.4814603924751282,0.14355501532554626,-0.4624437391757965
1772555805539303200,0.30830322265625,0.5294020175933838,0.22189664840698242,-0.43667712807655334
1772555805549234000,0.31823388671875,0.5760723352432251,0.2673770487308502,-0.3891617953777313
1772555805559166000,0.328166015625,0.6079789400100708,0.25703656673431396,-0.3395412564277649
1772555805569097000,0.338096923828125,0.6241400837898254,0.21556715667247772,-0.28624632954597473
1772555805579028700,0.34802880859375,0.6223646402359009,0.1805400848388672,-0.21923647820949554
1772555805588960000,0.3579599609375,0.6265450119972229,0.1639011800289154,-0.12991540133953094
1772555805598892000,0.36789208984375,0.635155439376831,0.14694663882255554,-0.02376512810587883
1772555805608823000,0.377822998046875,0.6350427865982056,0.13830387592315674,0.07277152687311172
1772555805618754800,0.3877548828125,0.6319036483764648,0.13034915924072266,0.13778935372829437
1772555805628685800,0.397685791015625,0.6214922666549683,0.15279215574264526,0.17344801127910614
1772555805638617000,0.4076171875,0.6296025514602661,0.20420382916927338,0.18250292539596558
1772555805648548900,0.417548828125,0.6533507704734802,0.2735067307949066,0.16416200995445251
1772555805658479900,0.42747998046875,0.6916542649269104,0.3267773687839508,0.12617096304893494
1772555805668412000,0.437411865234375,0.7260702848434448,0.37454408407211304,0.0719391405582428
1772555805678343200,0.44734326171875,0.7569863200187683,0.40645790100097656,0.01995905488729477
1772555805688275000,0.45727490234375,0.7843726873397827,0.4371766448020935,-0.026572227478027344
1772555805698206000,0.4672060546875,0.8065932989120483,0.46641504764556885,-0.06201811134815216
1772555805708137000,0.477136962890625,0.8250710964202881,0.4946325421333313,-0.0778772309422493
1772555805718068700,0.48706884765625,0.8389818668365479,0.5075172781944275,-0.06995181739330292
1772555805728000000,0.497,0.8432125449180603,0.49759188294410706,-0.04919141158461571
1772555805737932000,0.50693212890625,0.8348788619041443,0.4658897817134857,-0.01829678937792778
1772555805747863000,0.516863037109375,0.815474271774292,0.4165478050708771,0.01371334120631218
1772555805757794800,0.526794921875,0.7900415062904358,0.36510124802589417,0.0424349382519722
1772555805767725800,0.536725830078125,0.7704949975013733,0.315351277589798,0.06772298365831375
1772555805777657900,0.546657958984375,0.7563311457633972,0.2821873426437378,0.06723227351903915
1772555805787588900,0.5565888671875,0.7359182834625244,0.2501292824745178,0.04330083727836609
1772555805797520000,0.566519775390625,0.6937544941902161,0.18657426536083221,0.007338622584939003
1772555805807451600,0.57645166015625,0.6361444592475891,0.09297320246696472,-0.04992839694023132
1772555805817383000,0.5863828125,0.5697149634361267,-0.003484121523797512,-0.12245006114244461
1772555805827315000,0.59631494140625,0.49899330735206604,-0.09147176891565323,-0.19931554794311523
1772555805837246000,0.606245849609375,0.42643988132476807,-0.16459394991397858,-0.2777276039123535
1772555805847177700,0.616177734375,0.35414037108421326,-0.20109976828098297,-0.34671252965927124
1772555805857108700,0.626108642578125,0.2781812846660614,-0.19630251824855804,-0.39908140897750854
1772555805867040800,0.636040771484375,0.203214630484581,-0.16712626814842224,-0.4401976764202118
1772555805876971800,0.6459716796875,0.1272117644548416,-0.1299697309732437,-0.4724534749984741
1772555805886902800,0.65590283203125,0.0651199072599411,-0.06949760019779205,-0.4806629419326782
1772555805896834800,0.665834716796875,0.004552042577415705,0.005685219541192055,-0.47128015756607056
1772555805906765800,0.675765869140625,-0.04156964644789696,0.08901020139455795,-0.4418807327747345
1772555805916697900,0.68569775390625,-0.07641980051994324,0.17781859636306763,-0.3993873596191406
1772555805926628900,0.69562890625,-0.10256645083427429,0.2134024202823639,-0.3408023416996002
1772555805936561000,0.705560791015625,-0.116883285343647,0.2087090164422989,-0.2943952679634094
1772555805946491600,0.71549169921875,-0.13132108747959137,0.19699349999427795,-0.25056150555610657
1772555805956423000,0.7254228515625,-0.1440112441778183,0.16692879796028137,-0.2172517329454422
1772555805966355000,0.73535498046875,-0.15998780727386475,0.10719171166419983,-0.1822119802236557
1772555805976286000,0.745285888671875,-0.16967082023620605,0.020008493214845657,-0.14827172458171844
1772555805986217700,0.7552177734375,-0.18674780428409576,-0.06742201745510101,-0.1079578548669815
1772555805996148700,0.765148681640625,-0.1964365392923355,-0.13399608433246613,-0.06780795007944107
1772555806006080800,0.775080810546875,-0.2028329223394394,-0.18120141327381134,-0.0289367213845253
1772555806016011800,0.78501171875,-0.21982525289058685,-0.20733001828193665,0.013197222724556923
1772555806025943800,0.79494384765625,-0.2379792183637619,-0.20884110033512115,0.0538162887096405
1772555806035874800,0.804874755859375,-0.25309956073760986,-0.188691183924675,0.08688828349113464
1772555806045805800,0.814805908203125,-0.26238197088241577,-0.1540445238351822,0.1098889410495758
1772555806055737900,0.82473779296875,-0.26591527462005615,-0.11200272291898727,0.12288632243871689
1772555806065668900,0.8346689453125,-0.25874045491218567,-0.07956142723560333,0.13640345633029938
1772555806075601000,0.844600830078125,-0.24987225234508514,-0.06085884943604469,0.14355888962745667
1772555806085531600,0.85453173828125,-0.24807089567184448,-0.04142123460769653,0.14951132237911224
1772555806095463700,0.864463623046875,-0.2493244856595993,-0.015435928478837013,0.15791013836860657
1772555806105395000,0.87439501953125,-0.2476179301738739,0.0191742442548275,0.16336402297019958
1772555806115326000,0.884325927734375,-0.2415580153465271,0.07000196725130081,0.16891612112522125
1772555806125257700,0.8942578125,-0.23457519710063934,0.11747441440820694,0.1870943307876587
1772555806135188700,0.904188720703125,-0.23208855092525482,0.14233677089214325,0.21327948570251465
1772555806145120800,0.914120849609375,-0.22742988169193268,0.15869496762752533,0.2296115905046463
1772555806155052000,0.924052001953125,-0.22505098581314087,0.15940320491790771,0.23000138998031616
1772555806164983800,0.93398388671875,-0.2141977995634079,0.14189797639846802,0.22042280435562134
1772555806174914800,0.943914794921875,-0.20678842067718506,0.10194341838359833,0.19730603694915771
1772555806184846800,0.953846923828125,-0.19648411870002747,0.03950534760951996,0.16631881892681122
1772555806194777600,0.963777587890625,-0.18541210889816284,-0.047132447361946106,0.12659229338169098
1772555806204708900,0.973708984375,-0.1832544058561325,-0.14542360603809357,0.08050521463155746
1772555806214641000,0.983640869140625,-0.18299035727977753,-0.24187444150447845,0.04931230470538139
1772555806224572000,0.993572021484375,-0.19083017110824585,-0.31486397981643677,0.038599736988544464
1772555806234503700,1.003503662109375,-0.20361116528511047,-0.3766835033893585,0.054098159074783325
1772555806244435000,1.01343505859375,-0.2044559270143509,-0.4102318584918976,0.09401948004961014
1772555806254367000,1.023366943359375,-0.19308075308799744,-0.4157311022281647,0.14267770946025848
1772555806264297700,1.033297607421875,-0.1698249727487564,-0.39818114042282104,0.17800907790660858
1772555806274228700,1.043228759765625,-0.14575400948524475,-0.39065277576446533,0.18540135025978088
1772555806284160800,1.053160888671875,-0.12368812412023544,-0.3444402813911438,0.17680013179779053
1772555806294092000,1.063092041015625,-0.10015290230512619,-0.2975667715072632,0.16361777484416962
1772555806304023800,1.07302392578125,-0.06889324635267258,-0.2575373351573944,0.14597539603710175
1772555806313954800,1.082954833984375,-0.026207808405160904,-0.2342066615819931,0.12500488758087158
1772555806323886800,1.092886962890625,0.012661293148994446,-0.22366267442703247,0.10136453807353973
1772555806333817600,1.102817626953125,0.048282474279403687,-0.21430087089538574,0.07459952682256699
1772555806343750000,1.11275,0.07577987760305405,-0.2108616679906845,0.062094658613204956
1772555806353681000,1.122680908203125,0.08746448159217834,-0.22412438690662384,0.06756028532981873
1772555806363612000,1.13261181640625,0.09580470621585846,-0.21930566430091858,0.08296853303909302
1772555806373543700,1.142543701171875,0.10715329647064209,-0.26219987869262695,0.10198511928319931
1772555806383475000,1.152474853515625,0.11353369802236557,-0.3033483624458313,0.10737642645835876
1772555806393407000,1.162406982421875,0.12388242781162262,-0.30495887994766235,0.08121205866336823
1772555806403337700,1.172337646484375,0.14651742577552795,-0.28347355127334595,0.025569841265678406
1772555806413269800,1.182269775390625,0.1887236386537552,-0.24428987503051758,-0.06637785583734512
1772555806423200800,1.19220068359375,0.2539585530757904,-0.20540958642959595,-0.1812671571969986
1772555806433132000,1.202132080078125,0.2953553795814514,-0.1745808720588684,-0.2934283912181854
1772555806443063800,1.212063720703125,0.3229827284812927,-0.12544235587120056,-0.4061136543750763
1772555806452994800,1.221994873046875,0.3375815749168396,-0.05398666858673096,-0.5142425894737244
1772555806462926800,1.2319267578125,0.3464112877845764,0.014461364597082138,-0.6142584085464478
1772555806472857600,1.241857666015625,0.3405316472053528,0.05386246740818024,-0.7074019312858582
1772555806482789600,1.25178955078125,0.3178577423095703,0.09644188731908798,-0.7898728251457214
1772555806492721000,1.261720947265625,0.2906877100467682,0.15064315497875214,-0.8623501658439636
1772555806502652000,1.27165185546875,0.2768717408180237,0.20478229224681854,-0.9236454963684082
1772555806512583700,1.281583740234375,0.25947415828704834,0.2581622302532196,-0.9306157231330872
1772555806522515000,1.291514892578125,0.2128440886735916,0.26709794998168945,-0.8781735897064209
1772555806532447000,1.301447021484375,0.16477182507514954,0.24131594598293304,-0.7826815843582153
1772555806542377700,1.311377685546875,0.11465433239936829,0.17382986843585968,-0.6595130562782288
1772555806552309800,1.321309814453125,0.06327861547470093,0.04764483869075775,-0.5396590232849121
1772555806562240800,1.33124072265625,0.03013664297759533,-0.08273207396268845,-0.4479634463787079
1772555806572172800,1.3411728515625,0.018268167972564697,-0.19902250170707703,-0.39661720395088196
1772555806582103800,1.351103759765625,0.020733721554279327,-0.30259522795677185,-0.3657056391239166
1772555806592034800,1.361034912109375,0.03008567914366722,-0.3314870595932007,-0.3436006009578705
1772555806601966800,1.370966796875,0.03880566731095314,-0.35111004114151,-0.33235618472099304
1772555806611897900,1.38089794921875,0.05281505361199379,-0.3176388740539551,-0.3179173171520233
1772555806621829600,1.39082958984375,0.06441924721002579,-0.2569238543510437,-0.2889842092990875
1772555806631761000,1.400760986328125,0.06132380664348602,-0.18082177639007568,-0.2303825467824936
1772555806641693000,1.41069287109375,0.062371231615543365,-0.09298992156982422,-0.16350550949573517
1772555806651623700,1.420623779296875,0.07247074693441391,-0.024545151740312576,-0.09270069748163223
1772555806661554700,1.4305546875,0.09618645906448364,0.01364138163626194,-0.03201790899038315
1772555806671487000,1.440487060546875,0.15580841898918152,0.04318822920322418,-0.00823274813592434
1772555806681418000,1.45041796875,0.2470533847808838,-0.001036754809319973,-0.02381729893386364
1772555806691349800,1.460349853515625,0.3151358366012573,-0.11065846681594849,-0.05603669211268425
1772555806701280800,1.47028076171875,0.3789142966270447,-0.18863315880298615,-0.12113447487354279
1772555806711212800,1.480212890625,0.4403549134731293,-0.22594109177589417,-0.16368985176086426
1772555806721143800,1.490143798828125,0.5048345923423767,-0.22947749495506287,-0.16584542393684387
1772555806731075800,1.500075927734375,0.5411873459815979,-0.22934621572494507,-0.13928355276584625
1772555806741006800,1.5100068359375,0.5390357375144958,-0.24295470118522644,-0.1178315207362175
1772555806750937900,1.519937744140625,0.5107563138008118,-0.26675164699554443,-0.12932710349559784
1772555806760869600,1.52986962890625,0.4654695689678192,-0.27481013536453247,-0.17496782541275024
1772555806770800600,1.539800537109375,0.40898770093917847,-0.2564210295677185,-0.2411409467458725
1772555806780732700,1.549732666015625,0.35331857204437256,-0.2044036090373993,-0.30940312147140503
1772555806790663700,1.55966357421875,0.2965488135814667,-0.14651498198509216,-0.3575250506401062
1772555806800595700,1.569595703125,0.2393728792667389,-0.12606748938560486,-0.3461219370365143
1772555806810526700,1.579526611328125,0.17638957500457764,-0.13943175971508026,-0.27785876393318176
1772555806820457700,1.589457763671875,0.11789005249738693,-0.19512617588043213,-0.16626593470573425
1772555806830389800,1.5993896484375,0.054033227264881134,-0.29696744680404663,-0.04260050505399704
1772555806840320500,1.609320556640625,-0.03281698003411293,-0.39720696210861206,0.07710166275501251
1772555806850252500,1.61925244140625,-0.10985852032899857,-0.42896953225135803,0.14851579070091248
1772555806860183800,1.629183837890625,-0.14569056034088135,-0.36978209018707275,0.17792534828186035
1772555806870115800,1.63911572265625,-0.18705019354820251,-0.3042412996292114,0.2067994773387909
1772555806880046600,1.649046630859375,-0.24144233763217926,-0.18665234744548798,0.2388266623020172
1772555806889977600,1.6589775390625,-0.288442462682724,0.010600987821817398,0.2698545753955841
1772555806899909600,1.66890966796875,-0.31595903635025024,0.21812115609645844,0.2825098931789398
1772555806909841000,1.6788408203125,-0.31305235624313354,0.3706270754337311,0.25681832432746887
1772555806919772700,1.688772705078125,-0.28741729259490967,0.46544361114501953,0.14633923768997192
1772555806929703700,1.69870361328125,-0.23503491282463074,0.48629072308540344,-0.05827738717198372
1772555806939635700,1.7086357421875,-0.17342720925807953,0.40035369992256165,-0.3194037675857544
1772555806949566700,1.718566650390625,-0.1155242770910263,0.33846360445022583,-0.5840852856636047
1772555806959498800,1.728498779296875,-0.08774297684431076,0.35002970695495605,-0.8102483749389648
1772555806969429800,1.7384296875,-0.05204356834292412,0.3316836953163147,-0.9450808763504028
1772555806979360800,1.74836083984375,0.0042149075306952,0.24810542166233063,-0.9738557934761047
1772555806989292500,1.75829248046875,0.061041828244924545,0.17307546734809875,-0.9458203315734863
1772555806999223800,1.768223876953125,0.11436230689287186,0.1277625858783722,-0.8812573552131653
1772555807009155800,1.77815576171875,0.15943841636180878,0.07439272105693817,-0.7881938219070435
1772555807019086600,1.788086669921875,0.19859381020069122,0.03335341066122055,-0.6847249865531921
1772555807029018600,1.7980185546875,0.22892513871192932,0.0012739244848489761,-0.5667809247970581
1772555807038949600,1.80794970703125,0.23603151738643646,-0.02752763032913208,-0.4472382366657257
1772555807048881000,1.817880859375,0.2175443470478058,-0.04654557257890701,-0.3225450813770294
1772555807058812700,1.827812744140625,0.20123568177223206,-0.05628075450658798,-0.19253835082054138
1772555807068743700,1.83774365234375,0.1841055005788803,-0.07225513458251953,-0.05652178078889847
1772555807078675700,1.84767578125,0.16832122206687927,-0.08818776160478592,0.06334150582551956
1772555807088606700,1.857606689453125,0.15439444780349731,-0.09356603026390076,0.15538902580738068
1772555807098538800,1.867538818359375,0.1436254233121872,-0.0907318964600563,0.2053227573633194
1772555807108469800,1.8774697265625,0.13330981135368347,-0.08942323178052902,0.22270312905311584
1772555807118400800,1.88740087890625,0.1226467713713646,-0.0712471604347229,0.21887724101543427
1772555807128332500,1.89733251953125,0.11335352063179016,-0.04725572466850281,0.19442681968212128
1772555807138263800,1.907263916015625,0.1137751042842865,-0.01804404705762863,0.15470071136951447
1772555807148195800,1.91719580078125,0.1234159842133522,0.025381477549672127,0.1043204516172409
1772555807158126600,1.927126708984375,0.13927669823169708,0.07194925099611282,0.04627126455307007
1772555807168058600,1.93705859375,0.1481301188468933,0.11902987211942673,-0.01640048623085022
1772555807177989600,1.94698974609375,0.14157713949680328,0.1532357782125473,-0.060664355754852295
1772555807187921700,1.956921630859375,0.11547169834375381,0.16421626508235931,-0.07519511133432388
1772555807197852700,1.966852783203125,0.08763234317302704,0.1738041788339615,-0.07422598451375961
1772555807207783700,1.97678369140625,0.05539790913462639,0.19351956248283386,-0.04918164759874344
1772555807217715700,1.9867158203125,0.02544241212308407,0.2394537627696991,-0.006844577379524708
1772555807227646500,1.996646484375,0.0103929303586483,0.28591468930244446,0.0369977131485939
1772555807237578800,2.006578857421875,0.014757584780454636,0.34245574474334717,0.06488500535488129
1772555807247509800,2.016509765625,0.0490889772772789,0.41304075717926025,0.06195610389113426
1772555807257441800,2.02644189453125,0.09243325889110565,0.4865932762622833,0.004301329609006643
1772555807267372500,2.03637255859375,0.12938448786735535,0.5480040907859802,-0.08978608250617981
1772555807277303800,2.0463037109375,0.15678896009922028,0.568714439868927,-0.20636782050132751
1772555807287235800,2.05623583984375,0.1537388116121292,0.5412681102752686,-0.3168983459472656
1772555807297166600,2.06616650390625,0.13320770859718323,0.47735413908958435,-0.3868579864501953
1772555807307098600,2.0760986328125,0.10116283595561981,0.4005199074745178,-0.3918428122997284
1772555807317029600,2.086029541015625,0.062178947031497955,0.30852848291397095,-0.30763179063796997
1772555807326961700,2.095961669921875,0.016699641942977905,0.2194172888994217,-0.1524839997291565
1772555807336892700,2.105892578125,-0.03080129809677601,0.1596096158027649,0.0615617111325264
1772555807346823700,2.11582373046875,-0.06135156378149986,0.09517323970794678,0.28596943616867065
1772555807356755700,2.125755615234375,-0.06551674753427505,0.035046257078647614,0.4751758575439453
1772555807366686700,2.135686767578125,-0.047216448932886124,-0.0021508336067199707,0.5963367223739624
1772555807376618500,2.145618408203125,-0.0168063435703516,-0.019581755623221397,0.6637120246887207
1772555807386549800,2.1555498046875,0.010674240067601204,-0.020723672583699226,0.6844772696495056
1772555807396481800,2.165481689453125,0.03549889475107193,-0.017573419958353043,0.6630808711051941
1772555807406412500,2.17541259765625,0.06425847113132477,0.005599047988653183,0.5965540409088135
1772555807416343800,2.18534375,0.08734913915395737,0.03446478396654129,0.5065463781356812
1772555807426275800,2.19527587890625,0.09997744858264923,0.05512559413909912,0.39106664061546326
1772555807436206800,2.205206787109375,0.11247699707746506,0.0474354550242424,0.2536640465259552
1772555807446138600,2.215138671875,0.12359476089477539,0.036232057958841324,0.10964086651802063
1772555807456069600,2.225069580078125,0.1471075415611267,0.021670691668987274,-0.028478655964136124
1772555807466001700,2.235001708984375,0.18712706863880157,0.005406772717833519,-0.13149267435073853
1772555807475932700,2.2449326171875,0.2286342978477478,-0.023850183933973312,-0.190016970038414
1772555807485864700,2.25486474609375,0.25977659225463867,-0.05311748385429382,-0.20540973544120789
1772555807495795700,2.264795654296875,0.26400408148765564,-0.058975107967853546,-0.17765800654888153
1772555807505726700,2.274726806640625,0.2583271265029907,-0.049017179757356644,-0.13175293803215027
1772555807515658500,2.284658447265625,0.25606316328048706,-0.013722039759159088,-0.07771233469247818
1772555807525589800,2.29458984375,0.2586557865142822,0.03308359161019325,-0.029363956302404404
1772555807535521800,2.304521728515625,0.26956701278686523,0.07451998442411423,0.007960779592394829
1772555807545452500,2.31445263671875,0.2767011225223541,0.10648461431264877,0.017011553049087524
1772555807555384600,2.324384521484375,0.27296149730682373,0.12097512930631638,0.005952776875346899
1772555807565315800,2.33431591796875,0.262716680765152,0.11801320314407349,-0.028314337134361267
1772555807575246800,2.344246826171875,0.2458098977804184,0.09111128747463226,-0.07120880484580994
1772555807585178600,2.3541787109375,0.22053882479667664,0.04592641443014145,-0.11653479188680649
1772555807595109600,2.364109619140625,0.1894024759531021,-0.0016688015311956406,-0.15180328488349915
1772555807605041700,2.374041748046875,0.15229082107543945,-0.035570669919252396,-0.18087278306484222
1772555807614972700,2.38397265625,0.11528699845075607,-0.04337426275014877,-0.2003657966852188
1772555807624904700,2.39390478515625,0.08419609814882278,-0.03485710918903351,-0.2054055631160736
1772555807634835700,2.403835693359375,0.053404632955789566,-0.019294926896691322,-0.18373195827007294
1772555807644766700,2.4137666015625,0.021920273080468178,-0.0006730314344167709,-0.14216062426567078
1772555807654698500,2.423698486328125,-0.011036345735192299,0.015432434156537056,-0.07123184204101562
1772555807664629800,2.433629638671875,-0.038378436118364334,0.021445725113153458,0.011687252670526505
1772555807674561800,2.443561767578125,-0.06286752969026566,0.03127278760075569,0.09472488611936569
1772555807684492500,2.453492431640625,-0.08108837157487869,0.04036637395620346,0.16952534019947052
1772555807694424600,2.463424560546875,-0.09959148615598679,0.0512472540140152,0.21206320822238922
1772555807704355800,2.47335595703125,-0.10734495520591736,0.05961232632398605,0.2267090380191803
1772555807714287900,2.483287841796875,-0.10856388509273529,0.06200064718723297,0.20920966565608978
1772555807724218600,2.493218505859375,-0.10799390077590942,0.05326813459396362,0.1766408383846283
1772555807734149600,2.503149658203125,-0.10199912637472153,0.030704505741596222,0.14035099744796753
1772555807744081700,2.51308154296875,-0.0810653418302536,0.010516878217458725,0.08568710833787918
1772555807754012700,2.5230126953125,-0.0575869120657444,-0.007920718751847744,0.031089380383491516
1772555807763944700,2.53294482421875,-0.039450205862522125,-0.03149726614356041,-0.02079923078417778
1772555807773876000,2.5428759765625,-0.018219487741589546,-0.046982213854789734,-0.06811081618070602
1772555807783808000,2.55280810546875,-0.0013832971453666687,-0.05222266912460327,-0.1026867926120758
1772555807793738800,2.56273876953125,0.014091267250478268,-0.05431484803557396,-0.12530848383903503
1772555807803670000,2.572669921875,0.029104379937052727,-0.06347726285457611,-0.1447264850139618
1772555807813602000,2.58260205078125,0.03678493574261665,-0.0765957236289978,-0.16181892156600952
1772555807823533000,2.592532958984375,0.03881220892071724,-0.0843125730752945,-0.17679181694984436
1772555807833464800,2.60246484375,0.030054669827222824,-0.08069227635860443,-0.19118167459964752
1772555807843395800,2.612395751953125,0.012996579520404339,-0.06908601522445679,-0.20041826367378235
1772555807853328000,2.622327880859375,-0.010317530483007431,-0.048932548612356186,-0.1996840238571167
1772555807863259000,2.6322587890625,-0.029894353821873665,-0.026697950437664986,-0.1798495352268219
1772555807873190000,2.64218994140625,-0.05531369149684906,-0.01908024400472641,-0.1387913078069687
1772555807883122000,2.652121826171875,-0.08154144138097763,-0.01965947262942791,-0.08362637460231781
1772555807893053000,2.662052978515625,-0.09734010696411133,-0.027148015797138214,-0.02116139978170395
1772555807902985000,2.67198486328125,-0.10264462232589722,-0.028830641880631447,0.04125641658902168
1772555807912916000,2.681916015625,-0.1055394783616066,-0.0202960092574358,0.10159379988908768
1772555807922848000,2.691847900390625,-0.11091860383749008,0.008211338892579079,0.1515316218137741
1772555807932778800,2.70177880859375,-0.13222230970859528,0.04954386502504349,0.19269131124019623
1772555807942710800,2.711710693359375,-0.16736851632595062,0.08391983807086945,0.21724393963813782
1772555807952642000,2.72164208984375,-0.20735321938991547,0.10577186942100525,0.23062658309936523
1772555807962573000,2.731572998046875,-0.2421664446592331,0.11281445622444153,0.22303959727287292
1772555807972504800,2.7415048828125,-0.2802320718765259,0.10909481346607208,0.20884202420711517
1772555807982435800,2.751435791015625,-0.3087902367115021,0.09821024537086487,0.1898728460073471
1772555807992367900,2.761367919921875,-0.3415369987487793,0.0824776291847229,0.1907932311296463
1772555808002299100,2.771299072265625,-0.37525004148483276,0.07329945266246796,0.2274308204650879
1772555808012231000,2.78123095703125,-0.41073882579803467,0.06719495356082916,0.2920268476009369
1772555808022162000,2.791161865234375,-0.4398028254508972,0.06164880469441414,0.38161444664001465
1772555808032093000,2.801093017578125,-0.4693974554538727,0.07793563604354858,0.47323891520500183
1772555808042025000,2.81102490234375,-0.5044029951095581,0.11952762305736542,0.5394403338432312
1772555808051956000,2.8209560546875,-0.5390081405639648,0.1675148606300354,0.5596351027488708
1772555808061888000,2.830887939453125,-0.5616863369941711,0.23438048362731934,0.5067665576934814
1772555808071819000,2.840819091796875,-0.569911777973175,0.33260586857795715,0.37056583166122437
1772555808081750800,2.850750732421875,-0.5462456941604614,0.4355224668979645,0.1475304365158081
1772555808091682000,2.86068212890625,-0.5054311752319336,0.4961695671081543,-0.12061738967895508
1772555808101613000,2.870613037109375,-0.4321977496147156,0.49360111355781555,-0.340579092502594
1772555808111544800,2.880544921875,-0.3497343063354492,0.4020616114139557,-0.44607168436050415
1772555808121475800,2.890475830078125,-0.2834458351135254,0.2634083926677704,-0.4259299337863922
1772555808131408000,2.900407958984375,-0.24137720465660095,0.12434586137533188,-0.28394296765327454
1772555808141339100,2.910339111328125,-0.22556152939796448,0.01979007199406624,-0.05648856237530708
1772555808151271000,2.92027099609375,-0.2305871844291687,-0.035348281264305115,0.20911648869514465
1772555808161202000,2.930201904296875,-0.24165049195289612,-0.04355628043413162,0.46002304553985596
1772555808171133000,2.9401328125,-0.2463855892419815,-0.027670789510011673,0.6571225523948669
1772555808181065000,2.95006494140625,-0.23746071755886078,0.002433422952890396,0.7788906693458557
1772555808190996000,2.959995849609375,-0.21101313829421997,0.03459934890270233,0.8109274506568909
1772555808200928000,2.969927978515625,-0.18165156245231628,0.04273735359311104,0.7607041597366333
1772555808210859000,2.97985888671875,-0.15034742653369904,0.040854498744010925,0.6451423764228821
1772555808220790800,2.989790771484375,-0.1205500140786171,0.032057978212833405,0.4870431423187256
1772555808230722000,2.99972216796875,-0.10346584022045135,0.04079980403184891,0.3057255744934082
1772555808240654000,3.009654052734375,-0.09206841140985489,0.06734222918748856,0.12867067754268646
1772555808250584800,3.019584716796875,-0.08650773018598557,0.09982267767190933,-0.02344401553273201
1772555808260515800,3.029515869140625,-0.08630356192588806,0.11931405961513519,-0.14289171993732452
1772555808270447900,3.03944775390625,-0.0909784734249115,0.12079425156116486,-0.22507953643798828
1772555808280379100,3.049379150390625,-0.09067294746637344,0.09990279376506805,-0.2783857583999634
1772555808290311000,3.059310791015625,-0.0767134502530098,0.0460645966231823,-0.3133823573589325
1772555808300242000,3.069241943359375,-0.049565453082323074,-0.030793966725468636,-0.34415334463119507
1772555808310174000,3.079174072265625,-0.012786133214831352,-0.12527519464492798,-0.38403230905532837
1772555808320105000,3.08910498046875,0.021309638395905495,-0.22209107875823975,-0.4222943186759949
1772555808330036000,3.099035888671875,0.04752233251929283,-0.30532845854759216,-0.4501056969165802
1772555808339968000,3.108968017578125,0.051043298095464706,-0.375575453042984,-0.45170947909355164
1772555808349899000,3.11889892578125,0.03149596229195595,-0.4244071841239929,-0.419113427400589
1772555808359830800,3.128830810546875,-0.010180643759667873,-0.4586428999900818,-0.3406252861022949
1772555808369762000,3.138761962890625,-0.049646295607089996,-0.4716876149177551,-0.23805415630340576
1772555808379694000,3.148694091796875,-0.0870005413889885,-0.4577934145927429,-0.12250067293643951
1772555808389624800,3.158624755859375,-0.11804421246051788,-0.4278552234172821,-0.010146960616111755
1772555808399555800,3.168555908203125,-0.1400931179523468,-0.37629181146621704,0.07339923828840256
1772555808409488000,3.17848779296875,-0.15503184497356415,-0.3224530816078186,0.13091233372688293
1772555808419419100,3.188419189453125,-0.1687798649072647,-0.26655614376068115,0.1584218591451645
1772555808429351000,3.198350830078125,-0.18462087213993073,-0.20902174711227417,0.15944185853004456
1772555808439282000,3.208281982421875,-0.2034597545862198,-0.16786998510360718,0.13535529375076294
1772555808449214000,3.2182138671875,-0.22337567806243896,-0.14146661758422852,0.09202459454536438
1772555808459145000,3.22814501953125,-0.24006730318069458,-0.11572156846523285,0.04213559627532959
1772555808469076000,3.238075927734375,-0.24838462471961975,-0.08773573487997055,-0.00787137821316719
1772555808479008000,3.248008056640625,-0.25564271211624146,-0.0652637928724289,-0.027729064226150513
1772555808488939000,3.25793896484375,-0.2555505931377411,-0.03811473026871681,-0.024359632283449173
1772555808498870800,3.267870849609375,-0.2462444305419922,-0.013772241771221161,0.005522858817130327
1772555808508802000,3.277802001953125,-0.22213323414325714,0.012569351121783257,0.03422374650835991
1772555808518734000,3.287734130859375,-0.19983543455600739,0.03589170426130295,0.05083110183477402
1772555808528665000,3.2976650390625,-0.18330278992652893,0.06211557984352112,0.04742598533630371
1772555808538596900,3.307596923828125,-0.16886559128761292,0.08130519092082977,0.023880578577518463
1772555808548527900,3.31752783203125,-0.16175255179405212,0.08928295224905014,-0.01578640565276146
1772555808558459100,3.327459228515625,-0.1495235413312912,0.10897006094455719,-0.07178176194429398
1772555808568391000,3.337390869140625,-0.13077755272388458,0.11510039865970612,-0.13266003131866455
1772555808578322000,3.347322021484375,-0.10447881370782852,0.1098761111497879,-0.18144166469573975
1772555808588254000,3.35725390625,-0.07970662415027618,0.08880837261676788,-0.2171591818332672
1772555808598185000,3.36718505859375,-0.04285169765353203,0.07172635942697525,-0.23817329108715057
1772555808608117000,3.377116943359375,-0.013466378673911095,0.042197760194540024,-0.23967930674552917
1772555808618048000,3.387048095703125,0.009647857397794724,-0.01208357885479927,-0.22593611478805542
1772555808627979000,3.39697900390625,0.027249222621321678,-0.07362683117389679,-0.1994429975748062
1772555808637910800,3.406910888671875,0.04019249975681305,-0.13138052821159363,-0.1677064746618271
1772555808647842000,3.416842041015625,0.044390708208084106,-0.1867889165878296,-0.13513149321079254
1772555808657774000,3.426774169921875,0.04270610213279724,-0.21716739237308502,-0.11098085343837738
1772555808667705000,3.436705078125,0.04154469817876816,-0.22331422567367554,-0.09534863382577896
1772555808677636900,3.446636962890625,0.03463064879179001,-0.21136793494224548,-0.085593581199646
1772555808687568000,3.45656787109375,0.027506958693265915,-0.17871864140033722,-0.0716194435954094
1772555808697499100,3.4664990234375,0.021181810647249222,-0.1344827264547348,-0.043821677565574646
1772555808707431000,3.476430908203125,0.009934483096003532,-0.08134760707616806,-0.009712977334856987
1772555808717362000,3.48636181640625,0.00012361491098999977,-0.013963660225272179,0.02146369405090809
1772555808727294000,3.4962939453125,-0.007509537506848574,0.05601941794157028,0.0437929667532444
1772555808737225000,3.506224853515625,-0.005537881050258875,0.12057964503765106,0.039206117391586304
1772555808747156700,3.51615673828125,-0.001571369357407093,0.18463294208049774,0.01024317741394043
1772555808757088000,3.526087890625,0.010470287874341011,0.2330102175474167,-0.03571115806698799
1772555808767020000,3.53602001953125,0.0344051830470562,0.2696470618247986,-0.09051821380853653
1772555808776950500,3.545950439453125,0.05639252811670303,0.2990833520889282,-0.14356771111488342
1772555808786881800,3.5558818359375,0.07921794801950455,0.3052211403846741,-0.1668354868888855
1772555808796813800,3.565813720703125,0.08918289840221405,0.29309338331222534,-0.16301414370536804
1772555808806744800,3.575744873046875,0.09392998367547989,0.2620140314102173,-0.14506471157073975
1772555808816676600,3.585676513671875,0.10359884798526764,0.21391341090202332,-0.11861807107925415
1772555808826607600,3.595607666015625,0.1119726225733757,0.156294584274292,-0.10817128419876099
1772555808836539600,3.60553955078125,0.13579152524471283,0.07340410351753235,-0.10820146650075912
1772555808846470700,3.615470703125,0.16122443974018097,-0.013396834954619408,-0.11529692262411118
1772555808856401700,3.625401611328125,0.19042839109897614,-0.06971009075641632,-0.12372714281082153
1772555808866333700,3.635333740234375,0.20631733536720276,-0.10815974324941635,-0.12320515513420105
1772555808876264700,3.6452646484375,0.20636676251888275,-0.12551766633987427,-0.10656300187110901
1772555808886196700,3.65519677734375,0.1983218938112259,-0.13767418265342712,-0.07799660414457321
1772555808896127700,3.665127685546875,0.18154940009117126,-0.14314262568950653,-0.02674977108836174
1772555808906059800,3.675059814453125,0.1649872064590454,-0.15231269598007202,0.04166390746831894
1772555808915990500,3.684990478515625,0.1584671586751938,-0.15760129690170288,0.11956121027469635
1772555808925922600,3.694922607421875,0.17035363614559174,-0.17007634043693542,0.2067461758852005
1772555808935853800,3.704853759765625,0.19226506352424622,-0.18030081689357758,0.2739748954772949
1772555808945784800,3.714784912109375,0.22387465834617615,-0.17878280580043793,0.3234204947948456
1772555808955716600,3.724716552734375,0.25064900517463684,-0.1576801836490631,0.3355479836463928
1772555808965647600,3.734647705078125,0.2611581087112427,-0.14319738745689392,0.31752026081085205
1772555808975579600,3.74457958984375,0.2525109648704529,-0.1327473372220993,0.26764675974845886
1772555808985510700,3.7545107421875,0.23483794927597046,-0.1061016097664833,0.20859356224536896
1772555808995442700,3.764442626953125,0.20374521613121033,-0.06397280097007751,0.15240509808063507
1772555809005373700,3.774373779296875,0.16930575668811798,-0.021961962804198265,0.12225892394781113
1772555809015304700,3.7843046875,0.13678017258644104,0.01216936856508255,0.1297943890094757
1772555809025236500,3.794236572265625,0.09758136421442032,0.04269132390618324,0.16340480744838715
1772555809035167700,3.804167724609375,0.05483618378639221,0.06872331351041794,0.2275732308626175
1772555809045099800,3.814099853515625,0.020208431407809258,0.08462531119585037,0.3129046559333801
1772555809055030500,3.824030517578125,-0.011171458289027214,0.07208794355392456,0.3980161249637604
1772555809064962600,3.833962646484375,-0.045846082270145416,0.03412884101271629,0.4613247811794281
1772555809074893800,3.843893798828125,-0.07929162681102753,-0.02639038860797882,0.49622365832328796
1772555809084825900,3.853825927734375,-0.11143545061349869,-0.09659184515476227,0.5036871433258057
1772555809094756600,3.863756591796875,-0.13515529036521912,-0.16205082833766937,0.48682931065559387
1772555809104687600,3.8736875,-0.14156338572502136,-0.2454991191625595,0.4525171220302582
1772555809114619600,3.88361962890625,-0.13737240433692932,-0.3132002353668213,0.4099600315093994
1772555809124551000,3.893551025390625,-0.1196347028017044,-0.34746259450912476,0.35087594389915466
1772555809134482700,3.903482666015625,-0.10168922692537308,-0.36397022008895874,0.289685994386673
1772555809144413700,3.91341357421875,-0.09384728223085403,-0.35270529985427856,0.22963252663612366
1772555809154345700,3.923345703125,-0.09031371027231216,-0.2954096794128418,0.15908022224903107
1772555809164276500,3.9332763671875,-0.08576130121946335,-0.20550163090229034,0.08439426124095917
1772555809174207700,3.943207763671875,-0.08972813934087753,-0.10136331617832184,0.010514306835830212
1772555809184139800,3.953139892578125,-0.09382594376802444,0.003921298310160637,-0.05746714025735855
1772555809194070800,3.96307080078125,-0.08744993060827255,0.09270275384187698,-0.1291762888431549
1772555809204002600,3.97300244140625,-0.07573627680540085,0.16132628917694092,-0.19231078028678894
1772555809213933800,3.982933837890625,-0.06487904489040375,0.2210027277469635,-0.2535676062107086
1772555809223865900,3.992865966796875,-0.05568501353263855,0.2633648216724396,-0.30017799139022827
1772555809233796600,4.002796630859375,-0.057483285665512085,0.273381769657135,-0.3142201602458954
1772555809243727600,4.0127275390625,-0.05792803317308426,0.25817033648490906,-0.28624606132507324
1772555809253659600,4.02265966796875,-0.050830986350774765,0.23452450335025787,-0.23359115421772003
1772555809263591000,4.0325908203125,-0.04063880443572998,0.20519086718559265,-0.17092697322368622
1772555809273522700,4.042522705078125,-0.026519037783145905,0.16894641518592834,-0.11886339634656906
1772555809283453700,4.05245361328125,-0.01572657749056816,0.13624359667301178,-0.09753093868494034
1772555809293385700,4.0623857421875,-0.014386399649083614,0.10007967054843903,-0.10562357306480408
1772555809303316500,4.07231640625,-0.016158999875187874,0.05328340083360672,-0.13230524957180023
1772555809313247700,4.082247802734375,-0.026445193216204643,0.006422420963644981,-0.1674605756998062
1772555809323179800,4.0921796875,-0.031750742346048355,-0.018105292692780495,-0.19892741739749908
1772555809333110800,4.10211083984375,-0.02343260496854782,-0.03480127453804016,-0.22183088958263397
1772555809343042600,4.11204248046875,-0.014958694577217102,-0.05682402104139328,-0.233428955078125
1772555809352973800,4.121973876953125,0.005898953415453434,-0.08226262032985687,-0.2404564470052719
1772555809362905900,4.13190576171875,0.02689637988805771,-0.10170583426952362,-0.2513125538825989
1772555809372836600,4.141836669921875,0.048929110169410706,-0.12455915659666061,-0.26093706488609314
1772555809382767600,4.151767578125,0.05900704860687256,-0.13954956829547882,-0.27745771408081055
1772555809392699600,4.16169970703125,0.06128361076116562,-0.14345166087150574,-0.2949094772338867
1772555809402631000,4.171630859375,0.06759930402040482,-0.13632449507713318,-0.30652299523353577
1772555809412562700,4.181562744140625,0.07348856329917908,-0.12277795374393463,-0.32346564531326294
1772555809422493700,4.19149365234375,0.0710911899805069,-0.11426596343517303,-0.3247269093990326
1772555809432425700,4.20142578125,0.06293102353811264,-0.09491538256406784,-0.32802894711494446
1772555809442356500,4.2113564453125,0.05372713878750801,-0.05503375083208084,-0.33323222398757935
1772555809452288500,4.22128857421875,0.04741215333342552,-0.03438137471675873,-0.3310096263885498
1772555809462219800,4.2312197265625,0.03949537128210068,-0.016063086688518524,-0.31921449303627014
1772555809472150800,4.24115087890625,0.04310555383563042,-0.0110166622325778,-0.29409608244895935
1772555809482082600,4.25108251953125,0.04840817302465439,-0.016169613227248192,-0.26907384395599365
1772555809492013600,4.261013671875,0.05659740790724754,-0.01984870433807373,-0.24923016130924225
1772555809501945900,4.27094580078125,0.0557185634970665,-0.015721071511507034,-0.2305896282196045
1772555809511876900,4.280876953125,0.04981603845953941,-0.01705183833837509,-0.21662680804729462
1772555809521808600,4.29080859375,0.04214320704340935,-0.027051474899053574,-0.2071259766817093
1772555809531739600,4.30073974609375,0.033004045486450195,-0.03839294612407684,-0.20671874284744263
1772555809541671000,4.3106708984375,0.02130424790084362,-0.04715234786272049,-0.2107321321964264
1772555809551602700,4.320602783203125,0.009185511618852615,-0.04864196479320526,-0.217447429895401
1772555809561533700,4.33053369140625,0.004162258002907038,-0.05363166332244873,-0.21325694024562836
1772555809571465700,4.3404658203125,-0.007429161574691534,-0.06050408259034157,-0.1953592151403427
1772555809581396700,4.350396728515625,-0.020764941349625587,-0.07156684994697571,-0.1564144790172577
1772555809591328500,4.36032861328125,-0.03474960848689079,-0.0765886977314949,-0.11597616225481033
1772555809601259800,4.370259765625,-0.054513994604349136,-0.06944583356380463,-0.07331418991088867
1772555809611190800,4.380190673828125,-0.0879674106836319,-0.061745449900627136,-0.033166151493787766
1772555809621122600,4.39012255859375,-0.12797687947750092,-0.0694691464304924,0.003056834451854229
1772555809631053600,4.400053466796875,-0.16188304126262665,-0.08638103306293488,0.026945702731609344
1772555809640985600,4.409985595703125,-0.19332431256771088,-0.08295407891273499,0.035184990614652634
1772555809650916900,4.419916748046875,-0.22361919283866882,-0.07911799103021622,0.045096300542354584
1772555809660848600,4.4298486328125,-0.2516731917858124,-0.06715799868106842,0.05589355155825615
1772555809670779600,4.439779541015625,-0.27498316764831543,-0.06485198438167572,0.07193496823310852
1772555809680711700,4.449711669921875,-0.2943935990333557,-0.07524283975362778,0.09301362186670303
1772555809690642700,4.459642578125,-0.31469008326530457,-0.08684226870536804,0.1096772626042366
1772555809700573700,4.46957373046875,-0.33623161911964417,-0.08921249210834503,0.12971782684326172
1772555809710505700,4.479505615234375,-0.35589390993118286,-0.0866231918334961,0.14607736468315125
1772555809720436700,4.489436767578125,-0.3742921054363251,-0.07940709590911865,0.16615785658359528
1772555809730368500,4.499368408203125,-0.39604777097702026,-0.06497510522603989,0.19060353934764862
1772555809740299800,4.5092998046875,-0.40953826904296875,-0.04467090219259262,0.2163054347038269
1772555809750231800,4.519231689453125,-0.42449772357940674,-0.0264662466943264,0.2525303363800049
1772555809760162600,4.52916259765625,-0.4395968019962311,-0.02531549520790577,0.28996556997299194
1772555809770093600,4.539093505859375,-0.4506337642669678,-0.027374468743801117,0.33103787899017334
1772555809780025900,4.54902587890625,-0.4651709198951721,-0.035600706934928894,0.3760277330875397
1772555809789957000,4.55895703125,-0.48572179675102234,-0.04891004413366318,0.42954057455062866
1772555809799889200,4.56888916015625,-0.510364830493927,-0.04188010096549988,0.4736694097518921
1772555809809820000,4.57881982421875,-0.5308212637901306,-0.028915751725435257,0.49423840641975403
1772555809819752000,4.588751953125,-0.5480788350105286,-0.01636400818824768,0.4870217740535736
1772555809829683000,4.598682861328125,-0.5697146058082581,-0.007122150622308254,0.43370676040649414
1772555809839614000,4.608614013671875,-0.5813981890678406,-0.011421024799346924,0.32709988951683044
1772555809849546000,4.6185458984375,-0.5777041912078857,-0.04454463720321655,0.18929865956306458
1772555809859477000,4.62847705078125,-0.5465779900550842,-0.10896863043308258,0.04128469526767731
1772555809869409000,4.638408935546875,-0.5056573748588562,-0.17691613733768463,-0.09176383912563324
1772555809879340000,4.648340087890625,-0.45448872447013855,-0.2386745810508728,-0.1818828135728836
1772555809889272000,4.65827197265625,-0.4043945074081421,-0.28899869322776794,-0.21314692497253418
1772555809899203000,4.668203125,-0.3703920543193817,-0.3086855709552765,-0.187196284532547
1772555809909135000,4.678135009765625,-0.33797091245651245,-0.2923052906990051,-0.11161229014396667
1772555809919065900,4.68806591796875,-0.3063802421092987,-0.22711056470870972,-0.01945626363158226
1772555809928997000,4.6979970703125,-0.28086528182029724,-0.13386917114257812,0.06841690838336945
1772555809938929200,4.70792919921875,-0.2627914845943451,-0.03955678641796112,0.13880372047424316
1772555809948860000,4.71785986328125,-0.23817452788352966,0.0454317182302475,0.1675494909286499
1772555809958792000,4.7277919921875,-0.2160189002752304,0.09507463872432709,0.15384352207183838
1772555809968723000,4.737722900390625,-0.19757843017578125,0.12095010280609131,0.11624657362699509
1772555809978655000,4.747655029296875,-0.1843467801809311,0.13780391216278076,0.057635195553302765
1772555809988586000,4.7575859375,-0.17651642858982086,0.14609095454216003,-0.002705845981836319
1772555809998517000,4.76751708984375,-0.18822847306728363,0.14198487997055054,-0.047086626291275024
1772555810008449000,4.777448974609375,-0.20584018528461456,0.12373125553131104,-0.07201141119003296
1772555810018380000,4.787380126953125,-0.21543289721012115,0.09191660583019257,-0.07991966605186462
1772555810028312000,4.79731201171875,-0.2234671264886856,0.06727279722690582,-0.06789505481719971
1772555810038243000,4.8072431640625,-0.2149314284324646,0.05211728438735008,-0.05492386966943741
1772555810048175000,4.817175048828125,-0.19959962368011475,0.045146867632865906,-0.04046081379055977
1772555810058105900,4.82710595703125,-0.17933696508407593,0.023885784670710564,-0.033697184175252914
1772555810068037000,4.837037109375,-0.16518503427505493,-0.01475556567311287,-0.04155326634645462
1772555810077969200,4.84696923828125,-0.1549997627735138,-0.05597996711730957,-0.05713089555501938
1772555810087900000,4.85689990234375,-0.15598425269126892,-0.1002172976732254,-0.0923440083861351
1772555810097832000,4.86683203125,-0.1704963594675064,-0.13397713005542755,-0.13571837544441223
1772555810107763000,4.876762939453125,-0.1930949091911316,-0.15370604395866394,-0.17119035124778748
1772555810117695000,4.886695068359375,-0.2231084704399109,-0.15370391309261322,-0.20446549355983734
1772555810127626000,4.8966259765625,-0.2494971603155136,-0.13613788783550262,-0.22478564083576202
1772555810137557000,4.906556884765625,-0.27639827132225037,-0.11540570855140686,-0.22987546026706696
1772555810147489000,4.916489013671875,-0.2929699420928955,-0.09063149988651276,-0.22068443894386292
1772555810157420000,4.926419921875,-0.2919944226741791,-0.07503309845924377,-0.1959279626607895
1772555810167352000,4.93635205078125,-0.2808028757572174,-0.06534527242183685,-0.16176895797252655
1772555810177283000,4.946282958984375,-0.26334771513938904,-0.0707152709364891,-0.1302456557750702
1772555810187215000,4.956215087890625,-0.23823672533035278,-0.09151068329811096,-0.09620017558336258
1772555810197145900,4.966145751953125,-0.20024433732032776,-0.1295613944530487,-0.06291492283344269
1772555810207078000,4.976077880859375,-0.1575995832681656,-0.16439490020275116,-0.0443597249686718
1772555810217009200,4.986009033203125,-0.12696604430675507,-0.19818589091300964,-0.03151263669133186
1772555810226940000,4.99593994140625,-0.1088666170835495,-0.22315199673175812,-0.032968319952487946
1772555810236872000,5.005871826171875,-0.1007852554321289,-0.2334802746772766,-0.03520963713526726
1772555810246803000,5.015802978515625,-0.10089981555938721,-0.2292090505361557,-0.039533548057079315
1772555810256735000,5.02573486328125,-0.10875347256660461,-0.20598655939102173,-0.046694785356521606
1772555810266666000,5.035666015625,-0.12061947584152222,-0.16358327865600586,-0.05946211516857147
1772555810276598000,5.045597900390625,-0.13409960269927979,-0.11365114152431488,-0.07221519201993942
1772555810286529000,5.055529052734375,-0.14629577100276947,-0.05891522392630577,-0.07816239446401596
1772555810296460000,5.0654599609375,-0.1562591940164566,-0.005762788467109203,-0.0821576714515686
1772555810306392000,5.07539208984375,-0.16543076932430267,0.041770290583372116,-0.09295757859945297
1772555810316323000,5.085322998046875,-0.1708681583404541,0.08474172651767731,-0.1065777838230133
1772555810326255000,5.095255126953125,-0.17762884497642517,0.11213899403810501,-0.11259546130895615
1772555810336185900,5.105185791015625,-0.1845024675130844,0.1322040557861328,-0.12036949396133423
1772555810346118000,5.115117919921875,-0.1884240210056305,0.13980847597122192,-0.1179438903927803
1772555810356049200,5.125049072265625,-0.1860055923461914,0.14199893176555634,-0.11594679206609726
1772555810365980000,5.13497998046875,-0.17941054701805115,0.1478770524263382,-0.11314061284065247
1772555810375912000,5.144911865234375,-0.16739915311336517,0.15165501832962036,-0.111978679895401
1772555810385843000,5.154843017578125,-0.15694960951805115,0.15717491507530212,-0.11375338584184647
1772555810395775000,5.16477490234375,-0.14904721081256866,0.16176727414131165,-0.11261168867349625
1772555810405706000,5.1747060546875,-0.13623878359794617,0.16719110310077667,-0.11015118658542633
1772555810415638000,5.184637939453125,-0.12136048823595047,0.1745092123746872,-0.10685393214225769
1772555810425569000,5.194569091796875,-0.10271091759204865,0.1706831157207489,-0.10377493500709534
1772555810435500000,5.2045,-0.08703102171421051,0.1443263292312622,-0.08640260249376297
1772555810445432000,5.21443212890625,-0.06600001454353333,0.10840059816837311,-0.06238246709108353
1772555810455363000,5.224363037109375,-0.048898790031671524,0.0692228376865387,-0.023211896419525146
1772555810465295000,5.234295166015625,-0.03472448140382767,0.02545594796538353,0.01676301658153534
1772555810475225900,5.244225830078125,-0.020623043179512024,-0.006895600818097591,0.059402089565992355
1772555810485158000,5.254157958984375,-0.012177935801446438,-0.031429924070835114,0.09319094568490982
1772555810495089200,5.264089111328125,-0.014065317809581757,-0.0415818952023983,0.11858765035867691
1772555810505020000,5.27402001953125,-0.022005867213010788,-0.05139217525720596,0.13690191507339478
1772555810514952000,5.283951904296875,-0.022244220599532127,-0.048930615186691284,0.14390656352043152
1772555810524883000,5.293883056640625,-0.01755295693874359,-0.03906577080488205,0.13756629824638367
1772555810534815000,5.30381494140625,-0.008650543168187141,-0.02354034036397934,0.1228499487042427
1772555810544746000,5.31374609375,0.0020543066784739494,-0.00812491588294506,0.10287871956825256
1772555810554678000,5.323677978515625,0.017686529085040092,0.017313066869974136,0.08066663146018982
1772555810564609000,5.333609130859375,0.03572819381952286,0.056789495050907135,0.06490850448608398
1772555810574541000,5.343541015625,0.05422038584947586,0.10632748156785965,0.04771406948566437
1772555810584472000,5.35347216796875,0.07643138617277145,0.15790462493896484,0.04924323782324791
1772555810594403000,5.363403076171875,0.09741683304309845,0.20741519331932068,0.042774684727191925
1772555810604335000,5.373335205078125,0.11939556151628494,0.24702765047550201,0.04273349791765213
1772555810614265900,5.383265869140625,0.13972292840480804,0.29014503955841064,0.046182289719581604
1772555810624198000,5.393197998046875,0.16148504614830017,0.32011887431144714,0.056896649301052094
1772555810634129200,5.403129150390625,0.18045741319656372,0.3398020267486572,0.06434604525566101
1772555810644061200,5.413061279296875,0.20383265614509583,0.3446619510650635,0.07037883996963501
1772555810653992000,5.422991943359375,0.2196345180273056,0.33835265040397644,0.08318039029836655
1772555810663923000,5.4329228515625,0.23223210871219635,0.323764443397522,0.10513950139284134
1772555810673855000,5.44285498046875,0.24867898225784302,0.299589067697525,0.13812382519245148
1772555810683786000,5.452785888671875,0.25914132595062256,0.27060920000076294,0.17546045780181885
1772555810693718000,5.462718017578125,0.26838940382003784,0.23686616122722626,0.21596285700798035
1772555810703649000,5.47264892578125,0.27508798241615295,0.19574391841888428,0.2563104033470154
1772555810713581000,5.4825810546875,0.2819514572620392,0.16580678522586823,0.29268041253089905
1772555810723511800,5.49251171875,0.2858048975467682,0.14954665303230286,0.3271833658218384
1772555810733443000,5.502443115234375,0.2837047278881073,0.15099409222602844,0.345476895570755
1772555810743375000,5.512375,0.2885272204875946,0.16146963834762573,0.3514503836631775
1772555810753305900,5.522305908203125,0.30185553431510925,0.18183323740959167,0.32544460892677307
1772555810763238000,5.53223779296875,0.3210291266441345,0.2082207351922989,0.25912508368492126
1772555810773169200,5.542169189453125,0.3404843211174011,0.24012593924999237,0.15246334671974182
1772555810783100700,5.5521005859375,0.37259572744369507,0.28499892354011536,0.0068406774662435055
1772555810793031700,5.56203173828125,0.3900783360004425,0.3115919232368469,-0.15789447724819183
1772555810802962400,5.57196240234375,0.38990986347198486,0.2955019772052765,-0.3043818473815918
1772555810812894500,5.58189453125,0.3711060881614685,0.23971541225910187,-0.3869214653968811
1772555810822825700,5.59182568359375,0.330456405878067,0.13809873163700104,-0.3846011459827423
1772555810832757500,5.601757568359375,0.284692645072937,0.0252989511936903,-0.28392645716667175
1772555810842688500,5.6116884765625,0.22803325951099396,-0.08848487585783005,-0.10428129136562347
1772555810852620500,5.62162060546875,0.1931530386209488,-0.15126223862171173,0.107956662774086
1772555810862551800,5.6315517578125,0.1744101345539093,-0.17278899252414703,0.3139088451862335
1772555810872483600,5.641483642578125,0.147721529006958,-0.173967182636261,0.4767358601093292
1772555810882414600,5.65141455078125,0.12001822143793106,-0.16181880235671997,0.5879160761833191
1772555810892345600,5.661345703125,0.08676280081272125,-0.15505890548229218,0.6542887091636658
1772555810902277400,5.67127734375,0.047908809036016464,-0.14982904493808746,0.6620413064956665
1772555810912208600,5.681208740234375,0.01642092689871788,-0.14457756280899048,0.6389865875244141
1772555810922140700,5.691140625,-0.017330214381217957,-0.1250765323638916,0.5741653442382812
1772555810932071700,5.70107177734375,-0.05912213400006294,-0.0966494157910347,0.48683229088783264
1772555810942003500,5.71100341796875,-0.09291668236255646,-0.0609351322054863,0.3921840190887451
1772555810951934500,5.7209345703125,-0.12287324666976929,-0.05126040428876877,0.30267277359962463
1772555810961865700,5.73086572265625,-0.14423224329948425,-0.05575531721115112,0.23833954334259033
1772555810971797500,5.740797607421875,-0.15211492776870728,-0.053175248205661774,0.19324424862861633
1772555810981728500,5.750728515625,-0.14200782775878906,-0.05192303657531738,0.15990176796913147
1772555810991660500,5.76066064453125,-0.11926042288541794,-0.04215935617685318,0.14053712785243988
1772555811001591800,5.770591796875,-0.09779934585094452,-0.028465915471315384,0.11880254000425339
1772555811011523600,5.780523681640625,-0.07362449914216995,-0.01869477704167366,0.09970314800739288
1772555811021454600,5.79045458984375,-0.050647515803575516,-0.008920470252633095,0.07970058917999268
1772555811031385600,5.800385498046875,-0.030973147600889206,0.019105836749076843,0.048835087567567825
1772555811041317400,5.8103173828125,-0.017247604206204414,0.06261063367128372,0.01626802235841751
1772555811051248600,5.82024853515625,-0.013834496960043907,0.10636556893587112,-0.018789829686284065
1772555811061180700,5.8301806640625,-0.027133744210004807,0.14450430870056152,-0.05184509605169296
1772555811071111700,5.840111572265625,-0.05066916346549988,0.16515234112739563,-0.08261366188526154
1772555811081043500,5.85004345703125,-0.08252628147602081,0.16503587365150452,-0.09788189828395844
1772555811090974500,5.859974365234375,-0.1175769492983818,0.14523527026176453,-0.11241369694471359
1772555811100905700,5.86990576171875,-0.15203499794006348,0.10896523296833038,-0.10878936201334
1772555811110837500,5.87983740234375,-0.17295491695404053,0.06515783071517944,-0.09444531053304672
1772555811120768500,5.8897685546875,-0.1809353530406952,0.018789267167448997,-0.06746003031730652
1772555811130700500,5.899700439453125,-0.1912606954574585,-0.029254423454403877,-0.037214245647192
1772555811140631600,5.909631591796875,-0.2048729956150055,-0.06047884747385979,-0.0034697744995355606
1772555811150563600,5.9195634765625,-0.22396652400493622,-0.07678698003292084,0.028236225247383118
1772555811160494600,5.92949462890625,-0.25137823820114136,-0.08263654261827469,0.06578928232192993
1772555811170426600,5.939426513671875,-0.27995023131370544,-0.07431869208812714,0.08412753790616989
1772555811180357600,5.949357666015625,-0.2991633713245392,-0.05277333781123161,0.08553646504878998
1772555811190288600,5.95928857421875,-0.32592496275901794,-0.025401368737220764,0.07279244065284729
1772555811200220700,5.969220703125,-0.3491344153881073,0.0030704177916049957,0.04904145747423172
1772555811210151700,5.979151611328125,-0.3644081652164459,0.030981412157416344,0.016519468277692795
1772555811220083500,5.98908349609375,-0.36874622106552124,0.05875004082918167,-0.02349415048956871
1772555811230014500,5.999014404296875,-0.3732706904411316,0.08006118983030319,-0.0693173035979271
1772555811239946500,6.008946533203125,-0.3681704103946686,0.08611477166414261,-0.13037052750587463
1772555811249877800,6.018877685546875,-0.35232993960380554,0.07353666424751282,-0.19610266387462616
1772555811259808500,6.02880859375,-0.33874160051345825,0.04711320996284485,-0.2605774402618408
1772555811269740500,6.038740478515625,-0.3192557692527771,0.004415811970829964,-0.30689382553100586
1772555811279671600,6.048671630859375,-0.3002926707267761,-0.058529794216156006,-0.3239392638206482
1772555811289603600,6.058603515625,-0.27173373103141785,-0.10591010004281998,-0.30953794717788696
1772555811299534600,6.06853466796875,-0.23997050523757935,-0.14248493313789368,-0.28630319237709045
1772555811309466600,6.078466552734375,-0.2155437171459198,-0.15662550926208496,-0.24744290113449097
1772555811319397600,6.088397705078125,-0.20904307067394257,-0.15520912408828735,-0.2146340012550354
1772555811329328600,6.09832861328125,-0.2061396837234497,-0.1400996744632721,-0.19283469021320343
1772555811339260700,6.1082607421875,-0.21031615138053894,-0.12277771532535553,-0.17568929493427277
1772555811349191700,6.118191650390625,-0.21741214394569397,-0.1094677671790123,-0.1689501702785492
1772555811359123500,6.12812353515625,-0.21906715631484985,-0.09998533129692078,-0.16476869583129883
1772555811369054500,6.138054443359375,-0.22937437891960144,-0.0857619196176529,-0.15379859507083893
1772555811378986500,6.147986572265625,-0.2561321258544922,-0.053048476576805115,-0.14119312167167664
1772555811388917800,6.157917724609375,-0.2869371771812439,-0.022532114759087563,-0.12522482872009277
1772555811398848500,6.1678486328125,-0.3137073814868927,0.008988024666905403,-0.09712040424346924
1772555811408780500,6.177780517578125,-0.33671122789382935,0.04897964745759964,-0.04478716105222702
1772555811418711600,6.187711669921875,-0.3563939034938812,0.07226564735174179,0.037051886320114136
1772555811428643600,6.1976435546875,-0.37083354592323303,0.08647867292165756,0.1466771811246872
1772555811438574600,6.20757470703125,-0.37288814783096313,0.08550553023815155,0.2426273226737976
1772555811448506600,6.217506591796875,-0.36541691422462463,0.059819336980581284,0.31547224521636963
1772555811458437600,6.227437744140625,-0.3545513153076172,0.018623504787683487,0.36202171444892883
1772555811468369400,6.237369384765625,-0.35706827044487,-0.02174335904419422,0.3791666328907013
1772555811478300700,6.24730078125,-0.3652694821357727,-0.07464887201786041,0.3736453652381897
1772555811488231700,6.257231689453125,-0.3688964545726776,-0.12592990696430206,0.3568309545516968
1772555811498163500,6.26716357421875,-0.3601486086845398,-0.1698320358991623,0.33841848373413086
1772555811508094500,6.277094482421875,-0.341233491897583,-0.20311754941940308,0.3238224983215332
1772555811518026500,6.287026611328125,-0.31808948516845703,-0.2282189130783081,0.32372426986694336
1772555811527957800,6.296957763671875,-0.2985978126525879,-0.24249665439128876,0.3386520743370056
1772555811537889500,6.3068896484375,-0.2907447814941406,-0.23359236121177673,0.38064301013946533
1772555811547820500,6.316820556640625,-0.28170254826545715,-0.21800753474235535,0.43784797191619873
1772555811557751600,6.32675146484375,-0.2737376093864441,-0.18797403573989868,0.5136524438858032
1772555811567683600,6.33668359375,-0.2585304081439972,-0.16588366031646729,0.5912519097328186
1772555811577614600,6.346614501953125,-0.24202822148799896,-0.1759212166070938,0.6626028418540955
1772555811587546600,6.356546630859375,-0.22312377393245697,-0.1834089607000351,0.7110846638679504
1772555811597477600,6.3664775390625,-0.20824266970157623,-0.1861887276172638,0.7326229214668274
1772555811607409400,6.376409423828125,-0.19556549191474915,-0.1870475709438324,0.7252869606018066
1772555811617340700,6.386340576171875,-0.1760299950838089,-0.17215201258659363,0.6960570216178894
1772555811627271700,6.396271728515625,-0.16942855715751648,-0.14277175068855286,0.6507822275161743
1772555811637203700,6.40620361328125,-0.1736307442188263,-0.10490147769451141,0.5932236909866333
1772555811647134500,6.416134521484375,-0.18698489665985107,-0.06819246709346771,0.5041308403015137
1772555811657066500,6.42606640625,-0.21154488623142242,-0.03197994828224182,0.3857567310333252
1772555811666997800,6.435997802734375,-0.22787564992904663,-0.006655419245362282,0.24004611372947693
1772555811676929500,6.445929443359375,-0.23596534132957458,0.019457319751381874,0.08466687798500061
1772555811686860500,6.455860595703125,-0.23990148305892944,0.02568618766963482,-0.03639163449406624
1772555811696792600,6.46579248046875,-0.22192339599132538,0.014989525079727173,-0.08612196892499924
1772555811706723600,6.4757236328125,-0.1955176144838333,0.0064775291830301285,-0.04585178196430206
1772555811716654600,6.485654541015625,-0.1622225046157837,0.009940903633832932,0.07811932265758514
1772555811726586600,6.495586669921875,-0.1347179114818573,0.019898194819688797,0.26359808444976807
1772555811736517600,6.505517578125,-0.10484826564788818,0.02187502384185791,0.45167556405067444
1772555811746449400,6.515449462890625,-0.09205284714698792,0.028390981256961823,0.5964928865432739
1772555811756380700,6.525380615234375,-0.10008670389652252,0.01686318963766098,0.6570645570755005
1772555811766312700,6.535312744140625,-0.13336768746376038,-0.010905323550105095,0.6461743712425232
1772555811776243700,6.54524365234375,-0.17567488551139832,-0.056565068662166595,0.56297367811203
1772555811786174500,6.555174560546875,-0.2234749048948288,-0.104428730905056,0.43393659591674805
1772555811796106500,6.5651064453125,-0.27492600679397583,-0.1404057890176773,0.28209173679351807
1772555811806037800,6.575037841796875,-0.31625694036483765,-0.152384415268898,0.12923720479011536
1772555811815969800,6.5849697265625,-0.35382866859436035,-0.1305544525384903,-0.003252592869102955
1772555811825900500,6.594900634765625,-0.37278079986572266,-0.09349390119314194,-0.0949590802192688
1772555811835832600,6.60483251953125,-0.3766151964664459,-0.05559821054339409,-0.1488589644432068
1772555811845763600,6.614763671875,-0.35512644052505493,-0.04303128272294998,-0.16677431762218475
1772555811855694600,6.624694580078125,-0.32750630378723145,-0.06388378143310547,-0.17361144721508026
1772555811865626600,6.634626708984375,-0.29800939559936523,-0.0929412692785263,-0.19512233138084412
1772555811875557600,6.6445576171875,-0.26960301399230957,-0.11558608710765839,-0.23180124163627625
1772555811885489700,6.65448974609375,-0.24747000634670258,-0.14495915174484253,-0.3117000460624695
1772555811895420700,6.664420654296875,-0.23593607544898987,-0.16973626613616943,-0.424447238445282
1772555811905352700,6.674352783203125,-0.23932228982448578,-0.19089719653129578,-0.5444309115409851
1772555811915283700,6.68428369140625,-0.24900081753730774,-0.2049064189195633,-0.6411368250846863
1772555811925214500,6.69421435546875,-0.2595445513725281,-0.21119999885559082,-0.6895078420639038
1772555811935146500,6.704146484375,-0.27228397130966187,-0.198246568441391,-0.6709476709365845
1772555811945077800,6.714077880859375,-0.2881327271461487,-0.17761078476905823,-0.5906038284301758
1772555811955009800,6.724009765625,-0.3013152778148651,-0.16376015543937683,-0.4794519543647766
1772555811964940500,6.7339404296875,-0.31127095222473145,-0.17143218219280243,-0.37234175205230713
1772555811974872600,6.74387255859375,-0.31454744935035706,-0.18734151124954224,-0.290521502494812
1772555811984803600,6.753803466796875,-0.3080437481403351,-0.1974191814661026,-0.2626669704914093
1772555811994734600,6.763734619140625,-0.3115312159061432,-0.20864742994308472,-0.28200778365135193
1772555812004666600,6.77366650390625,-0.3236323595046997,-0.21788805723190308,-0.32797181606292725
1772555812014597600,6.78359765625,-0.3324418365955353,-0.21435624361038208,-0.37971264123916626
1772555812024529700,6.79352978515625,-0.34003186225891113,-0.20926667749881744,-0.42719733715057373
1772555812034460700,6.803460693359375,-0.33955320715904236,-0.20226547122001648,-0.4558246433734894
1772555812044392700,6.813392822265625,-0.33007073402404785,-0.17004628479480743,-0.47081372141838074
1772555812054323700,6.82332373046875,-0.3174763321876526,-0.1333984136581421,-0.47066259384155273
1772555812064254500,6.83325439453125,-0.29464825987815857,-0.08663036674261093,-0.4640720784664154
1772555812074186500,6.8431865234375,-0.2724342942237854,-0.036129605025053024,-0.45249104499816895
1772555812084117800,6.85311767578125,-0.25527873635292053,0.01005227118730545,-0.4437316358089447
1772555812094049800,6.8630498046875,-0.24485832452774048,0.04945860058069229,-0.44219887256622314
1772555812103980500,6.87298046875,-0.23546455800533295,0.08209270983934402,-0.4429405629634857
1772555812113912600,6.88291259765625,-0.22735550999641418,0.11418655514717102,-0.4381718933582306
1772555812123843600,6.892843505859375,-0.22458449006080627,0.14142748713493347,-0.422942578792572
1772555812133774600,6.902774658203125,-0.2254379242658615,0.14427556097507477,-0.4013908803462982
1772555812143706600,6.91270654296875,-0.21953874826431274,0.12354417890310287,-0.38055938482284546
1772555812153637600,6.9226376953125,-0.2128310650587082,0.09168614447116852,-0.3526749014854431
1772555812163569700,6.932569580078125,-0.21158736944198608,0.06580474972724915,-0.33124926686286926
1772555812173500400,6.94250048828125,-0.1951581835746765,0.04801947623491287,-0.3095465302467346
1772555812183432700,6.9524326171875,-0.17088879644870758,0.03513430431485176,-0.2775726318359375
1772555812193363700,6.96236376953125,-0.1497587114572525,0.03703368827700615,-0.23970156908035278
1772555812203295700,6.972295654296875,-0.12647362053394318,0.055964238941669464,-0.18726764619350433
1772555812213226500,6.9822265625,-0.10933439433574677,0.06696949154138565,-0.12098425626754761
1772555812223157800,6.99215771484375,-0.08898384869098663,0.06401976943016052,-0.047458112239837646
1772555812233089800,7.00208984375,-0.06301727145910263,0.05535362660884857,0.017960838973522186
1772555812243020500,7.0120205078125,-0.04015669599175453,0.036244384944438934,0.0729452595114708
1772555812252952600,7.02195263671875,-0.01732703484594822,0.01595311425626278,0.10588283836841583
1772555812262883600,7.031883544921875,0.003757211845368147,-0.005617157556116581,0.11606436967849731
1772555812272815600,7.041815673828125,0.02327222190797329,-0.03470576927065849,0.12095719575881958
1772555812282746600,7.05174658203125,0.045380186289548874,-0.050903111696243286,0.12167145311832428
1772555812292677600,7.061677734375,0.06378880888223648,-0.04512503743171692,0.1274641454219818
1772555812302609700,7.071609619140625,0.08405386656522751,-0.02402161806821823,0.13575616478919983
1772555812312540400,7.08154052734375,0.10348718613386154,0.007021546363830566,0.1488233208656311
1772555812322472400,7.091472412109375,0.12193597108125687,0.03789663687348366,0.16380652785301208
1772555812332403700,7.10140380859375,0.14550995826721191,0.07339688390493393,0.16410745680332184
1772555812342335700,7.111335693359375,0.1674935519695282,0.10669945180416107,0.161950021982193
1772555812352266500,7.1212666015625,0.18212544918060303,0.14169842004776,0.14561960101127625
1772555812362197800,7.13119775390625,0.1894581913948059,0.16126041114330292,0.13023903965950012
1772555812372129800,7.1411298828125,0.19688132405281067,0.17416639626026154,0.1100936084985733
1772555812382060500,7.151060546875,0.20660345256328583,0.16092222929000854,0.11171600967645645
1772555812391992600,7.16099267578125,0.2158404141664505,0.13473832607269287,0.12696386873722076
1772555812401923600,7.170923583984375,0.22960495948791504,0.11221463233232498,0.16383373737335205
1772555812411855600,7.180855712890625,0.2404995709657669,0.0811537653207779,0.2048310488462448
1772555812421786600,7.19078662109375,0.2632003426551819,0.052293889224529266,0.2561027705669403
1772555812431717600,7.200717529296875,0.29100680351257324,0.01717446744441986,0.3071478605270386
1772555812441649700,7.210649658203125,0.32107681035995483,-0.018834399059414864,0.33110567927360535
1772555812451580400,7.220580322265625,0.35364028811454773,-0.03305814042687416,0.3060225248336792
1772555812461512400,7.230512451171875,0.38996925950050354,-0.0511455312371254,0.23793163895606995
1772555812471443700,7.240443603515625,0.44228309392929077,-0.040765684098005295,0.14276543259620667
1772555812481375700,7.250375732421875,0.4850017726421356,0.0046220384538173676,0.044421542435884476
1772555812491306500,7.260306396484375,0.5049512386322021,0.05084734782576561,-0.03252161666750908
1772555812501237500,7.270237548828125,0.5000768303871155,0.06346540153026581,-0.06513921916484833
1772555812511169800,7.280169677734375,0.48876041173934937,0.03654196858406067,-0.03601304441690445
1772555812521100500,7.2901005859375,0.47139713168144226,0.003483882173895836,0.03731496259570122
1772555812531032600,7.300032470703125,0.4392763376235962,-0.03922507166862488,0.1532096117734909
1772555812540963600,7.309963623046875,0.3923085629940033,-0.06138363480567932,0.2647497355937958
1772555812550895600,7.3198955078125,0.331087589263916,-0.058734230697155,0.358568400144577
1772555812560826600,7.32982666015625,0.2491738200187683,-0.05787615850567818,0.41952815651893616
1772555812570757600,7.339757568359375,0.15797126293182373,-0.05858164280653,0.4406803548336029
1772555812580689700,7.349689697265625,0.06761021167039871,-0.06700362265110016,0.4308359622955322
1772555812590620400,7.359620361328125,-0.00446121534332633,-0.09019552171230316,0.3966454267501831
1772555812600552400,7.369552490234375,-0.050784241408109665,-0.13031604886054993,0.35885143280029297
1772555812610483700,7.379483642578125,-0.06831149011850357,-0.15740153193473816,0.33917325735092163
1772555812620415700,7.389415771484375,-0.05980083346366882,-0.1748574823141098,0.3252832889556885
1772555812630346500,7.399346435546875,-0.04424687847495079,-0.17167243361473083,0.33574095368385315
1772555812640278500,7.409278564453125,-0.04209717735648155,-0.16122059524059296,0.33710557222366333
1772555812650209800,7.419209716796875,-0.03629809245467186,-0.13545848429203033,0.33521199226379395
1772555812660140500,7.429140625,-0.04226810112595558,-0.07986153662204742,0.3200162649154663
1772555812670072600,7.439072509765625,-0.045839741826057434,-0.014582795090973377,0.3073107898235321
1772555812680003600,7.449003662109375,-0.05937392637133598,0.0007697958499193192,0.2932170629501343
1772555812689935600,7.458935546875,-0.06285547465085983,-0.03524639084935188,0.2788868844509125
1772555812699866600,7.46886669921875,-0.05703859403729439,-0.08996237069368362,0.24817293882369995
1772555812709798700,7.478798583984375,-0.04321308806538582,-0.15013355016708374,0.21579645574092865
1772555812719729700,7.488729736328125,-0.020973563194274902,-0.18489336967468262,0.18493600189685822
1772555812729660400,7.498660400390625,0.011191417463123798,-0.1801811009645462,0.16605240106582642
1772555812739592400,7.508592529296875,0.04554326459765434,-0.139041930437088,0.15355737507343292
1772555812749523700,7.518523681640625,0.07888288050889969,-0.08228892087936401,0.1533237099647522
1772555812759455700,7.528455810546875,0.10805008560419083,-0.0316140279173851,0.13474205136299133
1772555812769386500,7.538386474609375,0.13288533687591553,0.012505680322647095,0.08283380419015884
1772555812779319300,7.5483193359375,0.1513916403055191,0.04125130921602249,-0.005130409263074398
1772555812789250000,7.55825,0.17004160583019257,0.05867207795381546,-0.11691400408744812
1772555812799181300,7.568181396484375,0.1795477569103241,0.08093264698982239,-0.24293078482151031
1772555812809113300,7.57811328125,0.1747235357761383,0.11493736505508423,-0.36136510968208313
1772555812819044400,7.58804443359375,0.15295621752738953,0.16164414584636688,-0.4498792588710785
1772555812828976000,7.59797607421875,0.12271148711442947,0.19949139654636383,-0.5019307136535645
1772555812838907100,7.6079072265625,0.08301759511232376,0.21371932327747345,-0.5111412405967712
1772555812848839200,7.617839111328125,0.03934061527252197,0.21272237598896027,-0.4878232479095459
1772555812858770200,7.627770263671875,0.005637514870613813,0.20565567910671234,-0.43135493993759155
1772555812868701200,7.637701171875,-0.022485852241516113,0.1767461895942688,-0.35199543833732605
1772555812878633200,7.64763330078125,-0.03719475865364075,0.1424500048160553,-0.26610076427459717
1772555812888564200,7.657564208984375,-0.04816756024956703,0.09955771267414093,-0.17994990944862366
1772555812898496300,7.667496337890625,-0.06685975939035416,0.06280049681663513,-0.10585544258356094
1772555812908427300,7.67742724609375,-0.0984768271446228,0.04301023855805397,-0.05408761277794838
1772555812918359300,7.687359375,-0.12865976989269257,0.020228493958711624,-0.029128730297088623
1772555812928290000,7.6972900390625,-0.1483183354139328,0.021628817543387413,-0.033296264708042145
1772555812938221300,7.70722119140625,-0.1695874035358429,0.029222821816802025,-0.0595872588455677
1772555812948153300,7.7171533203125,-0.19683405756950378,0.03268372267484665,-0.09987707436084747
1772555812958084400,7.72708447265625,-0.21862217783927917,0.031816862523555756,-0.13990704715251923
1772555812968016100,7.73701611328125,-0.2360643744468689,0.027602706104516983,-0.18864575028419495
1772555812977947100,7.746947021484375,-0.2410508692264557,0.009701469913125038,-0.23163636028766632
1772555812987879200,7.756879150390625,-0.23329758644104004,-0.01103765144944191,-0.25959670543670654
1772555812997810400,7.766810546875,-0.21004419028759003,-0.022214937955141068,-0.2629927694797516
1772555813007741200,7.7767412109375,-0.17373085021972656,-0.023672983050346375,-0.23395441472530365
1772555813017673200,7.786673095703125,-0.12168920785188675,-0.033134929835796356,-0.17824162542819977
1772555813027604200,7.796604248046875,-0.06252742558717728,-0.03179362416267395,-0.10298076272010803
1772555813037536300,7.806536376953125,-0.004767188802361488,-0.027615923434495926,-0.030661288648843765
1772555813047467300,7.81646728515625,0.04541991278529167,-0.015290574170649052,0.017237724736332893
1772555813057399300,7.8263994140625,0.07690859586000443,-0.000470881350338459,0.025204837322235107
1772555813067330300,7.836330322265625,0.09350118041038513,-0.0008196495473384857,-0.009264588356018066
1772555813077262000,7.846261962890625,0.09385964274406433,-0.0130012147128582,-0.07702339440584183
1772555813087193300,7.856193359375,0.08431199938058853,-0.029283031821250916,-0.14261484146118164
1772555813097124400,7.866124267578125,0.06868723034858704,-0.03609219938516617,-0.18638202548027039
1772555813107056000,7.87605615234375,0.049476779997348785,-0.062218740582466125,-0.1977417767047882
1772555813116987100,7.885987060546875,0.03323788940906525,-0.09539879858493805,-0.16844648122787476
1772555813126919200,7.895919189453125,0.009142694994807243,-0.12866662442684174,-0.1198820024728775
1772555813136850400,7.905850341796875,-0.007676232140511274,-0.14883261919021606,-0.059351276606321335
1772555813146782200,7.9157822265625,-0.02771048992872238,-0.14883291721343994,-0.004223358817398548
1772555813156713200,7.925713134765625,-0.05518126115202904,-0.14849336445331573,0.03165288269519806
1772555813166644200,7.935644287109375,-0.07793927937746048,-0.14391981065273285,0.05181474611163139
1772555813176576300,7.945576171875,-0.0993761271238327,-0.12047813832759857,0.04367346316576004
1772555813186507300,7.95550732421875,-0.12333598732948303,-0.09736357629299164,0.03098207898437977
1772555813196439300,7.965439208984375,-0.14394032955169678,-0.09320291876792908,0.0188407264649868
1772555813206370300,7.975370361328125,-0.1538802534341812,-0.1088760644197464,0.010202007368206978
1772555813216302000,7.985302001953125,-0.1601804941892624,-0.13344664871692657,0.01780479960143566
1772555813226233300,7.9952333984375,-0.16101421415805817,-0.16412799060344696,0.024525199085474014
1772555813236164400,8.005164306640625,-0.16061048209667206,-0.18319275975227356,0.03792329505085945
1772555813246096100,8.01509619140625,-0.15834540128707886,-0.18504047393798828,0.05175551399588585
1772555813256027100,8.025027099609375,-0.15889720618724823,-0.17126686871051788,0.07423685491085052
1772555813265959200,8.034959228515625,-0.1553765833377838,-0.1522866189479828,0.10381829738616943
1772555813275890400,8.044890380859375,-0.15279892086982727,-0.14205901324748993,0.14414973556995392
1772555813285822200,8.054822265625,-0.15650343894958496,-0.1471148431301117,0.1871221959590912
1772555813295753200,8.064753173828125,-0.1564219444990158,-0.1828416883945465,0.2262304574251175
1772555813305684200,8.074684326171875,-0.1615338772535324,-0.23110082745552063,0.25367751717567444
1772555813315616300,8.0846162109375,-0.16816860437393188,-0.2968774437904358,0.2607170343399048
1772555813325547300,8.09454736328125,-0.18069735169410706,-0.344072163105011,0.2388409674167633
1772555813335479300,8.104479248046875,-0.2033805549144745,-0.38916265964508057,0.19234085083007812
1772555813345410300,8.114410400390625,-0.24622100591659546,-0.4347023367881775,0.12359732389450073
1772555813355342000,8.124342041015625,-0.2888600826263428,-0.4758543074131012,0.04193069040775299
1772555813365273300,8.1342734375,-0.3298378884792328,-0.4835349917411804,-0.03347089886665344
1772555813375204400,8.144204345703125,-0.3599896728992462,-0.444704532623291,-0.08029193431138992
1772555813385136000,8.15413623046875,-0.36858898401260376,-0.3757232129573822,-0.09887063503265381
1772555813395067100,8.164067138671875,-0.34374353289604187,-0.2818811535835266,-0.07933075726032257
1772555813404999200,8.173999267578125,-0.30143502354621887,-0.20506618916988373,-0.007647959515452385
1772555813414930400,8.183930419921875,-0.25400784611701965,-0.1555609554052353,0.11345183849334717
1772555813424862200,8.1938623046875,-0.20143923163414001,-0.15625464916229248,0.2511596381664276
1772555813434793200,8.203793212890625,-0.1457565277814865,-0.1879366785287857,0.3893803656101227
1772555813444724200,8.21372412109375,-0.09744924306869507,-0.23589365184307098,0.5026280283927917
1772555813454656300,8.22365625,-0.042706627398729324,-0.2809058725833893,0.5866124033927917
1772555813464587300,8.233587158203125,0.0071955169551074505,-0.30200910568237305,0.6375638842582703
1772555813474519300,8.243519287109375,0.03535338491201401,-0.2974846661090851,0.644841730594635
1772555813484450300,8.2534501953125,0.043144650757312775,-0.26882997155189514,0.641197919845581
1772555813494382000,8.263382080078125,0.0397547148168087,-0.21786560118198395,0.6364633440971375
1772555813504313300,8.273313232421875,0.03090553916990757,-0.1810206174850464,0.6381575465202332
1772555813514244400,8.283244384765625,0.022919785231351852,-0.17853695154190063,0.6198400259017944
1772555813524176400,8.29317626953125,0.01623169705271721,-0.1918368637561798,0.5715908408164978
1772555813534107100,8.303107177734375,0.0006335624493658543,-0.19374901056289673,0.5005576610565186
1772555813544039200,8.3130390625,-0.017930202186107635,-0.18885168433189392,0.40838342905044556
1772555813553970400,8.322970458984376,-0.0345696322619915,-0.1761704981327057,0.3108435571193695
1772555813563902200,8.332902099609376,-0.038979146629571915,-0.1732155978679657,0.2207196056842804
1772555813573833200,8.342833251953126,-0.02613844908773899,-0.16380825638771057,0.1559736430644989
1772555813583764200,8.35276416015625,-0.009505623951554298,-0.16333597898483276,0.1136198341846466
1772555813593696300,8.3626962890625,0.009717337787151337,-0.1847805678844452,0.1247614324092865
1772555813603627300,8.372627197265626,0.04211926460266113,-0.2368541955947876,0.1748051643371582
1772555813613559300,8.382559326171876,0.09233184158802032,-0.2957630455493927,0.2221636176109314
1772555813623490300,8.392490234375,0.12871164083480835,-0.364979088306427,0.24238580465316772
1772555813633422000,8.402422119140626,0.1439579725265503,-0.4465740919113159,0.22864894568920135
1772555813643353300,8.412353271484376,0.1504923403263092,-0.5437536239624023,0.18394657969474792
1772555813653285400,8.422285400390624,0.12076667696237564,-0.6546061038970947,0.12383502721786499
1772555813663216400,8.43221630859375,0.07780387997627258,-0.7345941066741943,0.06827319413423538
1772555813673147100,8.442147216796876,0.028766294941306114,-0.7824934720993042,0.04073663800954819
1772555813683079200,8.4520791015625,-0.022688519209623337,-0.8040787577629089,0.1051725298166275
1772555813693010400,8.462010498046874,0.10279936343431473,-0.6309317350387573,0.28634124994277954
1772555813702942200,8.471942138671874,0.1464710682630539,-0.28669649362564087,0.1902116984128952
1772555813712873200,8.481873291015624,0.09317401796579361,-0.1828603744506836,0.0648878663778305
1772555813722805200,8.49180517578125,0.024372298270463943,-0.13368360698223114,-0.06220044195652008
1772555813732736300,8.501736328125,0.013240017928183079,-0.13567885756492615,-0.13160720467567444
1772555813742667300,8.511667236328124,0.04409487545490265,-0.2002992480993271,-0.13437126576900482
1772555813752599300,8.521599365234374,0.13393421471118927,-0.17033763229846954,-0.059006739407777786
1772555813762530300,8.5315302734375,0.20339897274971008,-0.08413216471672058,0.0830184668302536
