time,seconds_elapsed,z,y,x
1772556233760402200,0.073402099609375,-0.03932838630378246,-0.09437060243217274,-0.01092948162490502
1772556233770333000,0.0833330078125,0.10638532201051712,-0.2383776164264418,-0.06727344626793637
1772556233780264200,0.09326416015625,0.08071370513737201,-0.07928907916173339,-0.1674370259530842
1772556233790195000,0.10319482421875,-0.07533610375225544,-0.08055101625579408,0.020712898487225174
1772556233800126000,0.1131259765625,-0.06823942348957061,-0.16802432432174683,-0.05154003496002406
1772556233810057200,0.12305712890625,0.019421324306726453,-0.09732568024494685,-0.14334131662715224
1772556233819989000,0.132989013671875,-0.03732406074404716,-0.10911742298868485,-0.07457039834307506
1772556233829920000,0.142919921875,-0.029503742381930348,-0.12388916792389935,-0.00623944237884134
1772556233839851300,0.152851318359375,0.0422065720885992,-0.08843384192748927,-0.06246602771990001
1772556233849782000,0.162781982421875,-0.029334815555810925,-0.14155753848291933,-0.1054705452531576
1772556233859713000,0.172713134765625,-0.08874503590166569,-0.107588925646618,-0.06224144345009699
1772556233869644300,0.182644287109375,-0.04921674311161041,-0.08396643245615996,-0.0686106314221397
1772556233879575000,0.192574951171875,-0.0050660512179136275,-0.13188411220056004,-0.08841810550224036
1772556233889506000,0.202506103515625,-0.009722352591156959,-0.1143526476278901,-0.09804203922022134
1772556233899437300,0.212437255859375,-0.023187398841977118,-0.0974612801901996,-0.061423806924279775
1772556233909368000,0.2223681640625,-0.026908465191721916,-0.12667362927696668,-0.06991586880180985
1772556233919299000,0.232299072265625,-0.016435001972317696,-0.11613936664788052,-0.0806829264066182
1772556233929230000,0.24222998046875,-0.01284545304775238,-0.12058933179406449,-0.07366528446320444
1772556233939161000,0.2521611328125,0.0016898527830839156,-0.10841857227063738,-0.03364465984525159
1772556233949093000,0.262093017578125,0.02086801598370075,-0.12175842123921028,-0.04492938464861363
1772556233959024000,0.272024169921875,-0.004553425520658493,-0.14110212286561727,-0.06967270769570022
1772556233968955100,0.281955078125,-0.04658639460802078,-0.11339732879758811,-0.06354582231324166
1772556233978886100,0.29188623046875,-0.05254851788282394,-0.09112320887562818,-0.07145997470496222
1772556233988817000,0.30181689453125,-0.016465397110581398,-0.12938729954930023,-0.07734565347637981
1772556233998748200,0.311748046875,0.007652560579776763,-0.11939270588802173,-0.06633685953756793
1772556234008679200,0.32167919921875,-0.02733691973686218,-0.0966870718141552,-0.07458630829825996
1772556234018610000,0.33160986328125,-0.05079787482321262,-0.11363521094038151,-0.07871780034611
1772556234028541200,0.341541259765625,-0.020088848304748535,-0.10276027251430786,-0.0844650570275262
1772556234038472200,0.35147216796875,-0.025126842471957206,-0.09008418468409217,-0.06382982688639313
1772556234048403000,0.36140283203125,-0.03810147485733032,-0.10392117865299805,-0.05801010775696486
1772556234058334200,0.371334228515625,-0.015326748469471931,-0.08865596937872469,-0.09214925485458224
1772556234068265200,0.38126513671875,-0.026516251003742216,-0.09108433816996403,-0.07288136754389851
1772556234078197000,0.391197021484375,-0.05312719455361366,-0.1128124141822569,-0.07973886875584721
1772556234088128000,0.4011279296875,-0.01495382350385189,-0.09320236237039789,-0.07525986017826944
1772556234098059300,0.411059326171875,-0.0037158056527376174,-0.09676801896272226,-0.060614773830026385
1772556234107990000,0.420989990234375,-0.017286065843701362,-0.10387434383658692,-0.051130540843680496
1772556234117921000,0.430921142578125,-0.023973580783605574,-0.09604429866489954,-0.055921775441896165
1772556234127852300,0.440852294921875,-0.043837388160824775,-0.0894297302301973,-0.07841213193042203
1772556234137783000,0.450782958984375,-0.048721068549156185,-0.0941013387704268,-0.05338544363100081
1772556234147714000,0.460714111328125,-0.03326630978584289,-0.08188423762093297,-0.053544342253450304
1772556234157645000,0.47064501953125,-0.0031008886247873304,-0.07992409826279617,-0.05189617318762466
1772556234167576000,0.480576171875,-0.012474866169691085,-0.07683784095156006,-0.05207147495560348
1772556234177507000,0.490507080078125,-0.028126608809828757,-0.08097842048816382,-0.051413120644725856
1772556234187438000,0.50043798828125,-0.04409107066094875,-0.07815903395218775,-0.0523204264816828
1772556234197369000,0.510369140625,-0.01861468409895897,-0.07546742024803534,-0.039166181479394435
1772556234207301000,0.520301025390625,-0.0060071314603090285,-0.07572490214044228,-0.01150574714289978
1772556234217232000,0.53023193359375,0.0029939211189746857,-0.08280776394032872,-0.020032679404411464
1772556234227163100,0.5401630859375,-0.0005833528459072112,-0.06762115459390916,-0.04476789221027866
1772556234237094100,0.55009423828125,-0.0159685535043478,-0.08210384432151913,-0.022435539295058697
1772556234247025000,0.56002490234375,-0.039139585733413695,-0.07208253618325107,-0.06670631390446796
1772556234256956200,0.5699560546875,-0.035377602851390834,-0.06212237451453693,-0.04645056633390486
1772556234266887200,0.57988720703125,-0.01874795508980751,-0.05370307647911832,-0.0391561898083426
1772556234276818000,0.58981787109375,-0.004971358671784401,-0.059414951319899406,-0.03214240205613896
1772556234286749200,0.599749267578125,0.003409516182541847,-0.06730639868946746,-0.007960073892679064
1772556234296680000,0.609679931640625,-0.0091454294860363,-0.0698627595082391,-0.012769118142221121
1772556234306611000,0.61961083984375,-0.020496260061860082,-0.06451889599594288,-0.035882538432534784
1772556234316542200,0.629542236328125,-0.03845043442547321,-0.05951934327613562,-0.0501816974199377
1772556234326473000,0.639472900390625,-0.0360457113713026,-0.06281107829790562,-0.038184221237339076
1772556234336405000,0.649405029296875,-0.014785481199622154,-0.05237138948393985,-0.038226745204813777
1772556234346336000,0.6593359375,0.002742576706409454,-0.06720270998612977,-0.03482424328494817
1772556234356267000,0.66926708984375,0.009194529324769973,-0.04305597372585907,-0.03645838382542133
1772556234366198000,0.679197998046875,-0.012346855875849723,-0.04730527433394454,-0.05250274251233786
1772556234376129000,0.68912890625,-0.02011398274600506,-0.059628539271652695,-0.025981376942060885
1772556234386060000,0.69906005859375,0.004306172761321067,-0.048318597828643395,-0.0175637868065387
1772556234395991000,0.708990966796875,-0.0007493570625782013,-0.06186446336386725,-0.01490265957219526
1772556234405922000,0.718922119140625,-0.014487375035881996,-0.06129331241240724,-0.01083131848005578
1772556234415853000,0.72885302734375,-0.014611293676495551,-0.05119460078952834,-0.02713019991731271
1772556234425784000,0.7387841796875,-0.016675824990868567,-0.06163154052398167,-0.028216040658950805
1772556234435715000,0.748715087890625,-0.018749124133586884,-0.04737933508399874,-0.03135137954261154
1772556234445646000,0.75864599609375,-0.02934650599360466,-0.043477350076241414,-0.03892415288444608
1772556234455577000,0.7685771484375,-0.0172147541731596,-0.046431678970344364,-0.04390585028715432
1772556234465509000,0.778509033203125,-0.0038859015226364135,-0.03787761210673488,-0.023912808773387223
1772556234475440000,0.788440185546875,-0.014642857858538626,-0.03644318625628948,-0.010614460858982057
1772556234485371600,0.79837158203125,-0.022865911802649498,-0.051866851195017806,-0.02921270527979359
1772556234495302700,0.808302734375,-0.023451602736115455,-0.051043643444939515,0.001972980573400855
1772556234505233700,0.818233642578125,-0.021625556352734564,-0.00861113081309013,-0.04330264196330681
1772556234515164700,0.82816455078125,-0.03540565990209579,-0.08209652866474353,0.01111406267788261
1772556234525095700,0.838095703125,-0.0011257891595363616,-0.027574564417637882,-0.01867823258815333
1772556234535026400,0.8480263671875,-0.012935469418764113,-0.0019427863645367323,-0.033499588818755
1772556234544957700,0.857957763671875,-0.023416531422734258,0.018658861167402938,-0.0037613070285879074
1772556234554888700,0.867888671875,-0.020080664998292922,-0.23032122428612783,-0.08540317812785506
1772556234564819500,0.8778193359375,-0.0034498481929302214,-0.1717190871864557,0.04342301693996414
1772556234574750700,0.887750732421875,-0.026378303837776184,0.3809694481268525,0.006587835691403597
1772556234584681700,0.897681640625,-0.10225684390366077,-0.17811121764266863,-0.13979670282285658
1772556234594612500,0.907612548828125,0.04511807562112808,-0.12135645284219644,0.14599369429945944
1772556234604544500,0.91754443359375,0.0608504822820425,0.09340076188617386,-0.1005156810584478
1772556234614475800,0.927475830078125,-0.10162146860957146,-0.2609648939508013,-0.06584392492147162
1772556234624406500,0.937406494140625,-0.014966682985424995,-0.14191146648712455,0.06222518643504008
1772556234634337500,0.947337646484375,0.04743161326050758,0.4456538825485855,-0.019150782003346828
1772556234644268800,0.957268798828125,-0.1704378152042627,-0.466309351760149,-0.16781636239318176
1772556234654199600,0.967199462890625,0.08961597351729869,0.03940444721467793,0.21925618838174268
1772556234664130600,0.977130615234375,0.069747489964962,0.20318123362716287,-0.21597477382458746
1772556234674061800,0.987061767578125,-0.21682138071656226,-0.3237929051171988,0.046898145704623306
1772556234683992600,0.99699267578125,0.06104454354941845,0.06992955026729032,0.039127657833602274
1772556234693923600,1.006923583984375,0.08036591461300849,0.06492436239114031,-0.10127576044443994
1772556234703854600,1.0168544921875,-0.13063245903849602,-0.21861575332004576,0.06618954175505787
1772556234713785600,1.02678564453125,0.02124853973388672,0.05273633663908112,-0.07921793188797309
1772556234723717600,1.036717529296875,0.0172147541731596,0.0032339175870409235,-0.04245853755567223
1772556234733649000,1.04664892578125,-0.09307342049479483,-0.15188718191799708,0.017022209009435026
1772556234743579600,1.05657958984375,0.038458033210039134,0.047597338915965515,-0.061277128462586546
1772556234753510700,1.0665107421875,-0.026785131072998045,-0.043289348656893704,-0.0001724156911484897
1772556234763441700,1.076441650390625,-0.029327216771245,-0.10612319134245626,-0.01578985420288518
1772556234773372700,1.08637255859375,0.03577040156126022,0.032700638727098705,-0.04855890025738627
1772556234783303700,1.0963037109375,-0.05775543887615203,-0.07178446655212901,-0.007304824854340404
1772556234793234700,1.106234619140625,-0.04368307438194752,-0.06906115166861564,-0.015281466289330274
1772556234803165700,1.116165771484375,0.022907412856817244,0.006294953692052513,-0.027340846993308514
1772556234813096700,1.1260966796875,-0.04831833296716213,-0.08345957891256547,-0.004727594777476043
1772556234823027700,1.13602783203125,-0.017788754668831824,-0.031795702943741344,-0.016494367476738988
1772556234832958700,1.145958740234375,0.002115384718775749,-0.01429288451024331,-0.027438681344594804
1772556234842889700,1.1558896484375,-0.05160393050909042,-0.08175526834586634,-0.014459208387322724
1772556234852820700,1.16582080078125,-0.01270166066288948,-0.02758882127185352,-0.01607290892796591
1772556234862752800,1.175752685546875,-0.01015840592086315,-0.03195383894778788,-0.01964251104304567
1772556234872683800,1.185683837890625,-0.040382279270887375,-0.055361081952368836,-0.012034191463794558
1772556234882614500,1.195614501953125,-0.025416180807352064,-0.023096007931209167,-0.025075514143519103
1772556234892545800,1.2055458984375,-0.014942717587947844,-0.0382105338555295,-0.015599665393028407
1772556234902476500,1.2154765625,-0.02422024902105331,-0.045463573723705485,-0.0026283209432847797
1772556234912407600,1.225407470703125,-0.008804653224349021,-0.030008120840648186,-0.02578428346738219
1772556234922338800,1.2353388671875,-0.014337152910232543,-0.045491311114002016,-0.01355551927955821
1772556234932269600,1.24526953125,-0.015533084696531295,-0.04296382019668817,-0.01696949244150892
1772556234942200600,1.25520068359375,-0.008494272100925446,-0.0220877213712316,-0.01373076624860987
1772556234952131800,1.2651318359375,-0.04156301348805427,-0.03841945019874256,-0.019397505039721725
1772556234962062600,1.2750625,-0.017166823378205298,-0.032521601498918605,-0.015140505182370543
1772556234971993600,1.28499365234375,-0.01745382362604141,-0.031922790788975544,-0.008386482611205429
1772556234981924900,1.2949248046875,-0.02223521268367767,-0.0465865407384932,-0.014894585863593966
1772556234991855600,1.304855712890625,-0.023116087171435356,-0.03573013348295353,-0.020979221273213625
1772556235001787600,1.31478759765625,-0.01517301921248436,-0.03477971459005493,-0.01647701448313892
1772556235011718700,1.32471875,-0.013362754920125007,-0.03696098131900653,-0.016051044156029818
1772556235021649700,1.334649658203125,-0.018293197059631346,-0.027399568610335698,-0.024806122617609797
1772556235031580700,1.34458056640625,-0.017234043395519257,-0.033275319642783144,-0.01654028897769749
1772556235041511700,1.35451171875,-0.008096212694048881,-0.0361020629347302,-0.011265435581002384
1772556235051442700,1.364442626953125,-0.013179799568653106,-0.034650384555384516,-0.0162436623849906
1772556235061373700,1.374373779296875,-0.016911387312412263,-0.030537309513636864,-0.016302826960012316
1772556235071304400,1.384304443359375,-0.017350363251566886,-0.033696394599066114,-0.013175525252334773
1772556235081235700,1.394235595703125,-0.014199205744266509,-0.03558874768430832,-0.011553294345363974
1772556235091166700,1.404166748046875,-0.012840776872634886,-0.034857492534001354,-0.008346643791161477
1772556235101097500,1.414097412109375,-0.014624737679958342,-0.03470074020286556,-0.013985215933714061
1772556235111028700,1.42402880859375,-0.014463994160294532,-0.03931401071855798,-0.010495474121812731
1772556235120959700,1.433959716796875,-0.02148936275243759,-0.03377000782454852,-0.009725512662623077
1772556235130891500,1.4438916015625,-0.021031682112812995,-0.02101764445430599,-0.017536076815705744
1772556235140822500,1.453822509765625,-0.024762100812792776,-0.021532311411597765,-0.0026567798527888952
1772556235150753800,1.46375390625,-0.02191080303490162,-0.030004252949706278,-0.011996161008346825
1772556235160684500,1.4736845703125,-0.02430091304183006,-0.030542793972929937,-0.017128135335631667
1772556235170615600,1.483615478515625,-0.027589433193206784,-0.03203521535461768,-0.013508099941257387
1772556235180546800,1.493546875,-0.01336567752957344,-0.02316529204144608,-0.010717829901911318
1772556235190477600,1.5034775390625,-0.01904547673165798,-0.020760030131158416,-0.01716494194837287
1772556235200408600,1.51340869140625,-0.01934182932972908,-0.027502120235934853,-0.022347294756025076
1772556235210339800,1.52333984375,-0.01589490374624729,-0.033603441918874155,-0.012094141490105539
1772556235220270600,1.5332705078125,-0.016487608942389487,-0.0235849102595821,-0.011143745430093258
1772556235230201600,1.54320166015625,-0.013189736440777778,-0.024153951452346518,-0.00935578430108726
1772556235240132600,1.553132568359375,-0.006297638839483261,-0.027781060474901458,-0.009034626055322587
1772556235250063600,1.563063720703125,-0.021252046865224836,-0.0249804836706724,-0.003667820058856159
1772556235259994600,1.57299462890625,-0.017205401822924613,-0.029215591356623917,-0.00967895184084773
1772556235269927000,1.582927001953125,-0.015104045629501342,-0.023877929256251082,-0.0082094090112485
1772556235279857700,1.592857666015625,-0.017785832059383392,-0.02263619926657993,-0.009536821690108627
1772556235289788700,1.60278857421875,-0.021371873852610586,-0.028193486333847977,-0.004166965220030397
1772556235299719700,1.6127197265625,-0.015832944425940514,-0.021842642302671446,-0.014944525952544063
1772556235309650700,1.622650634765625,-0.023911621463298796,-0.017546068486757577,-0.01370923027023673
1772556235319581700,1.632581787109375,-0.023906945288181304,-0.02087186560833361,-0.01027741092434153
1772556235329512700,1.6425126953125,-0.023306056785583496,-0.019287971117487177,-0.0019557919765822588
1772556235339443700,1.652443603515625,-0.027639117553830146,-0.023462274827179497,0.00024380042692646382
1772556235349374700,1.662374755859375,-0.01865735419690609,-0.0255506802074844,-0.01046394647238776
1772556235359305700,1.6723056640625,-0.017905074524879456,-0.018971301817172204,-0.017047763575799763
1772556235369236700,1.68223681640625,-0.028528759869933126,-0.02115398875165265,-0.01215990020269528
1772556235379167500,1.69216748046875,-0.02747720499038696,-0.02431732988709118,-0.003653389674704522
1772556235389098800,1.7020986328125,-0.019992986714839935,-0.02557452687395271,-0.009586031126696615
1772556235399029800,1.71202978515625,-0.023430559948086738,-0.022753067111899145,-0.010056498182658106
1772556235408961800,1.7219619140625,-0.01714753415584564,-0.01755303251708392,-0.013303882606048137
1772556235418892500,1.731892578125,-0.012505261307954787,-0.02697466229572892,-0.00827854699101299
1772556235428823800,1.74182373046875,-0.01833703620135784,-0.021134420968079937,-0.014291341007128358
1772556235438754600,1.751754638671875,-0.023720482805371285,-0.0108417576756794,-0.01145558785824105
1772556235448685600,1.761685546875,-0.019825813454389572,-0.018311426836065948,0.00035928003275766964
1772556235458616800,1.771616943359375,-0.01413549285829067,-0.019120080904406495,-0.00566014465354383
1772556235468547600,1.781547607421875,-0.016075521010160444,-0.013383701810031198,-0.013076357460487633
1772556235478478600,1.791478515625,-0.019513094243407247,-0.014179893689020536,-0.018001374506205318
1772556235488409900,1.801409912109375,-0.02100713219344616,-0.006749049568525515,-0.009540146158356218
1772556235498340900,1.8113408203125,-0.01651800408065319,-0.020802120273793114,0.003126571055315435
1772556235508271600,1.821271728515625,-0.015766308930516244,-0.009201406590128317,-0.007227649698592722
1772556235518203000,1.831202880859375,-0.015015782824158668,-0.010419111816817895,-0.003500226673297584
1772556235528134000,1.8411337890625,-0.015014029258489608,-0.02031321794542018,0.0017464966074563562
1772556235538064600,1.851064697265625,-0.014710077875852583,-0.018759476564242504,-0.004810176760703325
1772556235547996700,1.86099658203125,-0.017403554743528366,-0.016212468095705843,-0.01451738658165559
1772556235557928000,1.870927978515625,-0.01949380502104759,-0.01690250075305812,-0.012222297914419323
1772556235567858700,1.880858642578125,-0.018444003707170486,-0.024837362572667186,-0.005189038276765495
1772556235577789700,1.890789794921875,-0.01649871485829353,-0.020821660657902245,-0.01002553678881377
1772556235587721000,1.900720947265625,-0.0238286193549633,-0.014842079358221962,-0.00197119047511369
1772556235597651700,1.910651611328125,-0.02203179906606674,-0.019449632519180884,0.0003127922762185335
1772556235607582700,1.920582763671875,-0.01664309176504612,-0.015371738388668744,-0.011644187499210238
1772556235617514000,1.930513916015625,-0.02322480824291706,-0.010626320260134525,-0.012202679898496717
1772556235627444700,1.94044482421875,-0.023670213922858237,-0.01684771095905453,-0.008474562753457576
1772556235637375700,1.950375732421875,-0.025912439891695976,-0.01542141818271484,-0.0007882460345514118
1772556235647306800,1.960306640625,-0.014086977541446685,-0.011338190289959311,-0.0033474837969988585
1772556235657237800,1.97023779296875,-0.01752455077469349,-0.017283325897343455,-0.013957853002753108
1772556235667168800,1.980168701171875,-0.012433949637413025,-0.01319523003322538,-0.0038461357678286727
1772556235677099800,1.990099853515625,-0.011235679763555526,-0.015573827698873355,-0.0023243330280296503
1772556235687030800,2.00003076171875,-0.021110008046030998,-0.024658836801140567,0.0022274302585050462
1772556235696962800,2.009962890625,-0.018712299254536626,-0.01595840656966902,0.002226516943052411
1772556235706893600,2.0198935546875,-0.014967267507314681,-0.018523932509007864,-0.005253262619394809
1772556235716824800,2.029824951171875,-0.010025719451904296,-0.013789328035432844,-0.006170267866458743
1772556235726755800,2.039755859375,-0.020499767193198203,-0.011325979262357577,-0.004797463409602642
1772556235736686600,2.0496865234375,-0.017655483677983284,-0.023066311479266733,-0.0023664551367051897
1772556235746617900,2.059617919921875,-0.009126140263676643,-0.013210345403966492,-0.0023862192831002175
1772556235756548900,2.069548828125,-0.01810264292359352,-0.01379285799965728,-0.0020572613233700394
1772556235766479600,2.079479736328125,-0.019445874226093292,-0.008576287828572095,-0.008798552277125418
1772556235776411000,2.089410888671875,-0.018697686207294464,-0.01492244198489934,-0.0017857326393015682
1772556235786342000,2.099341796875,-0.021242109993100167,-0.01030629452553112,0.0005958652676083147
1772556235796272600,2.109272705078125,-0.032466683840751645,-0.015771441763360053,-0.009512929357867687
1772556235806204000,2.119203857421875,-0.020046178206801414,-0.014064190320903435,-0.014610709154605864
1772556235816134700,2.129134765625,-0.019296236622333526,-0.01740865104375407,-0.014534830906800925
1772556235826066700,2.139066650390625,-0.01989770964682102,-0.011155202972446567,-0.004813756957277655
1772556235835997700,2.148997802734375,-0.026330373042821882,-0.011786651010089553,-0.0018621771426871418
1772556235845929000,2.158928955078125,-0.027522797697782514,-0.0077032724202843374,0.000030723931826651096
1772556235855859700,2.168859619140625,-0.019592004698514937,-0.011345400915457866,-0.007457695594802498
1772556235865790700,2.178790771484375,-0.021388824987411497,-0.012126349559542723,-0.0030681188663467763
1772556235875721700,2.1887216796875,-0.021987959924340248,-0.014096087863086722,-0.00491093372143805
1772556235885652700,2.19865283203125,-0.02497545130252838,-0.018141449697175994,-0.007074815490748733
1772556235895583700,2.208583740234375,-0.025269465813040733,-0.009094037225516513,-0.0091039101655595
1772556235905514800,2.2185146484375,-0.01673719978928566,-0.00970534665742889,-0.010078746547084301
1772556235915445800,2.22844580078125,-0.01613806485235691,-0.011116140470537356,-0.004857139441277832
1772556235925376800,2.238376708984375,-0.02092471460700035,-0.0190909370083129,-0.0013527115168981254
1772556235935307800,2.248307861328125,-0.013290858727693557,-0.0044246845744550225,-0.011600677151046693
1772556235945238800,2.25823876953125,-0.02107201412320137,-0.00860543629124295,-0.007466920080874115
1772556235955169800,2.268169677734375,-0.008497194710373877,-0.009402418188098817,-0.003938490226399153
1772556235965100800,2.278100830078125,-0.009991232660412788,-0.00914552995073609,-0.005944551085494458
1772556235975032800,2.28803271484375,-0.027346272087097168,-0.013294525689235887,-0.0034034883005544542
1772556235984963800,2.2979638671875,-0.021207623201608655,-0.011509044211683795,-0.0008149148457683623
1772556235994894800,2.307894775390625,-0.01881108345389366,-0.01687261250487063,0.0031448008317500353
1772556236004825900,2.317825927734375,-0.024345921227335927,-0.007127436160552315,-0.009232504981290548
1772556236014756600,2.327756591796875,-0.01252045887708664,-0.0031139810018008572,-0.011837609445769339
1772556236024687900,2.33768798828125,-0.017157471027970314,-0.0102329187620664,-0.003986950744315982
1772556236034619000,2.347618896484375,-0.011470073041319846,-0.01917470630162861,-0.004084383236803114
1772556236044549600,2.357549560546875,-0.017006079858541488,-0.01234975565241184,0.0013258417762815951
1772556236054481000,2.36748095703125,-0.013263386198878287,-0.012812190098967403,-0.0003268573341891169
1772556236064412000,2.377411865234375,-0.007871756288409233,-0.007264629841269925,-0.002513882517069578
1772556236074342700,2.3873427734375,-0.033459202009439463,-0.017962869126722215,-0.0015941921225748955
1772556236084274000,2.39727392578125,-0.02193593747615814,-0.008606267408304847,-0.0018370792340487241
1772556236094205000,2.407204833984375,-0.01115969191789627,-0.004151402324717492,0.0012822766291908918
1772556236104135700,2.4171357421875,-0.020289339312911034,-0.014474593186122365,0.004322539374232292
1772556236114067700,2.427067626953125,-0.016845920860767364,-0.014393751068832351,0.0007837342562153935
1772556236123999000,2.4369990234375,-0.011457213559746741,-0.011981091303378343,0.0010195340397767723
1772556236133929700,2.4469296875,-0.01953822868466377,-0.004609009899105876,-0.00023442981038242577
1772556236143860700,2.45686083984375,-0.02357727494239807,-0.0076739367279456926,-0.001694054034166038
1772556236153792000,2.4667919921875,-0.02851297777891159,-0.013502524150419049,0.0027579386723227796
1772556236163722800,2.47672265625,-0.01758767913877964,-0.012034109265403822,-0.001967263218667358
1772556236173653800,2.48665380859375,-0.019532383465766905,-0.0034336779428413137,-0.004514974940102547
1772556236183584800,2.496584716796875,-0.023723405414819716,-0.00903337937972974,-0.003535973840113729
1772556236193515800,2.506515869140625,-0.014744564667344093,0.0013345000067725777,-0.00593423062087968
1772556236203446800,2.51644677734375,-0.01878361092507839,-0.00443932958773803,-0.00424098030431196
1772556236213377800,2.526377685546875,-0.015489830076694487,-0.0054461320101050655,-0.006701653063111007
1772556236223308800,2.536308837890625,-0.01414075355529785,-0.013496249673259443,-0.0020873094017617405
1772556236233239800,2.54623974609375,-0.02072247003316879,-0.00805105381149333,-0.0003578187280334532
1772556236243170800,2.5561708984375,-0.023562661895155906,-0.005924088252778165,0.0018338095647282898
1772556236253102800,2.566102783203125,-0.010095862078666687,-0.005654034573165699,-0.0017665895474143324
1772556236263033900,2.576033935546875,-0.013688333612680435,-0.013302457833942025,-0.003767170513793826
1772556236272964600,2.585964599609375,-0.019223171386122704,-0.009589707221393472,-0.011447422818094492
1772556236282896000,2.595895751953125,-0.014432429978251456,-0.0032608147271210326,-0.001624021005257964
1772556236292827000,2.605826904296875,-0.028195582392811773,-0.008541257614386268,0.002720437939837575
1772556236302757600,2.615757568359375,-0.0180208098590374,-0.014644017769163473,-0.0012072934305295347
1772556236312689000,2.62568896484375,-0.019366963770985603,0.0002610757887130603,-0.005027162245940416
1772556236322619600,2.63561962890625,-0.02325578790307045,-0.005575128684635274,-0.0006234473942779004
1772556236332550700,2.645550537109375,-0.024154782569408416,-0.008436007141624577,0.001131488247960806
1772556236342482000,2.65548193359375,-0.018021394380927085,-0.012440927367471159,0.0017851481174118815
1772556236352412700,2.66541259765625,-0.02625029354393482,-0.011899920392525382,-0.0036750169846229254
1772556236362343700,2.67534375,-0.026249709022045133,-0.008222053863690234,-0.0041018092956393954
1772556236372275000,2.68527490234375,-0.019665654456615448,-0.003149381108745001,0.002207081590220332
1772556236382205700,2.695205810546875,-0.014278116199374198,-0.010716231599869206,-0.0060153695656917985
1772556236392136700,2.70513671875,-0.0159206227093935,-0.008609888704074546,-0.003277469034399837
1772556236402068700,2.71506884765625,-0.020407412734627723,-0.004933136420091614,-0.004395074887480586
1772556236411999700,2.724999755859375,-0.031179566639661788,-0.015167950311722233,0.001681815607100725
1772556236421930800,2.7349306640625,-0.0172626849681139,-0.008581712922360747,0.0009179916277527809
1772556236431861800,2.74486181640625,-0.018756722918152807,-0.01102055744184181,-0.005268715916853398
1772556236441792800,2.754792724609375,-0.025037410622835158,-0.005627849819138646,0.0037701113895513114
1772556236451723800,2.764723876953125,-0.018303718453645704,-0.008847327888873406,0.009483082208875566
1772556236461654800,2.77465478515625,-0.02473755089342594,-0.004546109863882884,0.000623721388913691
1772556236471585800,2.784585693359375,-0.012017185530066489,-0.002892122978623956,-0.013364837279357016
1772556236481516800,2.794516845703125,-0.02488485040962696,-0.009522140144207514,-0.004633651150017976
1772556236491447600,2.804447509765625,-0.01485620834827423,-0.011281030442356132,0.004313387953396887
1772556236501378600,2.814378662109375,-0.01829553514719009,-0.005896172765968367,0.0034985644391737876
1772556236511309300,2.824309326171875,-0.008864274457097053,-0.012775004460313356,0.0040210539433173835
1772556236521240600,2.834240478515625,-0.014103344154357909,-0.01230193902188912,0.003647544455807656
1772556236531171300,2.84417138671875,-0.017546178084611893,0.001996324916370213,0.006582629793323576
1772556236541103400,2.854103271484375,-0.028169278907775878,-0.002433670587441884,0.0021113478644751013
1772556236551034400,2.864034423828125,-0.014697802916169166,-0.008151048153825103,-0.005419960955809802
1772556236560965400,2.87396533203125,-0.015295184287428855,-0.007243125828937627,-0.002265661643352359
1772556236570896400,2.883896484375,-0.015146131205558777,-0.011259165670420042,0.00848093769531697
1772556236580827400,2.893827392578125,-0.013050035709142684,-0.015180398801341652,0.001617372068762779
1772556236590758400,2.90375830078125,-0.011401683980226516,-0.0044320915627758944,0.0015329817209392784
1772556236600689400,2.913689453125,-0.024719430714845655,-0.0032447358085773885,0.004674439818132668
1772556236610620400,2.923620361328125,-0.023524667972326278,-0.0086283970417222,0.0008448167936876416
1772556236620551400,2.933551513671875,-0.009457564175128936,-0.008556660679494961,-0.008825239354651421
1772556236630482400,2.943482421875,-0.018435820400714873,-0.0018872796179028226,-0.004665050935279577
1772556236640413400,2.953413330078125,-0.01694061340689659,-0.0028254418174270537,0.0016819617375731467
1772556236650344400,2.963344482421875,-0.02262391974031925,-0.008142536053806543,0.000622351415734738
1772556236660275500,2.973275390625,-0.01454641174674034,-0.0061493027102435,-0.001146996344346553
1772556236670206200,2.983206298828125,-0.015296937853097915,-0.0053523847454693164,0.004103161002509296
1772556236680137500,2.993137451171875,-0.01679331389069557,-0.009112225902755745,-0.0030815811361186206
1772556236690069500,3.003069580078125,-0.019482699105143546,-0.008328149153245612,0.0016674217555671929
1772556236700000500,3.01300048828125,-0.01589315018057823,-0.013702955793077126,0.0002598747788928449
1772556236709931300,3.02293115234375,-0.0239724117398262,-0.008078964731725863,-0.004019190779794007
1772556236719862500,3.032862548828125,-0.01843640492260456,-0.007992537690442987,0.006158814890682697
1772556236729793300,3.042793212890625,-0.023524083450436592,-0.007666707836138084,0.00273066707290709
1772556236739724300,3.052724365234375,-0.023821605092287063,-0.009299825463304295,0.00023877719193696973
1772556236749655600,3.062655517578125,-0.022625088784098624,-0.008196928555588238,-0.00533306812364608
1772556236759586300,3.07258642578125,-0.016190671822428702,-0.0044736474158708,-0.012218023598100989
1772556236769517300,3.082517333984375,-0.016937690797448158,-0.0068838777622207995,-0.004082501806970685
1772556236779448600,3.092448486328125,-0.02262391974031925,-0.014636953274137339,-0.00003298895414918661
1772556236789379300,3.10237939453125,-0.016789806759357453,-0.007993501238245517,-0.0011658289089798927
1772556236799310300,3.112310302734375,-0.028611177456378936,-0.001626404758589342,-0.0011866890339180826
1772556236809241600,3.12224169921875,-0.026512743872404095,-0.007464276032638736,0.0031663916090503333
1772556236819172400,3.13217236328125,-0.025163082829117774,-0.015837766731530426,0.007034410415124147
1772556236829104400,3.1421044921875,-0.020674539238214492,-0.008131329673202708,0.0030929793129675087
1772556236839035400,3.152035400390625,-0.016783961540460586,-0.0044850455927196884,0.0008815868738107382
1772556236848966400,3.16196630859375,-0.013192074528336524,-0.0038887099676532667,-0.0018133147659711538
1772556236858897400,3.1718974609375,-0.016332710641622544,0.005533490633149631,0.006491243449132889
1772556236868828400,3.181828369140625,-0.009899462723731994,0.0017423958210740238,0.006274897284712642
1772556236878759400,3.191759521484375,-0.020972645401954648,-0.011095965332188642,-0.008095682971086352
1772556236888690400,3.2016904296875,-0.014388590836524962,-0.008261997715011238,-0.010088610353972762
1772556236898621400,3.211621337890625,-0.015285247415304183,-0.00844952421032358,-0.00215650218045339
1772556236908552400,3.221552490234375,-0.011993804654479027,-0.00882275057004299,-0.005159538187645376
1772556236918483500,3.2314833984375,-0.017083821269869803,-0.007466235094284638,0.00010517740752547979
1772556236928414500,3.24141455078125,-0.01903027916252613,-0.004017907571583055,-0.0023445538321509958
1772556236938345500,3.251345458984375,-0.011250877332687377,-0.007079660629224963,0.004584953170083463
1772556236948276500,3.2612763671875,-0.015740005445480345,-0.010446885739732533,0.0017609269916079937
1772556236958207500,3.27120751953125,-0.02127718130648136,-0.01168788051046431,0.0013005429382435976
1772556236968138500,3.281138427734375,-0.009155950880050659,-0.0041704814845230425,-0.0007583440866321324
1772556236978070500,3.291070556640625,-0.017834931898117065,-0.01057560841962695,0.006709927701111882
1772556236988001300,3.301001220703125,-0.010502104791998862,-0.0072946687865071,-0.0046188554396852845
1772556236997932500,3.3109326171875,-0.017533903124928474,-0.009969979809829964,0.010979421713855117
1772556237007863600,3.320863525390625,-0.013041852402687073,-0.016341487603122366,0.0015433752507902682
1772556237017794300,3.330794189453125,-0.012444471031427382,0.003280181581294164,-0.010040971819963305
1772556237027725600,3.3407255859375,-0.027708091136813162,-0.005237955452408642,0.0017360665449872611
1772556237037656300,3.35065625,-0.027858897784352302,-0.015178636102518066,0.004057568295113742
1772556237047587300,3.36058740234375,-0.014841010779142379,-0.002674173945584334,0.0031352110194973644
1772556237057518600,3.3705185546875,-0.031902620217204095,-0.0008544248722493648,-0.013174173545464872
1772556237067449300,3.380449462890625,-0.026068507236242294,-0.009630979946698062,-0.0014880466006696224
1772556237077380400,3.39038037109375,-0.01753916382193565,-0.009053901577950454,0.00013266820264980195
1772556237087311600,3.4003115234375,-0.013198504269123076,-0.0067076855116756625,0.007953388423565775
1772556237097242400,3.410242431640625,-0.008708207112550735,-0.007297664461191743,0.0005131188875995576
1772556237107173400,3.42017333984375,-0.016190671822428702,-0.0037944603795185684,0.0009411167750135064
1772556237117104600,3.430104736328125,-0.024120880299806594,-0.008127653578505851,-0.006249086990021168
1772556237127036400,3.440036376953125,-0.01963233670890331,0.0007174823532812297,-0.004194163754209876
1772556237136967400,3.449967529296875,-0.014697218394279479,-0.004011948188254609,0.001492101721279323
1772556237146898400,3.4598984375,-0.020236147820949554,-0.00917986147860065,-0.008198248296417295
1772556237156829400,3.469829345703125,-0.01979015761911869,-0.002795585535280406,-0.008528229169454424
1772556237166760400,3.479760498046875,-0.017545009040832518,-0.009854874663334338,-0.004907061263918876
1772556237176691500,3.48969140625,-0.020687398719787597,-0.010237727367924526,-0.00013506108913570642
1772556237186622500,3.49962255859375,-0.007372574594616889,-0.007901466440083459,0.0022795988371595737
1772556237196553500,3.509553466796875,-0.020242577561736107,-0.008493609947222284,0.002817468573525548
1772556237206484200,3.519484130859375,-0.007972294053435325,-0.013097002956294453,0.0038561639714986082
1772556237216415500,3.52941552734375,-0.021137480574846268,-0.0012458307760534807,0.00023625644128769634
1772556237226346500,3.539346435546875,-0.011860533663630485,-0.0007810262758983299,-0.002027286310214549
1772556237236277200,3.54927734375,-0.024431845945119858,-0.00621691545320209,-0.0020972462738864123
1772556237246208500,3.55920849609375,-0.017400047612190245,0.0005367143923183903,-0.0020244184996932742
1772556237256139500,3.569139404296875,-0.012757774764299392,-0.004141817079042084,-0.008336652120109648
1772556237266071300,3.5790712890625,-0.019342413851618764,-0.0011677560045849531,-0.0048028337044641375
1772556237276002300,3.589002197265625,-0.013056465449929236,-0.00902941102408804,0.0028538550611585376
1772556237285933600,3.59893359375,-0.011408698242902755,-0.006558582197455689,-0.0023490473441779612
1772556237295864300,3.6088642578125,-0.013805822512507438,-0.009953882624977269,-0.008355996141396463
1772556237305795300,3.61879541015625,-0.012011340311169624,-0.006282560001360252,0.0017547895117662846
1772556237315726600,3.6287265625,-0.021886837637424467,-0.002502310810284689,-0.008698818229697643
1772556237325657300,3.6386572265625,-0.019792495706677436,0.00026152787986211476,0.0010085194554179907
1772556237335588400,3.64858837890625,-0.028018472260236738,-0.0015048150723800061,0.0040363063113763925
1772556237345519400,3.658519287109375,-0.030113398712873458,-0.011883147354237735,0.004775543838739395
1772556237355450400,3.668450439453125,-0.017841946160793303,-0.009377215248183347,0.002892579636350274
1772556237365381400,3.67838134765625,-0.017989245676994323,-0.003603865144285373,0.002097374138049781
1772556237375312400,3.6883125,-0.025320903739333152,-0.001517697386839427,-0.0044615642524324355
1772556237385243400,3.698243408203125,-0.019933365482091903,-0.002083491743169725,-0.0009862893573008478
1772556237395174400,3.70817431640625,-0.0250181214004755,-0.009830174046917817,0.005424217005819082
1772556237405105400,3.71810546875,-0.020977321577072144,-0.0035750911409500982,-0.003990768402907997
1772556237415037400,3.728037353515625,-0.025913608935475348,-0.0015475080032134427,-0.005271108803339302
1772556237424968400,3.737968505859375,-0.014838672691583633,-0.0058847654559649526,-0.0030998839777894318
1772556237434899500,3.7478994140625,-0.020226795470714567,-0.007500256094895303,0.0005603190301917493
1772556237444830500,3.75783056640625,-0.01588964304924011,-0.007981783400988205,-0.0007625453377142548
1772556237454761500,3.767761474609375,-0.011102408772706985,-0.0016493381096050143,0.0005120229090563953
1772556237464692500,3.7776923828125,-0.005416179829835891,-0.00818744377461262,-0.003088047409523278
1772556237474623500,3.78762353515625,-0.016487608942389487,0.003361142429593019,0.00011619199188426136
1772556237484554500,3.797554443359375,-0.020076573345065116,0.0011197521443944423,-0.004552329542115331
1772556237494485500,3.807485595703125,-0.020823592320084572,-0.0035141684336820614,-0.0010550437445752323
1772556237504416300,3.817416259765625,-0.01244154842197895,-0.00704656207722146,-0.00843293383512646
1772556237514347300,3.82734716796875,-0.012440379378199577,-0.0029186365262139588,-0.0034422676746733486
1772556237524278500,3.837278564453125,-0.021416882038116453,-0.0002051352172391489,-0.002635170809179544
1772556237534209300,3.847209228515625,-0.014535305830836296,-0.0002787552925874479,-0.006509254029858857
1772556237544140300,3.857140380859375,-0.00914718305170536,0.0015994048705208115,0.0028187289488501846
1772556237554071300,3.8670712890625,-0.017975801673531532,-0.0012969604583806357,-0.002985829144064337
1772556237564003300,3.87700341796875,-0.020966215661168096,-0.002327810476615559,0.002655720406863838
1772556237573934300,3.886934326171875,-0.021264321824908256,0.0031833678600261916,-0.0022120317599736154
1772556237583865300,3.896865234375,-0.03024316257238388,0.0055245812409091734,0.0011942878184840083
1772556237593796400,3.90679638671875,-0.026200024661421774,-0.004733163718448486,0.0020715273107402028
1772556237603727400,3.916727294921875,-0.005547697255015373,-0.0005610199998016469,-0.0024380042692646385
1772556237613658000,3.926658203125,-0.019460487273335457,0.005489539610280189,0.0013191197745501995
1772556237623589400,3.93658935546875,-0.02080605666339397,-0.005569582576549146,0.0012441000432707368
1772556237633520400,3.946520263671875,-0.014665069690346717,-0.013036361093528102,-0.002242463430855423
1772556237643451100,3.956451171875,-0.020797873356938362,-0.000146968439349439,0.0008676496800035238
1772556237653382400,3.96638232421875,-0.018402502653002736,-0.005294962319673504,0.004632829166110605
1772556237663313400,3.9763134765625,-0.015860416954755784,-0.002480692633520812,-0.00008351356498897075
1772556237673244200,3.986244140625,-0.015561726269125938,-0.0015897168768569826,-0.010450191941671072
1772556237683175400,3.996175537109375,-0.01750759963989258,0.002889618210995104,-0.0007541428355500101
1772556237693106200,4.006106201171875,-0.02484042674601078,-0.0004689030032488517,-0.006013524668477475
1772556237703037200,4.016037109375,-0.01361526837646961,-0.00864285939191468,-0.0028827888946980234
1772556237712969200,4.02596923828125,-0.00897591813802719,0.00027255616395268587,0.00042127588568255305
1772556237722900500,4.035900390625,-0.014813538250327109,0.006451084968680515,-0.003255878257099539
1772556237732831200,4.045831298828125,-0.022146365356445312,-0.0018289233270566909,0.0012061791856773196
1772556237742762200,4.05576220703125,-0.00763093326985836,-0.009683922560198698,-0.0017618037744425237
1772556237752693200,4.065693359375,-0.027529227438569066,-0.0004512280659517273,0.0009905819399282335
1772556237762624300,4.075624267578125,-0.021094225955009458,-0.0019432179060881025,-0.00645851022331044
1772556237772555300,4.08555517578125,-0.013311901515722273,-0.0010533130117924884,0.0007846293053589761
1772556237782486300,4.095486328125,-0.016002455773949622,-0.004395837505883537,0.0019964893131516875
1772556237792417300,4.105417236328125,-0.020191139635443688,-0.0036573397640371694,0.004142506632208824
1772556237802348300,4.115348388671875,-0.015252514189481734,-0.003386582831526175,0.002238116049300879
1772556237812279300,4.125279296875,-0.013605331504344939,-0.00381959253748646,-0.0016056816309690475
1772556237822210300,4.135210205078125,-0.02452712301313877,0.0010429742808686568,0.0043144291330128905
1772556237832141300,4.145141357421875,-0.020489245799183844,-0.0039002497083973136,0.004212302199099213
1772556237842072300,4.155072265625,-0.018691256466507912,-0.0039563272771891205,0.0047534050721675155
1772556237852003300,4.16500341796875,-0.017343348988890648,-0.0033364988953922875,0.004966244105249643
1772556237861935400,4.174935302734375,-0.012853051832318305,0.004785451028111856,0.00006681815851479768
1772556237871866000,4.1848662109375,-0.0258721078813076,-0.0031846122523304073,-0.011053765591699629
1772556237881797400,4.19479736328125,-0.014049568140506744,-0.004596534010022879,0.0027664507723413408
1772556237891728400,4.204728271484375,-0.014947393763065336,0.0005759664071840234,0.0015889862244948744
1772556237901659100,4.2146591796875,-0.010607318732142448,0.004674024259601719,0.009534355738386511
1772556237911590400,4.22459033203125,-0.025121581774950025,-0.006686304796929471,0.009396682567056268
1772556237921521200,4.234521240234375,-0.0192886378377676,-0.0009685253717470914,-0.0033121932879090306
1772556237931452200,4.2444521484375,-0.023479075264930725,0.0015089409749372861,-0.0017132701912894845
1772556237941383400,4.254383544921875,-0.0248263982206583,-0.002384609564614948,0.00137799208862707
1772556237951314200,4.264314208984375,-0.014797171637415885,-0.0029864684648811817,0.002603533561900258
1772556237961245200,4.2742451171875,-0.017189619731903076,-0.004458495512511581,-0.0021471498302184045
1772556237971176400,4.284176513671875,-0.01868950290083885,-0.002540715725068003,-0.0054661381850950415
1772556237981107200,4.294107177734375,-0.022580080598592758,-0.006353983553044964,-0.0072369289835914966
1772556237991038200,4.3040380859375,-0.019438275441527365,-0.008135046867094934,-0.0030912440136075018
1772556238000969500,4.313969482421875,-0.012404723542928695,-0.0008117616241681389,0.005477061437908559
1772556238010901200,4.3239013671875,-0.009410217902064323,-0.00031994581950129937,0.0003089198186993599
1772556238020832300,4.333832275390625,-0.013746785801649094,-0.0037345400359597987,-0.0027112134537659585
1772556238030763300,4.34376318359375,-0.02750993821620941,-0.008181683037395122,0.008097582667227834
1772556238040694300,4.3536943359375,-0.020026304462552068,-0.0002187847166787833,-0.007553009195439517
1772556238050625300,4.363625244140625,-0.019724106645584105,0.008943260260729584,-0.005623502437584102
1772556238060556300,4.373556396484375,-0.0161298815459013,0.0038807618399267084,-0.0029739195105619727
1772556238070487300,4.3834873046875,-0.0167266783952713,0.00015668383247684686,-0.0007826748102903366
1772556238080418300,4.393418212890625,-0.013582535150647163,-0.009479323915787973,-0.0022135661299340424
1772556238090349300,4.403349365234375,-0.013432897546887397,0.002150440049136523,-0.0031561442096717652
1772556238100280300,4.4132802734375,-0.016571195572614668,0.004943399802490603,0.004675499264057725
1772556238110211300,4.42321142578125,-0.028843232646584508,-0.008955012347316368,0.006541694994736462
1772556238120142300,4.433142333984375,-0.017021861949563025,-0.002924246566381771,-0.003063716685865074
1772556238130073300,4.4430732421875,-0.010285831692814827,-0.00783155670876149,0.0009471081243827939
1772556238140004400,4.45300439453125,-0.010431377643346786,-0.0014898389822454192,0.0014621997733600437
1772556238149935400,4.462935302734375,-0.016717326045036316,0.0026390021675033494,0.005147774684615433
1772556238159866400,4.472866455078125,-0.016717910566926,0.00403246353660943,-0.001763392943330109
1772556238169798400,4.48279833984375,-0.01552022521495819,0.004998308327503037,0.0021352036640979346
1772556238179729200,4.492729248046875,-0.023151743006706235,-0.001367418178974185,0.006332783218100667
1772556238189660400,4.502660400390625,-0.020607903742790222,0.0010100675251102074,-0.0035137254756875333
1772556238199591400,4.51259130859375,-0.014772621718049049,-0.0013904474281123838,0.005263820546027273
1772556238209522200,4.522522216796875,-0.020158990931510926,0.002609992985439021,0.006192461431957781
1772556238219453400,4.532453369140625,-0.01716974598765373,-0.00015647833650000393,-0.005177640099916607
1772556238229384200,4.54238427734375,-0.01881634415090084,-0.0008524795103352517,0.01122517663585022
1772556238239315200,4.552315185546875,-0.014925181931257248,0.0013662537017720751,0.0018321290642954408
1772556238249246500,4.56224658203125,-0.020612579917907714,0.0031904734542476942,0.0025085122222080827
1772556238259177200,4.57217724609375,-0.019115034836530684,-0.000838615381764248,0.003914616160467267
1772556238269108200,4.582108154296875,-0.015372925698757171,-0.007810844997584354,0.004120459197182208
1772556238279039500,4.59203955078125,-0.015075404056906699,0.0018657893053023143,0.002221658104844391
1772556238288970200,4.60197021484375,-0.01926642600595951,-0.00540157134917099,0.0018421390016563235
1772556238298901200,4.6119013671875,-0.02136076793670654,-0.0043493406161898744,0.0003806516143493354
1772556238308832500,4.62183251953125,-0.008041267636418343,0.001413353379664477,0.004833283641654998
1772556238318764300,4.631764404296875,-0.016570611050724982,0.006852562458638567,-0.006831928379274904
1772556238328695300,4.6416953125,-0.02061199539601803,-0.00325399682726711,0.0007696874645538627
1772556238338626300,4.651626220703125,-0.021362521502375602,-0.009250814672827255,0.003323153073340654
1772556238348557300,4.661557373046875,-0.01851999155282974,-0.002865369685727637,-0.004623732544202357
1772556238358488300,4.67148828125,-0.017923779225349424,-0.002674094030482229,0.0022713789980858563
1772556238368419300,4.68141943359375,-0.01702478455901146,-0.00328431661700597,0.007542962725460529
1772556238378350300,4.691350341796875,-0.013731588232517241,0.0003397967308643274,-0.0016621062596328556
1772556238388281300,4.70128125,-0.011338555616140365,-0.0020848183338646777,-0.0002561484518460929
1772556238398212000,4.711212158203125,-0.0280985517591238,0.0021693867782014422,0.010046086386498064
1772556238408143400,4.721143310546875,-0.017773557099699973,0.0075138530786964105,-0.007170165624003857
1772556238418074400,4.731074462890625,-0.016125205370783807,0.0022315538777736947,0.0020626864171586928
1772556238428005000,4.741005126953125,-0.012832593566179275,-0.0025561028071562756,-0.0010571261038072406
1772556238437936400,4.750936279296875,-0.019417232653498647,0.0018532403509831056,-0.0018453173394314944
1772556238447867400,4.760867431640625,-0.008044774767756462,0.0030329448049771597,0.00025823081107810136
1772556238457798100,4.770798095703125,-0.025101708030700682,0.00010929417692823335,-0.0017803988770581781
1772556238467730200,4.780730224609375,-0.024353520011901855,-0.0007398745648912154,0.0034497933940030633
1772556238477661400,4.790661376953125,-0.011333294919133185,0.004897469168377574,0.004717968432605266
1772556238487592200,4.80059228515625,-0.021208207723498344,0.0006799724876414984,0.009277641030959785
1772556238497523000,4.81052294921875,-0.022106033346056937,0.002461538125190418,0.000007452654093503952
1772556238507454200,4.8204541015625,-0.012228197932243346,0.0047102828830713405,0.0025199834642931815
1772556238517385200,4.83038525390625,-0.01282324121594429,0.003083215970778838,0.0012133395788259803
1772556238527316000,4.84031591796875,-0.02225099477469921,0.0003456853322451934,-0.004476962750963867
1772556238537247200,4.850247314453125,-0.026590485283732413,0.008086145674472208,-0.003595942132733762
1772556238547178200,4.86017822265625,-0.015070727881789207,0.00833851071705576,-0.0014473675304092467
1772556238557109000,4.87010888671875,-0.018363339686393736,-0.0014549434820888562,0.007352938312385231
1772556238567040300,4.880040283203125,-0.01417524034678936,-0.0010474609430297277,0.0006476685200817883
1772556238576971000,4.889970947265625,-0.0244996504843235,-0.0027496229351265354,-0.005779880309384316
1772556238586902000,4.899902099609375,-0.019711831685900686,0.004380212961777579,-0.001296670480724424
1772556238596833300,4.909833251953125,-0.01761865879893303,0.0021063976947218177,0.0016360767692327497
1772556238606764000,4.919763916015625,-0.019713585251569746,-0.002505454898730386,0.0017936054185032843
1772556238616695000,4.929695068359375,-0.02435410453379154,-0.0021036897144047543,-0.0001819141718558967
1772556238626627300,4.93962744140625,-0.014625906723737717,-0.015316658617008943,0.008875855297036469
1772556238636558000,4.94955810546875,-0.014026771786808967,0.0004973253801348619,0.009508234916441143
1772556238646489000,4.959489013671875,-0.018068156132102012,0.0010123234142782166,0.004338284932635724
1772556238656420400,4.96942041015625,-0.010884382107853889,-0.004166746024321764,0.012593597178533672
1772556238666351000,4.97935107421875,-0.0237502934217453,0.0070980639355955645,-0.01182235707771033
1772556238676282000,4.9892822265625,-0.028841479080915448,0.006557273873069789,0.0034122743952088056
1772556238686213400,4.99921337890625,-0.01747135928273201,-0.004078624782874248,0.004040416230913251
1772556238696144100,5.00914404296875,-0.009390344157814978,-0.007958455041039269,-0.0026760690751485524
1772556238706075100,5.0190751953125,-0.02061491800546646,-0.002501134916639421,-0.003078713325597346
1772556238716006400,5.02900634765625,-0.011637830823659896,-0.0012408075410639866,0.005215286962874233
1772556238725937200,5.038937255859375,-0.018670213678479194,-0.000134170606569387,0.007027359619829803
1772556238735868200,5.0488681640625,-0.012834347131848334,-0.0020570170114864593,-0.0005894903257489204
1772556238745799200,5.058799072265625,-0.018217793735861777,0.0010466480922768824,-0.0010396635123528539
1772556238755730200,5.068730224609375,-0.017020692905783653,0.0043328895215992815,0.0003194594790227711
1772556238765661200,5.0786611328125,-0.01731879906952381,0.00011952330999774858,0.002003722771536559
1772556238775592200,5.08859228515625,-0.02061199539601803,-0.003437906593387015,-0.004050535766128451
1772556238785524200,5.098524169921875,-0.013878303226828575,0.003993718411820009,0.0020581015735864636
1772556238795455200,5.108455322265625,-0.012084405547380446,0.013622570333513431,0.001202745119575411
1772556238805386000,5.118385986328125,-0.02166413479745388,0.007619546509452629,-0.007892196288239211
1772556238815317200,5.128317138671875,-0.01492985810637474,0.007517524606816005,0.0042430626635439695
1772556238825248300,5.138248291015625,-0.014028525352478026,-0.0009198136920807883,0.0030870792951434847
1772556238835179000,5.148178955078125,-0.018964812710881233,-0.002106475326535292,0.0022935177646577357
1772556238845110300,5.1581103515625,-0.01791793400645256,0.003049884523334913,-0.0011845153431408106
1772556238855041300,5.168041259765625,-0.017170915031433105,0.00575186664116336,-0.0011117606341838836
1772556238864972000,5.177971923828125,-0.014779051458835601,0.0019832485223771072,0.0014868410242721438
1772556238874903300,5.1879033203125,-0.019419570741057393,-0.000004379347595386207,0.0031919096427969634
1772556238884834000,5.197833984375,-0.021365444111824033,-0.0001113194539444521,0.006137443309091031
1772556238894765000,5.20776513671875,-0.020617256093025206,0.003829545392631553,0.004964307876490056
1772556238904696300,5.2176962890625,-0.010443652603030203,0.0013190649756230413,0.000992974826414138
1772556238914627000,5.227626953125,-0.01478431215584278,-0.00024710662886500356,0.007199811843596398
1772556238924558000,5.23755810546875,-0.016880992174148558,-0.0001776284390944056,-0.0005281520599499345
1772556238934490000,5.247489990234375,-0.02496317634284496,0.0034641210301662793,-0.001068962672073394
1772556238944421000,5.257421142578125,-0.02152209597826004,-0.003644256520178169,0.005941701541282236
1772556238954352000,5.26735205078125,-0.026311083820462225,0.0038250358975841663,0.0010881057639606296
1772556238964283100,5.277283203125,-0.01613806485235691,-0.005220333030750044,0.0032269626898691057
1772556238974214100,5.287214111328125,-0.013594225588440895,-0.009067882154241669,0.005330492574069649
1772556238984145200,5.297145263671875,-0.021375380983948707,0.003640352096618153,-0.0009132423873990773
1772556238994076200,5.307076171875,-0.023021394625306127,-0.004359122224687598,-0.004485036459565162
1772556239004007200,5.317007080078125,-0.016139233896136283,0.0037627318006940185,-0.006748159085959196
1772556239013938200,5.326938232421875,-0.022274375650286674,0.007115823354572057,-0.001820877017918974
1772556239023869200,5.336869140625,-0.024221418064832686,-0.0002523376431199722,0.003058821315038949
1772556239033800200,5.34680029296875,-0.014345336216688155,-0.00013319792561233043,0.002754577671457082
1772556239043731200,5.356731201171875,-0.018086276310682294,-0.0035716136923641894,-0.0037151480656117198
1772556239053662000,5.366661865234375,-0.021079612907767293,0.0024838595548528244,0.00464819113202393
1772556239063593200,5.37659326171875,-0.01764087063074112,0.001098828087374568,-0.0035640674234367906
1772556239073524200,5.386524169921875,-0.015098784932494162,0.00254670707443729,-0.0018989289565011858
1772556239083455000,5.396455078125,-0.01884030954837799,-0.001289989578188397,0.0033021650842390954
1772556239093387000,5.406386962890625,-0.020336685585975647,-0.00037708055092953145,0.003600910568796098
1772556239103318300,5.416318359375,-0.02003624133467674,-0.0016292725691106169,0.007546104530617595
1772556239113249000,5.4262490234375,-0.015993687945604323,-0.00012958576299715787,0.0057120940364897245
1772556239123180000,5.436179931640625,-0.003571428745985031,-0.0006480315629742107,-0.009732746121007949
1772556239133111300,5.446111328125,-0.016292963153123854,0.0010637818901683203,0.00030493776332587004
1772556239143042000,5.4560419921875,-0.010758709901571272,0.001307077710307203,0.0034657764144241806
1772556239152973000,5.46597314453125,-0.020335516542196272,-0.0019760013642604463,0.001364036628510803
1772556239162904300,5.475904296875,-0.021531448328495024,0.0011055455225287005,0.003990238679945469
1772556239172835000,5.4858349609375,-0.017194295907020568,-0.004687002472183667,-0.003439125869516283
1772556239182766000,5.49576611328125,-0.02647416542768478,0.004156420993129723,0.00380169383790344
1772556239192697300,5.505697265625,-0.017495909202098845,0.0031839181325864045,0.009761223296821117
1772556239202628000,5.515628173828125,-0.0146527947306633,-0.0034979502345318905,0.006131707688048481
1772556239212559000,5.52555908203125,-0.01689794330894947,-0.0041100725171971135,0.006238017606735229
1772556239222490000,5.535489990234375,-0.015700842478871345,-0.000019665964983869344,0.004420611187536269
1772556239232421000,5.545421142578125,-0.019444705182313917,0.005378377703251317,0.0013967515880241989
1772556239242353200,5.555353271484375,-0.017800445106625557,0.00036253371905768287,0.004114613978285342
1772556239252284200,5.5652841796875,-0.022890461722016333,0.0036438249786267985,-0.002750796545483172
1772556239262215200,5.575215087890625,-0.008671966755390167,-0.0038544400885817593,0.0006511573851108551
1772556239272146200,5.585146240234375,-0.009572130465507507,0.003291760137944948,-0.0027446590656414627
1772556239282077200,5.5950771484375,-0.019452303966879844,-0.006331657556805294,0.002731105464324355
1772556239292008200,5.60500830078125,-0.014517770174145697,0.0019486247335677035,-0.0008711568113416433
1772556239301939200,5.614939208984375,-0.02110240926146507,-0.002131022962613497,-0.008827157317101954
1772556239311870200,5.6248701171875,-0.023348142361640928,-0.00031253198131453246,-0.002743270826153457
1772556239321801200,5.63480126953125,-0.021255553996562957,0.00002672817672137171,0.0049271724701859055
1772556239331732200,5.644732177734375,-0.014670330387353896,0.002075600697658956,0.0018294439168646932
1772556239341663200,5.654663330078125,-0.01826221739947796,-0.0026594718500855376,-0.0049737150256522
1772556239351594200,5.66459423828125,-0.015565817922353743,-0.0010035236198920757,-0.007675996254291385
1772556239361525000,5.67452490234375,-0.020501520758867263,0.005753928450797684,-0.005016129395272582
1772556239371456300,5.684456298828125,-0.02110065569579601,0.008109944391879252,0.0005032185480929911
1772556239381387300,5.69438720703125,-0.021699206110835072,0.005737244460766669,0.000821198456082493
1772556239391318000,5.704318115234375,-0.018853753551840782,0.0008308476338395849,-0.001587141327280551
1772556239401249300,5.714249267578125,-0.020649989318847654,-0.00009684340402018278,-0.0009920249783433974
1772556239411181300,5.724181396484375,-0.011072013634443283,0.0011684683906380087,-0.001566098539251834
1772556239421112000,5.734112060546875,-0.023342297142744065,-0.0044892171610496,0.005628251677937806
1772556239431043000,5.74404296875,-0.01361526837646961,-0.006746448902774136,0.002937405158765614
1772556239440974300,5.753974365234375,-0.01466097803711891,-0.0007239098107791505,0.004512801249325275
1772556239450905000,5.763905029296875,-0.017054010653495787,0.0007019674070295877,-0.005008603675942868
1772556239460836000,5.773836181640625,-0.01959668087363243,0.0013860749303828924,-0.000465663016680628
1772556239470767400,5.783767333984375,-0.016156185030937194,-0.0034884951363084835,0.00023658523485064505
1772556239480698000,5.793697998046875,-0.016157938596606254,0.0021033175383578053,-0.006575725128501653
1772556239490629600,5.803629638671875,-0.01960194157063961,0.00045484479514416306,-0.00804462863728404
1772556239500560600,5.813560546875,-0.018555647388100623,0.006003491898230276,-0.0018239092252217233
1772556239510491600,5.82349169921875,-0.020049100816249846,0.007900199214892926,-0.00184292445294559
1772556239520422700,5.833422607421875,-0.01615676955282688,0.0029893180090934035,-0.0035652364672161636
1772556239530353700,5.843353759765625,-0.015257190364599226,-0.0008656495191622525,0.00027896307185292245
1772556239540284700,5.85328466796875,-0.019595511829853057,-0.0020917298485524953,-0.0010144742721691726
1772556239550215400,5.86321533203125,-0.013612930288910864,0.0007020815714611671,-0.004901471773348748
1772556239560147500,5.8731474609375,-0.01825344957113266,0.008707670539722311,0.003122278472688049
1772556239570078700,5.88307861328125,-0.017502923464775083,0.0059004356658435425,-0.002314432688523084
1772556239580009700,5.893009765625,-0.020196400332450865,0.003721541273780167,-0.0078519556093961
1772556239589940500,5.9029404296875,-0.016007131949067114,-0.0004037425122805871,-0.004619878352992236
1772556239599871700,5.912871826171875,-0.024535890841484068,-0.007939750340569299,-0.006386248704697936
1772556239609802500,5.922802490234375,-0.01570844126343727,-0.002980799059208948,-0.003581493482273072
1772556239619733500,5.9327333984375,-0.014212649747729301,0.004369835414947011,-0.0018086203245446086
1772556239629664800,5.942664794921875,-0.017203648257255552,-0.0009501882807468064,-0.00038054201649501915
1772556239639595500,5.952595458984375,-0.007626257094740867,-0.0004203694200958125,-0.0013665939117781817
1772556239649526500,5.962526611328125,-0.018401333609223365,0.006634898836677894,-0.0007948949710465967
1772556239659457800,5.972457763671875,-0.023189736929535864,0.0068144155554706225,-0.001076725853420794
1772556239669388500,5.982388427734375,-0.018103227445483205,-0.004905280298786238,-0.001004829660989344
1772556239679319600,5.992319580078125,-0.020797288835048673,0.0018377208381542003,-0.0029566030495800076
1772556239689250600,6.00225048828125,-0.02139525472819805,-0.002551301051164046,-0.002333338318392634
1772556239699181600,6.012181640625,-0.01466273160278797,0.0007346709500998258,0.0013606938939541577
1772556239709112600,6.022112548828125,-0.01600947003662586,-0.0029627245464012956,0.0005773980291560292
1772556239719044600,6.032044677734375,-0.005534837773442268,-0.006175297951314132,-0.003296758256759494
1772556239728975600,6.0419755859375,-0.017055764219164847,-0.004034381499059964,-0.007088405624683946
1772556239738906600,6.05190673828125,-0.015558219137787817,-0.000864044367254246,0.0008834317710250616
1772556239748837400,6.06183740234375,-0.009275193345546722,0.0031689077931223437,-0.001773384614381939
1772556239758768600,6.0717685546875,-0.017056933262944222,-0.0030736855240305885,0.0016366978237405418
1772556239768699600,6.08169970703125,-0.022296002960205077,-0.0026639973281533456,-0.00415408747214824
1772556239778630400,6.09163037109375,-0.014816460859775542,0.004261950027104467,0.00038109000576660036
1772556239788561700,6.101561767578125,-0.01795885053873062,0.00172906369875418,-0.002627352828904986
1772556239798492700,6.11149267578125,-0.03367255249917507,-0.004395789556822274,-0.009021309916023165
1772556239808423400,6.12142333984375,-0.027536826223134993,0.003036566100746859,0.0028390045518986878
1772556239818354700,6.131354736328125,-0.02289747598469257,0.0001724545070552267,0.005251490787416696
1772556239828285700,6.14128564453125,-0.02259820077717304,0.0029759356544236653,0.007249660601001232
1772556239838216400,6.151216552734375,-0.023197920235991477,-0.001036329910950735,-0.0008935147736221551
1772556239848147700,6.161147705078125,-0.013919804280996323,0.0002401631481363438,-0.007273278938606381
1772556239858078500,6.171078369140625,-0.017661913418769836,0.001771366187231615,0.0026968196022324263
1772556239868009500,6.181009521484375,-0.016312836897373197,0.0037544959785998796,0.00014101590588688848
1772556239877940700,6.190940673828125,-0.02169979063272476,0.006601903032662812,0.00911592939691618
1772556239887872800,6.200872802734375,-0.01272211892902851,-0.0006684373134747147,0.0003847798001952469
1772556239897803500,6.210803466796875,-0.024241876330971718,-0.0001187036093790084,-0.001307283206284046
1772556239907734500,6.220734619140625,-0.027983400946855544,-0.00015837574935285374,-0.0011782499991357326
1772556239917665500,6.23066552734375,-0.018557400953769683,-0.0018734999710111877,0.006401720268465578
1772556239927596500,6.240596435546875,-0.021249124255776405,0.013259849384787957,-0.0024832681830972434
1772556239937527600,6.250527587890625,-0.01765782176554203,0.010595427364949136,-0.009943210533913224
1772556239947458600,6.26045849609375,-0.01331774673461914,-0.00016536946243140847,-0.0029892449438571928
1772556239957389600,6.2703896484375,-0.01002513493001461,-0.00045168015710078175,-0.003714709674194455
1772556239967320600,6.280320556640625,-0.01930383540689945,0.0006701520632370375,0.004272398355882614
1772556239977251600,6.29025146484375,-0.021848259192705152,0.001641903721820563,0.0016646452765911816
1772556239987182600,6.3001826171875,-0.01287117201089859,0.001824980087589938,-0.003640950318239629
1772556239997113300,6.31011328125,-0.011976853519678116,-0.0012875807086820713,-0.0011021342893131076
1772556240007044600,6.320044677734375,-0.019610709398984908,0.011234172793058678,-0.0019327398945577442
1772556240016975600,6.3299755859375,-0.022301263657212255,-0.000382090086187236,-0.006445230616629123
1772556240026906400,6.33990625,-0.013023732224106788,0.00008066858735401183,-0.001043883029744029
1772556240036837600,6.349837646484375,-0.016915478965640066,0.00019469373832689597,-0.0047224254120141265
1772556240046769700,6.359769775390625,-0.02768938643634319,-0.0036541522931074722,0.00018967735320329665
1772556240056700400,6.369700439453125,-0.019909400084614753,0.001239353086205665,0.0038920390024781227
1772556240066631700,6.379631591796875,-0.02036006646156311,0.004900843868975061,-0.0037915743026882406
1772556240076562700,6.389562744140625,-0.01676934849321842,0.0047949837581487366,-0.009182181299850344
1772556240086493400,6.399493408203125,-0.011382979279756546,0.005339486447989475,-0.002627809486631304
1772556240096424700,6.4094248046875,-0.006147416713833808,0.002570496658689808,0.01151904501589015
1772556240106355700,6.419355712890625,-0.010039163455367088,-0.006646721705212257,0.008324541557207703
1772556240116286500,6.429286376953125,-0.023058219504356384,0.0035813975841505453,-0.00010177987404167652
1772556240126217700,6.4392177734375,-0.02141395942866802,-0.001684055513248313,-0.0027319457145407794
1772556240136148700,6.449148681640625,-0.019768530309200286,0.008253280119015835,0.00041079102428629994
1772556240146079500,6.45907958984375,-0.016775778234004973,-0.0028319354902952907,-0.003746292122546583
1772556240156010800,6.4690107421875,-0.03188683812618255,-0.00031062315201852466,0.002949680118449032
1772556240165941500,6.47894140625,-0.021713819158077238,0.0038223621665965765,0.0005615428728982806
1772556240175872500,6.48887255859375,-0.019918167912960052,-0.0016979881404782645,-0.00004683481641113758
1772556240185803800,6.4988037109375,-0.01483048938512802,0.002371804881969001,-0.004218476211559027
1772556240195734500,6.508734619140625,-0.008846154278516769,-0.002875582835776731,-0.0008423143093474209
1772556240205665500,6.51866552734375,-0.020965046617388725,0.0018796945330686865,0.0028211766342632473
1772556240215597600,6.52859765625,-0.015274726021289825,0.008749591718998272,-0.0017633564107120037
1772556240225528600,6.538528564453125,-0.020509119543433187,-0.00031295210642274466,0.009452358277048914
1772556240235459600,6.54845947265625,-0.02065934166908264,-0.006528689382690936,-0.009251264480687678
1772556240245390600,6.558390625,-0.01781681171953678,0.003937974203168415,-0.005071841637883335
1772556240255321600,6.568321533203125,-0.019911153650283814,0.005861800138908438,0.0069207574401982126
1772556240265252600,6.578252685546875,-0.012728548669815062,-0.001940277030330617,0.004237674102373421
1772556240275183600,6.58818359375,-0.02544774498939514,-0.0008565300643676891,-0.0015954159652814268
1772556240285114600,6.598114501953125,-0.013779519027471541,0.003366859784326516,0.004215352672711015
1772556240295045600,6.608045654296875,-0.01767009672522545,0.0021864132615271956,0.00020394334057345986
1772556240304976600,6.6179765625,-0.02664952199459076,0.008604559508408419,-0.001190835486073047
1772556240314907600,6.62790771484375,-0.018718144473433493,-0.00575287357144989,-0.0031131635844707487
1772556240324838700,6.637838623046875,-0.011235095241665839,-0.002582616354746278,-0.008278729654103516
1772556240334769400,6.647769287109375,-0.017968202888965605,-0.0063931145536131224,-0.004220010581519455
1772556240344700700,6.65770068359375,-0.019014497071504592,-0.002852128894953057,0.0033446890517137944
1772556240354631700,6.667631591796875,-0.01258008010983467,0.0020096456222468985,-0.0024775325620546938
1772556240364562400,6.6775625,-0.017667174115777014,-0.000963237275276333,0.0017515015761367975
1772556240374493700,6.68749365234375,-0.019162965631484983,0.000992869795137085,-0.002881272791046649
1772556240384425700,6.69742578125,-0.0035989012748003004,-0.0015466494866879655,0.004073368652444333
1772556240394356500,6.7073564453125,-0.02035948193967342,0.0008664669364923611,-0.007622421169839799
1772556240404287500,6.71728759765625,-0.026944121026992795,-0.011408641160686966,0.00011416443157941103
1772556240414218800,6.72721875,-0.011232172632217407,-0.0011713910000864416,0.007454078865610063
1772556240424149500,6.7371494140625,-0.016021160474419593,0.0038227160763344725,0.000493226877041161
1772556240434080500,6.74708056640625,-0.02485094814002514,0.007536487318901344,-0.005728789442963898
1772556240444011800,6.75701171875,-0.028154081338644027,0.002989776950108353,0.0045101709008216855
1772556240453942500,6.766942626953125,-0.008257540735602378,0.004385628922411706,-0.005137636883091181
1772556240463873500,6.77687353515625,0.017338672813773156,-0.02960951116121141,-0.022841635877918452
1772556240473804500,6.786804443359375,-0.019177578678727148,0.04167130073469598,0.034146380556002255
1772556240483735600,6.796735595703125,-0.05059621477127075,-0.0027895713530248028,-0.020344777560885995
1772556240493666300,6.806666259765625,0.007933131086826323,-0.019209773048432542,-0.004929181764181703
1772556240503597300,6.816597412109375,0.03248071236610412,0.050968153356201945,0.003993398751411587
1772556240513528300,6.8265283203125,-0.050265375381708145,-0.05462946604245807,-0.00018746712980791924
1772556240523459000,6.836458984375,-0.053713470008969304,-0.0599716444877442,0.010720551581960171
1772556240533390300,6.846390380859375,-0.00926701003909111,0.07107765628991182,-0.015623028002306819
1772556240543322400,6.856322265625,-0.013463877207040786,0.020095036016940137,-0.04123096852209419
1772556240553253400,6.86625341796875,-0.010161913052201271,-0.025697383785352575,0.07526619858751073
1772556240563184400,6.876184326171875,0.027117139506340024,0.01490895688224118,-0.05080572933610528
1772556240573115400,6.886115478515625,-0.025118659165501593,0.015904947932937646,0.005191613826341927
1772556240583046100,6.896046142578125,-0.035134441745281214,-0.014237396029918454,0.0015216931419447064
1772556240592977400,6.905977294921875,0.010365911191701889,0.004076626905321609,-0.01284066727478057
1772556240602908400,6.915908447265625,-0.0370697937220335,-0.008355959608778357,0.019878566554933787
1772556240612839200,6.925839111328125,-0.0360153162330389,-0.001801996504224371,-0.012066321901418268
1772556240622770400,6.9357705078125,0.0024450550645589825,0.0074146008051699025,0.0010504406346939503
1772556240632701400,6.945701416015625,-0.021800328397750854,-0.007074717309337575,-0.0042685624309815465
1772556240642632200,6.955632080078125,-0.04289513887465,0.009890078407456166,0.006256229116860777
1772556240652563500,6.9655634765625,-0.005933481702208519,0.014375069201248697,0.0015336027754470705
1772556240662494200,6.975494140625,-0.015213351222872732,-0.004096961873874534,0.0011402012773789464
1772556240672425200,6.98542529296875,-0.018352233770489692,0.002936523809353821,0.009117226304858922
1772556240682356500,6.9953564453125,-0.021935352954268454,0.007682323247089516,-0.0041959903851151465
1772556240692287200,7.005287353515625,-0.037948914644122124,-0.010635508213588036,-0.011845756219606846
1772556240702218200,7.01521826171875,-0.031814941933751104,-0.007707361790223513,0.005177749697770923
1772556240712150300,7.025150390625,-0.007124737313389778,-0.0011274856429896317,-0.013235731006972491
1772556240722081300,7.035081298828125,-0.016402268746495245,-0.008633778753026854,0.001868314622528851
1772556240732012300,7.04501220703125,-0.019394436299800873,-0.009357615498569793,-0.006184278125502169
1772556240741943300,7.054943359375,-0.009518938973546028,-0.005584449068829417,-0.003075516721513122
1772556240751874300,7.064874267578125,-0.026728432449698445,-0.0051499963244539685,-0.0017631737476214765
1772556240761805300,7.074805419921875,-0.020443068569898606,-0.004782528418663423,-0.008423599751200526
1772556240771736300,7.084736328125,-0.010116320344805717,0.002245828998298384,-0.013126407147292046
1772556240781667300,7.094667236328125,-0.01699555846452713,0.005062662817584351,0.00832647778596729
1772556240791598300,7.104598388671875,-0.015938742887973784,-0.00411141965748975,-0.006284030439238995
1772556240801529300,7.114529296875,-0.008607669347524643,0.01696332756220363,-0.016180698417685924
1772556240811460400,7.12446044921875,-0.030753450182080266,-0.0006685309283086099,0.008512483611050992
1772556240821391400,7.134391357421875,-0.02191372564435005,-0.01729033559344243,-0.002121029008273035
1772556240831322000,7.144322021484375,-0.009338906231522559,0.004894053368584718,0.0011867620991542936
1772556240841253400,7.15425341796875,-0.03208206843733787,-0.011476429716870188,0.014750793478731065
1772556240851184400,7.164184326171875,-0.02309621342718601,0.008443551127263344,0.0000684438600204885
1772556240861115100,7.174115234375,-0.017409984484314918,0.015469184580887666,-0.0014197488711215555
1772556240871046400,7.18404638671875,-0.02803366982936859,-0.015136769722169265,-0.00260773481298238
1772556240880978400,7.193978515625,-0.011569441762566565,-0.010008811699587386,0.016470237682480363
1772556240890909200,7.2039091796875,0.003098550537228584,0.0034861113829771054,0.01404839909672737
1772556240900840200,7.213840087890625,-0.018745032480359077,0.0005707627923926339,-0.005548610570468009
1772556240910771500,7.223771484375,-0.019342413851618764,0.00220674823008012,0.006904208164196461
1772556240920702200,7.2337021484375,-0.013501871129870413,-0.0023148391138995065,-0.0069348224981687955
1772556240930633200,7.24363330078125,-0.01529459976553917,-0.005128332481917459,-0.009770009391475468
1772556240940564500,7.253564453125,-0.032950667965412135,0.0008402821824653073,-0.006392422717157751
1772556240950495200,7.2634951171875,-0.02921089691519737,-0.0069422934185713525,-0.0021577077568508685
1772556240960426200,7.27342626953125,-0.010057283633947372,-0.0010819112019031308,0.0020216602870263157
1772556240970357200,7.283357177734375,-0.003322422420978546,0.0009212156313005834,-0.006407930813543498
1772556240980288300,7.293288330078125,-0.011552490627765654,0.007368419009307399,-0.012360080683603883
1772556240990219300,7.30321923828125,-0.010653495961427688,-0.0010025189728941769,0.0011604586141183973
1772556241000150300,7.313150390625,-0.01349251877963543,-0.006078616660786793,0.0071933455701917405
1772556241010081300,7.323081298828125,-0.017082067704200742,0.004795961005683057,-0.006319467078801244
1772556241020012300,7.33301220703125,-0.03174947548210621,0.002052155889989808,0.0008656038533896207
1772556241029943300,7.342943359375,-0.02037526403069496,-0.006887654321617446,-0.0014443535894155502
1772556241039874300,7.352874267578125,-0.013490765213966369,0.0007261656999471597,-0.008706124753318726
1772556241049806300,7.362806396484375,-0.014388590836524962,-0.009457390645192935,-0.011296853632573038
1772556241059737000,7.372737060546875,-0.019476269364356993,0.0031566533830366095,-0.005891085598897189
1772556241069668400,7.38266845703125,-0.015282909327745437,-0.005638709139870479,-0.01025236781463027
1772556241079599400,7.392599365234375,-0.007201894202828407,-0.00784137484987732,-0.00695023926300928
1772556241089530000,7.402530029296875,-0.012438625812530517,0.004287262564874254,-0.0031858817608095705
1772556241099461400,7.41246142578125,-0.023959552258253095,-0.003573839898779988,-0.0035656565923243757
1772556241109392400,7.422392333984375,-0.023658523485064507,-0.0034140644934959707,-0.006816036690399051
1772556241119323100,7.4323232421875,-0.023662030616402624,0.007849160864111035,-0.004759853079263121
1772556241129254400,7.44225439453125,-0.02560848850905895,0.003619864147726912,0.005479362992849201
1772556241139185200,7.45218505859375,-0.02037058785557747,-0.0047161600680090485,-0.004810359423793852
1772556241149116200,7.4621162109375,-0.019623568880558013,0.007622841294948011,-0.00428337640762329
1772556241159047400,7.47204736328125,-0.026359599137306212,0.006327301042096224,0.000670282210689038
1772556241168978200,7.481978271484375,-0.016933014622330666,0.00244047935414128,0.0022920564599335194
1772556241178909200,7.4919091796875,-0.02007598882317543,-0.009253399355558212,-0.009705127461720257
1772556241188840400,7.50184033203125,-0.022173837885260582,-0.0047659768593730405,-0.008241265454236417
1772556241198771200,7.511771240234375,-0.013494272345304488,0.005849205518816597,-0.0017646533186547457
1772556241208702200,7.5217021484375,-0.0039162966609001156,-0.008059664092923049,-0.009633432198688388
1772556241218633200,7.53163330078125,-0.013044775012135504,-0.006791977678088005,0.0027745244809426364
1772556241228565200,7.541565185546875,-0.022025953847169873,-0.012375344468106049,0.004582085359562188
1772556241238496300,7.551496337890625,-0.025166005438566206,0.0012259319156291894,-0.004122139697615057
1772556241248427300,7.56142724609375,-0.018583119916915893,-0.00022458655309164896,-0.006904756153468042
1772556241258358300,7.571358154296875,-0.009156535401940346,0.0017175011251238173,-0.00528310976838693
1772556241268289300,7.581289306640625,-0.020225626426935196,0.0003359767889836803,0.0015125051884911955
1772556241278220300,7.59122021484375,-0.014987141251564026,0.0021843560184701344,-0.005161967606749385
1772556241288151300,7.6011513671875,-0.02336860062777996,0.00046561963419662785,0.0004123253942467272
1772556241298082300,7.611082275390625,-0.028754969841241835,-0.004198588767577894,0.010620525273587554
1772556241308013300,7.621013427734375,-0.026660627910494804,-0.0052951289997436105,-0.006022895285021514
1772556241317944300,7.6309443359375,-0.013044190490245819,0.0062519022849039175,0.0007189253916963935
1772556241327875300,7.640875244140625,-0.013192659050226211,0.005876915509649552,0.0041877157471142705
1772556241337806300,7.650806396484375,-0.013788871377706527,-0.0013207431927672586,0.007148136455286294
1772556241347737300,7.6607373046875,-0.012740823629498481,-0.0016124972475343384,-0.0104645492605865
1772556241357668400,7.67066845703125,-0.021419804647564888,0.005443933203152846,-0.007043013846687972
1772556241367599400,7.680599365234375,-0.01737666673660278,-0.001105842350050807,-0.0037558819347992536
1772556241377530400,7.6905302734375,-0.01094224977493286,-0.0005816015635267831,0.0013459529825486241
1772556241387461000,7.700461181640625,-0.02291325807571411,-0.003380093725235201,-0.01031447326540947
1772556241397393200,7.71039306640625,-0.025007015484571456,-0.005419988355273381,-0.011362703676708042
1772556241407324400,7.720324462890625,-0.02320785710811615,-0.008438502776098903,0.0009343217080458998
1772556241417255400,7.73025537109375,-0.02186053415238857,0.0036765171052538788,0.0032329905718564986
1772556241427186200,7.740186279296875,-0.022460253611207008,0.013943018476513679,0.0013832893182523548
1772556241437117400,7.750117431640625,-0.016624387064576147,-0.004505542674765457,-0.003992850762140006
1772556241447048200,7.760048095703125,-0.010039747977256774,-0.003439851955301128,-0.006931498029921203
1772556241456979200,7.769979248046875,-0.025750527328252792,0.0003057780135422945,0.003582991319615394
1772556241466910500,7.779910400390625,-0.016621464455127716,-0.0030630727984709664,-0.0015974617918953298
1772556241476841200,7.78984130859375,-0.010040332499146461,0.0029466319281258617,-0.010850826898124069
1772556241486772200,7.799772216796875,-0.02694879720211029,-0.002083418677933514,-0.011573825676739214
1772556241496703700,7.809703857421875,-0.01781681171953678,-0.004110284863039851,-0.0007278758831322193
1772556241506634800,7.819634765625,-0.01781681171953678,-0.001576473802793771,-0.0034122378625907
1772556241516565800,7.829565673828125,-0.013778934505581856,-0.003441443407477345,0.00021015388565137982
1772556241526496800,7.839496826171875,-0.017369067952036858,0.0013640708778402768,0.015086400374956429
1772556241536427800,7.849427734375,-0.010335516053438186,-0.014937975197460035,0.005437661009281874
1772556241546358800,7.85935888671875,-0.013331190738081932,-0.0019544905020622534,0.00004758373508229851
1772556241556289800,7.869289794921875,-0.01617255164384842,0.003968419573782011,-0.007527911286801099
1772556241566220800,7.879220703125,-0.014373393267393111,0.0036765330882743,-0.01737246548552066
1772556241576152800,7.88915283203125,-0.019759762480854988,0.0018367641402175648,-0.01589671211084351
1772556241586083800,7.899083740234375,-0.02275017646849155,0.005100387312355451,-0.005460055504180491
1772556241596014800,7.909014892578125,-0.02349485735595226,0.0022558960178750568,-0.005285794915817678
1772556241605945900,7.91894580078125,-0.023343466186523436,0.00759057842658367,-0.0027837672333233055
1772556241615876600,7.928876708984375,-0.013915128105878829,0.003274487059446983,-0.005539605280105025
1772556241625808000,7.938807861328125,-0.014209727138280868,-0.0033503927067155014,-0.002157926952559501
1772556241635739000,7.94873876953125,-0.007476034969091415,-0.005156136087584309,-0.0012690152888186275
1772556241645669600,7.958669677734375,-0.007324643799662589,-0.0015315957647399044,0.00568971780790016
1772556241655601000,7.968600830078125,-0.01629880837202072,0.0002733393319533206,0.005932422256283462
1772556241665532000,7.978531982421875,-0.017196633994579314,0.0019028721959679386,-0.0013966602564789354
1772556241675462700,7.988462646484375,-0.009411971467733383,0.0091918350441847,-0.016921013657283036
1772556241685394000,7.998393798828125,-0.014050737184286117,0.0033295554146636278,-0.015713793291989714
1772556241695325000,8.008324951171875,-0.010157236877083777,-0.00160812931638211,0.019030589689780025
1772556241705255700,8.018255615234375,-0.03334522024095058,-0.01023958824815927,-0.005182005747780203
1772556241715187000,8.02818701171875,-0.03334755832850933,-0.006302230532921385,-0.006380385219492018
1772556241725117700,8.03811767578125,-0.02587035431563854,0.0059682767376652915,0.0071561005660332735
1772556241735048700,8.048048583984375,-0.023472061002254484,0.005595141709491144,-0.0006822831757366657
1772556241744980700,8.057980712890625,-0.002974631896615028,0.002946570279332809,-0.001450819862820208
1772556241754912000,8.067912109375,-0.01823942104578018,0.00023799402393633498,-0.015006393941305577
1772556241764842800,8.0778427734375,-0.029760932013392447,-0.00042071191339055074,-0.009467391449399292
1772556241774773800,8.087773681640625,-0.02273030272424221,0.0023233397974749092,0.016875293085724115
1772556241784704800,8.097704833984375,-0.011950550034642219,-0.00226981722866185,-0.0003251403011381626
1772556241794635800,8.1076357421875,-0.004469838890433312,0.0043171782125253225,-0.0075852857635356485
1772556241804566800,8.11756689453125,-0.01838555151820183,-0.0015492044866667128,0.007518540670257061
1772556241814497800,8.127497802734375,-0.00820610280930996,-0.006801364277652464,-0.012875391528289764
1772556241824428800,8.1374287109375,-0.011498130092024803,-0.00026405091380001975,-0.004786101765371859
1772556241834359800,8.14735986328125,-0.03169803755581379,-0.00017717406465671956,-0.009664594521932303
1772556241844290800,8.157290771484375,-0.017033552387356758,0.004469519230024889,0.004262991206720471
1772556241854221800,8.167221923828125,-0.0020686229676008224,0.00385898383295862,-0.004355984986107796
1772556241864152800,8.17715283203125,-0.018079262048006056,-0.009635226863552816,-0.012404047689493745
1772556241874083800,8.187083740234375,-0.02691080327928066,0.0009216882720473222,-0.0013381898012012243
1772556241884014800,8.197014892578125,-0.008204933765530586,-0.0033096862369915467,0.0005102693433873355
1772556241893945600,8.206945556640624,-0.019277531921863555,-0.007544577010523062,-0.00018624328710138796
1772556241903876900,8.216876953125,-0.015984920117259025,0.004371515915379859,-0.0035954854750074442
1772556241913808000,8.226807861328124,-0.0025157822132110593,0.002871130422945134,0.0014475136608816683
1772556241923740000,8.236739990234375,-0.011791560080647467,-0.0029116519462899304,-0.0059494281900115305
1772556241933670700,8.246670654296874,-0.014631751942634582,0.00431178280148888,-0.0011209485876373946
1772556241943602000,8.256601806640624,-0.01388064131438732,0.007160057505231816,-0.014850089134741574
1772556241953532700,8.26653271484375,-0.020015783068537712,-0.000564723493962083,-0.012002864743769168
1772556241963463700,8.276463623046874,-0.0158247611194849,-0.00138080966679845,-0.0012981865843757986
1772556241973395000,8.28639501953125,-0.010134440523386001,0.0010811508667888119,0.0010060169710777698
1772556241983325700,8.29632568359375,-0.021204700592160224,-0.006251342879189178,0.0056462439923547205
1772556241993256700,8.306256591796876,-0.0180599728256464,0.00213752576863626,0.0022054193560965356
1772556242003188000,8.31618798828125,-0.017611060014367103,0.002005800564191304,-0.007827369157411158
1772556242013118700,8.32611865234375,-0.009079378512501715,0.0035048800155287607,0.010402663005515933
1772556242023049700,8.3360498046875,-0.016258476361632346,0.0007590016737580299,0.0010346402773633598
1772556242032980700,8.345980712890626,-0.033761984348297115,-0.003965284618490841,-0.016229926120582966
1772556242042911700,8.355911865234376,-0.026132804644107818,0.0054924462367082014,-0.014414035805035382
1772556242052842800,8.3658427734375,-0.02703238383233547,0.0048157776677166106,-0.008236698876973241
1772556242062773800,8.375773681640625,-0.014463409638404845,-0.002168758873827755,-0.007676617308799177
1772556242072704800,8.385704833984375,-0.019703648379445073,0.002905959707731381,-0.0012393325366079806
1772556242082635800,8.3956357421875,-0.028080431580543515,-0.005450276178971398,0.0016024667605757713
1772556242092566800,8.40556689453125,-0.014013327783346175,-0.0004950946071418002,0.0007807020489126443
1772556242102498800,8.415498779296875,-0.01790565904676914,-0.000785428456380032,-0.007085775276180356
1772556242112429800,8.425429931640625,-0.025090017592906952,0.006100661812524777,-0.004968728323280811
1772556242122360800,8.43536083984375,-0.02703238383233547,-0.006107372397813014,0.0004242898266762495
1772556242132291800,8.445291748046875,-0.02149462344944477,0.0017623974294867365,0.0015427907289005814
1772556242142222800,8.455222900390625,-0.024637597650289535,0.0029623706366633993,-0.006257544291112572
1772556242152153900,8.46515380859375,-0.014459902507066726,-0.004732127105409745,-0.01674943821635097
1772556242162084900,8.4750849609375,-0.003986439287662506,0.0015464554071542805,0.007413253664877265
1772556242172015900,8.485015869140625,-0.0027870003700256347,-0.008819885042810347,-0.001149352698214352
1772556242181947000,8.49494677734375,-0.015503858602046965,0.003616774858208373,-0.004631879318039864
1772556242191878000,8.5048779296875,-0.02238601933121681,-0.0006146590163349174,0.007882953535858541
1772556242201808600,8.51480859375,-0.02253331884741783,-0.01133400502189761,-0.00410392818748951
1772556242211740000,8.524739990234375,-0.026276597028970717,0.001188227970455773,0.00460532010467723
1772556242221671000,8.5346708984375,-0.00996200656592846,0.004132640542031731,-0.018068247463647276
1772556242231601700,8.5446015625,-0.014600772282481193,0.0005432788471342064,-0.02481330127706751
1772556242241533000,8.554532958984375,-0.02477671386003494,0.008260335480887442,0.01961712087346241
1772556242251464000,8.5644638671875,-0.02073123786151409,-0.008372924443311058,0.007353194040711969
1772556242261394700,8.574394775390624,-0.007861819416284561,-0.0060275075280573215,-0.00322314503127709
1772556242271326000,8.584325927734374,-0.015346037691831588,0.011007124854822177,-0.009482388089131563
1772556242281258000,8.594258056640625,-0.03539689207375049,0.007471797185391187,-0.005009754453413188
1772556242291188700,8.604188720703124,-0.0166875154286623,0.0005457036996609531,-0.002786982103716582
1772556242301119700,8.61411962890625,-0.0038140053302049633,0.0029664622898912057,-0.015548629325535147
1772556242311051000,8.624051025390624,-0.02566168000102043,0.0064615287308814,-0.010941080731153487
1772556242320981800,8.633981689453124,-0.018477905976772308,0.003858362778450828,0.004970427090022713
1772556242330912800,8.643912841796874,-0.011291209343075752,-0.0035128532594302666,0.000740808429941535
1772556242340843800,8.65384375,-0.018024901512265205,0.00039855944708688183,-0.003741725545283407
1772556242350774800,8.66377490234375,-0.013536357921361923,-0.0015316779631306416,0.005933591300062835
1772556242360705800,8.673705810546876,-0.014280454286932944,-0.00865746558929095,0.015268497209902853
1772556242370636800,8.68363671875,-0.021312837141752243,0.002821831938100513,-0.007557137381285429
1772556242380567800,8.69356787109375,-0.02176291899681091,0.004031340158602688,-0.008056702667567878
1772556242390498800,8.703498779296876,-0.021911387556791305,0.004355806889594532,-0.00798542752964422
1772556242400429800,8.713429931640626,0.0020317980885505675,0.009086997846665326,-0.0032924839404411613
1772556242410360800,8.72336083984375,-0.01128653316795826,0.007225626704865135,0.0013347374687902628
1772556242420291800,8.733291748046875,-0.03223229056298733,-0.0015380346386809833,-0.013125786092784255
1772556242430222800,8.743222900390625,-0.018315408891439438,0.0015818669305415823,-0.0038548670635558664
1772556242440153900,8.75315380859375,-0.02310322768986225,0.0014445065697538666,0.003501322651840746
1772556242450084600,8.763084716796875,-0.02085807911157608,-0.001819452245812863,0.003115994862373918
1772556242460015900,8.773015869140625,-0.009782558345794678,0.006191000127233564,-0.008718582376092672
1772556242469948000,8.782947998046875,-0.017414076137542724,0.0029417890729382633,-0.004931739047449082
1772556242479879000,8.79287890625,-0.03596504735052585,0.005704084259970113,0.01382284671254456
1772556242489809700,8.8028095703125,-0.03356967664659023,-0.005259772275283466,-0.00659852148219943
1772556242499740000,8.812739990234375,-0.03326981691718101,0.002887668282503728,0.0019584223250858485
1772556242509671000,8.8226708984375,-0.015610826107859611,0.005112493308680132,-0.019787344607524574
1772556242519602200,8.832602294921875,-0.021139234140515325,0.00818822237603599,-0.01986422750232741
1772556242529533000,8.842532958984375,-0.03235328659415245,0.018608368522603995,-0.015770181388035414
1772556242539464000,8.8524638671875,-0.024169980138540267,0.026934476415812966,-0.06057597618959844
1772556242549395000,8.86239501953125,-0.030364158603549,-0.005630872893286868,-0.005384122457448392
1772556242559326000,8.872325927734375,-0.011793313646316528,-0.04182552318202797,0.07918837699992581
1772556242569257000,8.882257080078125,0.022822072660923003,0.0001433402937138453,0.03280751490136608
1772556242579188000,8.89218798828125,-0.007691723546385765,-0.04558596712751314,-0.02806505134832114
1772556242589119000,8.902118896484374,-0.04182429477274418,-0.04284799809756223,-0.02532945237196982
1772556242599050000,8.912050048828124,-0.028354572346806526,0.04447557189993094,0.009399787839595228
1772556242608981000,8.92198095703125,-0.06783785695135593,0.16919864706443621,-0.01566536930669099
