time,seconds_elapsed,z,y,x
1772445490518530000,0.071530029296875,-0.022620997130870818,0.0018213245424907655,-0.0025308747510658577
1772445490528463000,0.081463134765625,-0.032793431577086446,-0.0024026772275567054,-0.0049350315496558324
1772445490538395100,0.09139501953125,-0.02740706236362457,-0.003992220574477687,-0.004549128371453844
1772445490548327200,0.1013271484375,-0.008252280038595199,-0.005850707922736183,0.0034164619465591383
1772445490558259200,0.11125927734375,-0.016183657559752464,-0.005099195435689762,0.013201904085895512
1772445490568191000,0.12119091796875,-0.014985972207784653,-0.006773932848032563,0.0000013791063334792852
1772445490578123000,0.131123046875,-0.03129530197381973,-0.0035521851893980053,-0.003392647246131673
1772445490588056000,0.14105615234375,-0.02037000333368778,0.0018681228262837975,0.00934700048972154
1772445490597988000,0.150988037109375,-0.002562543964385986,-0.0024488727231509982,0.009065776962123346
1772445490607920000,0.160920166015625,-0.022017770540714264,-0.0032683450130280107,0.002244532090355642
1772445490617852200,0.17085205078125,-0.01992518217563629,0.0012140702311880887,-0.0064711573590408075
1772445490627784200,0.1807841796875,-0.028156419426202773,-0.008067881648708135,-0.0035607863376731982
1772445490637716000,0.190716064453125,-0.014237199667096138,-0.006568007612926885,0.0036980873329564927
1772445490647648000,0.20064794921875,-0.013490180692076682,-0.0006775156690739095,0.0022933921837829984
1772445490657581000,0.2105810546875,-0.0130406833589077,-0.0018808635768480597,-0.0021234812602633608
1772445490667513000,0.22051318359375,-0.011543722799420356,-0.00467526180204004,-0.016196021567692512
1772445490677445000,0.230445068359375,-0.008401917642354964,-0.003796780200768262,-0.009747219887643587
1772445490687377200,0.240377197265625,-0.022020693150162696,-0.007454608588572591,0.00392466948031215
1772445490697309200,0.25030908203125,-0.016635492980480192,-0.009166846733400598,0.0007518001814140006
1772445490707241000,0.260240966796875,-0.014542904615402221,-0.0042356008762959385,0.006079043635760899
1772445490717174300,0.27017431640625,-0.014990648382902145,-0.00594287058506161,-0.008579224137752316
1772445490727106300,0.280106201171875,-0.020227379992604256,0.0014088804172351956,-0.014353268361394294
1772445490737038300,0.290038330078125,-0.01903027916252613,0.0010945811705198138,0.0019463460115133784
1772445490746970400,0.299970458984375,-0.02397299626171589,0.0005502634270582347,0.004366979020868893
1772445490756902400,0.30990234375,-0.02232932070791721,-0.005211149643873795,0.004627367539703846
1772445490766834400,0.31983447265625,-0.026968670946359633,-0.014844654907798394,0.003002419519261457
1772445490776767500,0.329767578125,-0.02203179906606674,-0.008630776228476316,-0.004346892930776812
1772445490786699300,0.33969921875,-0.019488544324040413,-0.010807115620560944,-0.0021622697675367816
1772445490796631300,0.34963134765625,-0.019493220499157905,-0.003372727836109698,0.0030870427625253796
1772445490806563300,0.359563232421875,-0.023831541964411736,-0.009156663266103714,0.007317796217056457
1772445490816495400,0.369495361328125,-0.012606968116760254,-0.0030156945593655107,0.001441049670765642
1772445490826427400,0.379427490234375,-0.020237901386618615,-0.004215096944384276,0.004620204863266554
1772445490836359400,0.389359375,-0.015302198550105095,0.00001007386944256723,0.0062201257570181035
1772445490846292500,0.39929248046875,-0.01934709002673626,-0.00010735109830275177,0.007925436404137872
1772445490856224300,0.409224365234375,-0.020995441755652426,-0.00025118001578375694,-0.0027693916480988263
1772445490866156300,0.41915625,-0.016511574339866636,-0.005019572594529017,0.00017866505213314667
1772445490876088300,0.42908837890625,-0.01606266152858734,-0.006037407867563888,-0.000038738274923525745
1772445490886020400,0.439020263671875,-0.022798107263445853,-0.0054222807770594956,-0.0005023623148561455
1772445490895952400,0.448952392578125,-0.017111293798685073,0.005309449786040932,0.006745754783030133
1772445490905885400,0.458885498046875,-0.0060381111204624175,0.0003730162971653044,-0.005793000085861422
1772445490915817500,0.4688173828125,-0.025640052691102026,-0.004293121483502909,0.0029464172989944926
1772445490925749200,0.478749267578125,-0.017708675169944763,-0.00683817545697093,-0.0026911753127351404
1772445490935681300,0.488681396484375,-0.008877718460559845,0.0031781277126166968,-0.0007660433358978479
1772445490945613300,0.49861328125,-0.024440613773465156,-0.0005084883782546967,-0.00357538111860631
1772445490955545300,0.50854541015625,-0.028629882156848904,-0.0005398881635162979,-0.00885396084234817
1772445490965478400,0.518478515625,-0.014117372679710386,-0.0010072408137843012,-0.010061774862685707
1772445490975410400,0.528410400390625,-0.02024900730252266,0.0007706738452427089,0.0029343113026698117
1772445490985342500,0.538342529296875,-0.016506898164749144,-0.005483335915068164,0.005209096967393998
1772445490995274200,0.548274169921875,-0.016058569875359533,0.001580848583811894,0.001673066045064479
1772445491005206300,0.558206298828125,-0.020100538742542265,0.0026014238032046706,0.002865349136129953
1772445491015138300,0.56813818359375,-0.015908347749710082,-0.0015924659563694148,-0.00022699085602071134
1772445491025070300,0.5780703125,-0.016655951246619224,-0.0035826716592069715,0.0030738339377916414
1772445491035003400,0.58800341796875,-0.018451017969846724,0.0017081008258275686,0.007557342877262271
1772445491044935400,0.597935302734375,-0.020099369698762894,-0.0038930345163214948,0.0038174485294613985
1772445491054867500,0.607867431640625,-0.01920095955431461,-0.004654447342874482,-0.009310883430147077
1772445491064799200,0.61779931640625,-0.024736966371536252,-0.0001461944045033306,0.003905416790570598
1772445491074731300,0.627731201171875,-0.015160159730911255,0.0004227189240977168,-0.0024237725312239488
1772445491084663300,0.637663330078125,-0.009921674555540085,-0.00896021824539639,0.0059734004373545755
1772445491094596400,0.647596435546875,-0.01919920598864555,-0.0017782069199718533,0.00011065501695265993
1772445491104528400,0.6575283203125,-0.022939561560750006,-0.000597089110314846,0.002798526411037892
1772445491114460400,0.66746044921875,-0.023985271221399304,-0.00006431567417457699,0.0005308417739579454
1772445491124392400,0.677392333984375,-0.020545359900593755,0.0008094075535889715,0.001338667008525226
1772445491134324200,0.68732421875,-0.026083120283484456,-0.003518164188787341,-0.0012865555120864882
1772445491144256300,0.69725634765625,-0.019498481196165082,-0.00365780098834075,0.0013111191311851143
1772445491154188300,0.707188232421875,-0.019051906472444532,-0.005480906495964154,0.007325059358193538
1772445491164121300,0.717121337890625,-0.018006196811795234,0.006353679875656962,0.006447767350298818
1772445491174053400,0.727053466796875,-0.019205051207542418,-0.005199897597497329,0.0011979958792217075
1772445491183985400,0.7369853515625,-0.02055120511949062,-0.0013045067273080347,-0.005332115992286708
1772445491193917200,0.746917236328125,-0.008280337089300155,0.0013635251718573272,-0.0018037980189546943
1772445491203849200,0.75684912109375,-0.015913023924827574,-0.004992136598331853,-0.0017904156642849557
1772445491213781200,0.76678125,-0.021001286974549293,0.0015812230431474744,-0.005378457618353423
1772445491223714300,0.77671435546875,-0.018607669836282727,-0.004219161198148504,-0.0024775668113841674
1772445491233646300,0.786646240234375,-0.01576513988673687,-0.004276480875955895,-0.011468657402368262
1772445491243578400,0.796578369140625,-0.020254852521419522,0.002653227055678144,-0.004201828754146117
1772445491253510400,0.806510498046875,-0.014422493106126784,-0.002798526411037892,-0.005139653026952873
1772445491263442200,0.816442138671875,-0.012626841861009597,-0.002251021196646616,0.001875057173857931
1772445491273374200,0.826374267578125,-0.025047932016849517,-0.0024884010159410535,-0.003218162895482965
1772445491283307300,0.836307373046875,-0.027892215532064436,-0.0004649506306275725,0.007041568524984177
1772445491293239300,0.8462392578125,-0.022655483922362326,0.004333444360736757,0.0031436843036091885
1772445491303171300,0.85617138671875,-0.022207155632972715,-0.004451590847689658,0.0017781612541992217
1772445491313103400,0.866103271484375,-0.00784311471581459,-0.00042112975521013137,0.002088741023733746
1772445491323035400,0.876035400390625,-0.00978723452091217,0.000983887337660417,0.0031522671855753284
1772445491332967200,0.88596728515625,-0.01966506993472576,0.002591605662088841,-0.004688061918108724
1772445491342899200,0.895899169921875,-0.02191021851301193,-0.0009892667656764388,0.005512221799546387
1772445491352832300,0.905832275390625,-0.02325929503440857,-0.0013010452617425471,-0.003855294038529973
1772445491362764300,0.915764404296875,-0.011738953110575675,0.0012410039038863033,0.0017545977155212311
1772445491372696300,0.9256962890625,-0.026550737795233724,-0.0026314901479054242,0.008770862835890148
1772445491382628400,0.93562841796875,-0.024009236618876457,0.002144546881178394,0.006844484183460008
1772445491392560400,0.945560302734375,-0.020569325298070908,0.0018008480100426823,0.0012275895831757224
1772445491402492200,0.9554921875,-0.026702713486552235,0.0016918894765432923,0.008480656850815284
1772445491412424400,0.965424560546875,-0.02131634427309036,-0.008126187707204371,0.0023725104181561616
1772445491422357200,0.975357177734375,-0.01608136622905731,0.0019214056497905403,0.004646729827299714
1772445491432289300,0.985289306640625,-0.025808394995331763,0.0008920808683615177,-0.004362106482929084
1772445491442221300,0.99522119140625,-0.02236731463074684,-0.009396783031756058,-0.0046992660154239274
1772445491452153300,1.0051533203125,-0.020270050090551377,-0.0027807441591750828,0.003988361816690303
1772445491462085400,1.01508544921875,-0.021018238109350204,0.006828841373044997,0.005546644658956211
1772445491472017400,1.025017333984375,-0.01308686058819294,-0.000520297547057271,0.0010143966403556987
1772445491481950200,1.0349501953125,-0.024458149430155753,0.0006232099322602152,-0.0012624873666209169
1772445491491882200,1.04488232421875,-0.02535714409649372,-0.010389830923406406,0.005203039402654394
1772445491501814300,1.054814208984375,-0.023410101681947706,-0.0031330829944927244,0.003214651197567582
1772445491511746300,1.064746337890625,-0.022810966745018958,-0.005033984712371603,0.001551072216767352
1772445491521678300,1.07467822265625,-0.022362053933739662,-0.0028150756870396433,0.002222069096798077
1772445491531610400,1.0846103515625,-0.019669746109843254,-0.0015249080123379826,-0.003703480460704304
1772445491541542400,1.09454248046875,-0.016077274575829505,0.001257534913579002,-0.002893698447779752
1772445491551475200,1.10447509765625,-0.010391630154848099,-0.0036454986291937527,0.00484204233684577
1772445491561407200,1.1144072265625,-0.02011807439923286,-0.003498938898509368,0.007059348493558354
1772445491571339300,1.12433935546875,-0.0308913973480463,-0.008159277126053348,0.00042590411173878235
1772445491581271300,1.134271240234375,-0.024008652096986768,0.0028038875727448612,0.0033255847757332957
1772445491591203300,1.144203369140625,-0.017576573222875595,-0.0026806995844934132,-0.00006395491457078605
1772445491601135600,1.154135498046875,-0.028951953718066213,-0.005024696294218301,-0.0013053835101425647
1772445491611067400,1.1640673828125,-0.01428980663716793,0.006034430459188297,0.0002543674867134541
1772445491621000200,1.174000244140625,-0.014889526095986365,0.0015913243120536207,-0.00019248579822015016
1772445491630932200,1.18393212890625,-0.013544541227817534,-0.0008282675176858902,0.005989410857239272
1772445491640864300,1.1938642578125,-0.017137012761831282,0.0021279519394040106,0.011883964771567843
1772445491650796300,1.20379638671875,-0.012649638214707375,0.0014913619357626883,0.004046715824247803
1772445491660728600,1.213728515625,-0.01803425386250019,0.002679868467431515,-0.0017936556508531792
1772445491670660600,1.22366064453125,-0.021926585125923156,0.009938050301605834,0.008319411007652525
1772445491680593400,1.233593505859375,-0.024321955829858778,0.0011851637971121817,0.004535483438591473
1772445491690525200,1.243525146484375,-0.020581015735864638,-0.001101705031050369,-0.00012741207221988587
1772445491700457200,1.253457275390625,-0.02476853055357933,-0.000031801644060760734,0.005964787872636225
1772445491710389200,1.26338916015625,-0.01459434254169464,-0.0015823190216906367,0.0025850206576753408
1772445491720321500,1.273321533203125,-0.024320202264189718,0.00486019904804416,0.006846267431881279
1772445491730253800,1.28325390625,-0.0178857853025198,-0.0006773969380650668,0.007238878912082873
1772445491740185900,1.293185791015625,-0.020877368333935737,-0.006272577463462948,0.004576160225563217
1772445491750118700,1.30311865234375,-0.017583002963662147,0.0046176133306697,0.002360498036665376
1772445491760050400,1.313050537109375,-0.027760113584995267,-0.0039480252397246654,0.000004425013368017971
1772445491769982500,1.322982421875,-0.020728315252065657,0.000925837007490918,-0.0017974185105180368
1772445491779914500,1.33291455078125,-0.02267535766661167,-0.001950668276892975,-0.0020128833255264908
1772445491789846800,1.3428466796875,-0.01923427730202675,-0.004460605271207168,-0.01156966324156383
1772445491799778800,1.35277880859375,-0.02536883453428745,-0.007491168606141582,-0.004826744303014129
1772445491809711600,1.362711669921875,-0.019532383465766905,-0.0021405008937232196,0.0027977889088098887
1772445491819643600,1.3726435546875,-0.029409634357690808,0.0010787168811075389,-0.0011156582078780048
1772445491829575400,1.382575439453125,-0.027313538861274717,0.0013439619548618793,-0.0035582792867557144
1772445491839507500,1.392507568359375,-0.024471008911728858,0.001493343830294907,0.0011743980912142433
1772445491849439700,1.402439697265625,-0.01683773755431175,-0.004041649206774309,-0.009761453908972907
1772445491859371800,1.412371826171875,-0.025217443364858625,0.00010772555763833224,-0.007132356647553388
1772445491869303800,1.4223037109375,-0.029708325043320653,-0.0047388833564706145,-0.0011191036904230713
1772445491879236600,1.432236572265625,-0.023576690420508382,0.0023628475406672804,0.003961220364726614
1772445491889168600,1.442168701171875,-0.023727497068047523,0.0003677556001581251,0.005635295623366255
1772445491899100400,1.452100341796875,-0.014599018716812132,0.005106346695683896,0.0001844120896188542
1772445491909032700,1.46203271484375,-0.02672083366513252,-0.000690676544746384,0.014183314055390655
1772445491918964700,1.47196484375,-0.017591770792007445,-0.0015269995047245174,0.0019090507750050164
1772445491928896800,1.481896728515625,-0.021931261301040648,0.0018934947295580057,-0.004453360396379139
1772445491938828800,1.491828857421875,-0.026719664621353147,0.0023615597658790646,0.0006645260400488041
1772445491948761600,1.50176171875,-0.01909340752661228,0.000008987024053931236,0.0023111059369868596
1772445491958693600,1.511693603515625,-0.030315058764815328,0.0008537764182779937,0.000022230098117142915
1772445491968625700,1.521625732421875,-0.028369185394048688,-0.005140623424621299,-0.0022783590114326215
1772445491978557700,1.5315576171875,-0.010561141502857207,0.002288677192758769,-0.0005026796919759363
1772445491988489700,1.54148974609375,-0.016994973942637444,0.006735719729494303,0.002760384074447211
1772445491998421800,1.551421875,-0.017893968608975408,0.0027575459466781466,-0.007810950028861407
1772445492008353800,1.561353759765625,-0.00981470704972744,0.004643688486842438,0.00041116776691051197
1772445492018286600,1.57128662109375,-0.021636077746748923,-0.0017826364999171346,-0.005881278874224517
1772445492028218600,1.581218505859375,-0.02567395496070385,-0.005237763656163588,-0.002604519942589104
1772445492038150700,1.591150634765625,-0.020138532665371894,0.005002548394491896,-0.00048402979043312365
1772445492048082700,1.601082763671875,-0.02028817026913166,0.0033309436541516333,0.00439083938706899
1772445492058014700,1.6110146484375,-0.019087562307715415,-0.003028197847912088,0.0012257424026727675
1772445492067946800,1.62094677734375,-0.027615152156352994,0.0022118308305740355,0.007736339006246999
1772445492077879600,1.630879638671875,-0.015492168164253233,-0.0016987576087471098,0.004139536073699128
1772445492087811600,1.6408115234375,-0.015042086309194564,-0.00015535495849326253,0.007100226209929678
1772445492097744000,1.650743896484375,-0.01788520078063011,0.00025787461805157363,0.003853946898237336
1772445492107675600,1.660675537109375,-0.017735563176870344,-0.003816836608108133,0.0004799107377417385
1772445492117607700,1.670607666015625,-0.016238018095493315,-0.0005999021219089627,0.0039684583896887485
1772445492127539700,1.680539794921875,-0.027611645025014876,0.0059114160008728505,-0.002476349818543531
1772445492137471700,1.6904716796875,-0.022075053685903546,0.005033710717735812,-0.0029504221872542983
1772445492147404500,1.700404541015625,-0.014143676164746283,-0.0018750822900328785,0.0018916726652299983
1772445492157336800,1.7103369140625,-0.026263737547397612,0.0011489417062606662,0.002074573217774741
1772445492167268900,1.720268798828125,-0.013695347875356673,0.007927313267393037,-0.0015393749291077255
1772445492177200600,1.73020068359375,-0.017886369824409484,-0.003992284506559371,-0.004124468652019277
1772445492187132700,1.740132568359375,-0.020281740528345107,-0.0033216095702257005,0.002631250402599107
1772445492197064700,1.750064697265625,-0.016091303101181984,-0.0005075476633384824,0.011852978261548559
1772445492206996700,1.759996826171875,-0.007559621599316596,-0.0021540727613493797,-0.002286012594925705
1772445492216929800,1.7699296875,-0.01817979981303215,-0.0016559413803275674,0.010542290671914815
1772445492226861800,1.77986181640625,-0.026409868019819257,-0.003748977269977331,0.004086278366367333
1772445492236793900,1.7897939453125,-0.027907413101196286,-0.0023517964236903933,0.004586115363996941
1772445492246725600,1.7997255859375,-0.029550504133105275,0.006004711174359544,0.0058187898309552104
1772445492256657700,1.80965771484375,-0.01533551629781723,0.003608628084370866,0.0000951537704328075
1772445492266589700,1.819589599609375,-0.022518705800175665,-0.002471669076848775,0.0008436682995059527
1772445492276521700,1.829521728515625,-0.025662849044799804,0.0016572200219612569,0.0031096107873599976
1772445492286454800,1.839454833984375,-0.019979542711377144,0.00830581859042868,0.00119937955213245
1772445492296386800,1.84938671875,-0.007260346391797065,-0.009344861048273742,0.00056903205960989
1772445492306318800,1.85931884765625,-0.023272154515981674,-0.013189151918888092,0.002000539867184125
1772445492316250600,1.869250732421875,-0.021627309918403625,-0.009777626442350447,-0.0002806321558426134
1772445492326182700,1.8791826171875,-0.013097966504096984,0.00009167860513553023,-0.009105129441688769
1772445492336114700,1.88911474609375,-0.021476503270864485,0.004217078838916495,0.0008125653417664579
1772445492346047700,1.8990478515625,-0.027313538861274717,-0.00516152921533212,0.0084999141071341
1772445492355979800,1.908979736328125,-0.021480010402202605,-0.0017160649365745484,0.009395483840524684
1772445492365911800,1.918911865234375,-0.014895955836772917,0.0015690850807819515,0.010654171814862638
1772445492375843600,1.928843505859375,-0.020282325050234792,0.00020903964079916476,0.010437172629893757
1772445492385775600,1.938775634765625,-0.020434300741553304,0.0036904976815450934,0.003433132236858364
1772445492395707600,1.948707763671875,-0.01759235531389713,0.00482799554518424,0.005934593663772102
1772445492405639700,1.9586396484375,-0.03166004363298416,-0.00020028094560839234,0.005561168657941744
1772445492415572700,1.96857275390625,-0.019538813206553457,0.000933938115555793,0.0005727949192747473
1772445492425504800,1.9785048828125,-0.017743746483325957,0.0005411302725318818,-0.0008200316955917514
1772445492435436800,1.988436767578125,-0.0184913499802351,0.003804260254325345,0.00014711456982186062
1772445492445368600,1.99836865234375,-0.02268237192928791,0.002075545898731798,-0.0023818604851025154
1772445492455300600,2.008300537109375,-0.01834229689836502,0.006682391240214929,-0.0035947548226453363
1772445492465232600,2.018232666015625,-0.008915127861499787,0.003705658718058839,0.010135961193614639
1772445492475164700,2.02816455078125,-0.018342881420254708,0.005981750423880294,0.0031964008715352973
1772445492485097700,2.03809765625,-0.02193418391048908,0.002821843354543671,0.008632317448302637
1772445492495029800,2.04802978515625,-0.01909340752661228,0.005950478502782061,0.005568479748140089
1772445492504961800,2.0579619140625,-0.013853753307461738,0.0010585965416859836,-0.0012775319554144515
1772445492514893600,2.0678935546875,-0.0174456403195858,-0.0012834639392793178,0.005049040717608295
1772445492524825600,2.07782568359375,-0.02612520585954189,0.006795021301833912,0.0010203720067045651
1772445492534757600,2.087757568359375,-0.02208323699235916,0.003514236932341009,-0.003957523720432073
1772445492544689700,2.097689697265625,-0.02836684730648994,0.0028563575454987585,0.008689733024232555
1772445492554622700,2.107622802734375,-0.022680033841729164,0.0014804934818763286,0.008936716355511453
1772445492564554800,2.1175546875,-0.018938509225845335,0.003978968367259949,0.008606651000794954
1772445492574486800,2.12748681640625,-0.02851473134458065,0.0027636012281291185,-0.0016508427968132309
1772445492584418600,2.13741845703125,-0.02028290957212448,-0.0010771094459109008,0.003287115928868297
1772445492594350600,2.1473505859375,-0.01564648194313049,0.00420036516613327,-0.0014347523607197217
1772445492604282600,2.15728271484375,-0.016544307565689087,-0.007651729462714865,0.005892407623014878
1772445492614214700,2.167214599609375,-0.018190321207046507,-0.0071854819241445505,-0.0004808126367512159
1772445492624147700,2.177147705078125,-0.02477203768491745,0.004635815707640722,0.006182223165733739
1772445492634079700,2.187079833984375,-0.02327566164731979,-0.006409556515049189,0.0059541568807675496
1772445492644011800,2.19701171875,-0.01803951455950737,-0.0034767727324739096,-0.003447633402957581
1772445492653943600,2.206943603515625,-0.021928923213481902,0.002720054347347468,-0.0016860625239554792
1772445492663875600,2.21687548828125,-0.009507833057641982,0.003577748888917267,0.002747766621469054
1772445492673807600,2.2268076171875,-0.015196400088071823,0.0010780866934452205,0.0011338354686740784
1772445492683739600,2.23673974609375,-0.024475100564956664,0.005046725462935864,0.004710349098441657
1772445492693672700,2.246672607421875,-0.011010054314136505,0.005322893789503723,0.0023382702218368648
1772445492703604700,2.256604736328125,-0.023728666111826894,0.0005292297721840441,0.009634429995820391
1772445492713535500,2.266535400390625,-0.0276192438095808,-0.004425698354607448,-0.0028991692073410376
1772445492723467500,2.276467529296875,-0.023429975426197052,0.003982219770271331,-0.005154352839163039
1772445492733399600,2.286399658203125,-0.016395254483819007,-0.007940291479974985,-0.009138008797983639
1772445492743331600,2.29633154296875,-0.009511924710869788,-0.00782245552027598,0.0067964141078991815
1772445492753263400,2.306263427734375,-0.025524317356944083,-0.007714054109202698,0.0050287422816734755
1772445492763196400,2.316196533203125,-0.019538813206553457,-0.004568120766291394,-0.007610885995673015
1772445492773128400,2.32612841796875,-0.017441548666357994,-0.00098117479076609,0.0015311139908386394
1772445492783060500,2.336060546875,-0.01594458810687065,0.00031964214211329815,-0.0025392475704778916
1772445492792992500,2.345992431640625,-0.014895955836772917,-0.00543486626399681,0.0021470607819617724
1772445492802924500,2.355924560546875,-0.025521394747495648,-0.0021972086501773447,-0.0016778883506543933
1772445492812856600,2.365856689453125,-0.017591770792007445,-0.002288266200805083,0.005442481031583156
1772445492822788400,2.375788330078125,-0.035549452286958695,0.0036267208634875713,-0.0020296084147528744
1772445492832721400,2.385721435546875,-0.018639234018325804,0.0037006446162238713,-0.00007473660348914563
1772445492842653400,2.3956533203125,-0.01864040306210518,-0.0019324750330764798,-0.0025217484464053995
1772445492852585500,2.40558544921875,-0.028364509218931196,-0.0015099661715328692,-0.002489978768385481
1772445492862517500,2.415517578125,-0.02866027729511261,-0.001718850548705086,0.0040653383263270365
1772445492872449500,2.425449462890625,-0.02192716964781284,-0.0009191515383776276,0.003039283214218449
1772445492882381300,2.43538134765625,-0.020132687446475027,-0.001599480219045654,0.007390612574806436
1772445492892313600,2.445313720703125,-0.016990882289409637,-0.0019808898852206767,0.005696656722051557
1772445492902246400,2.455246337890625,-0.026267244678735733,0.0073875621011946346,0.0005110342450789176
1772445492912178400,2.465178466796875,-0.021027590459585188,0.007954886260908097,0.005009430226427502
1772445492922110500,2.4751103515625,-0.01594108097553253,0.0013233027593232691,0.006102614024304785
1772445492932042500,2.48504248046875,-0.019232523736357688,0.007249678867310285,-0.000776783925620839
1772445492941974500,2.494974609375,-0.018633973321318626,-0.0011117058352567255,0.0022532679526600986
1772445492951906600,2.504906494140625,-0.016390578308701515,0.004061659948341548,-0.007427414620970375
1772445492961838600,2.514838623046875,-0.023425299251079557,-0.000050999534875154493,0.0011829581402940674
1772445492971771400,2.524771484375,-0.02103226663470268,0.004360204503498971,0.006140445833641569
1772445492981703400,2.534703369140625,-0.026718495577573775,0.0053975207951385525,-0.002016863097611349
1772445492991635500,2.544635498046875,-0.01370119309425354,-0.002589943427965045,0.0035893068959703665
1772445493001567500,2.5545673828125,-0.02268061836361885,0.002901877187658101,0.0062676204438437706
1772445493011499500,2.56449951171875,-0.030012276425957676,0.0014783380574081091,0.0087372117280378
1772445493021431600,2.574431640625,-0.023578443986177443,0.005523485262366012,0.004358866496360861
1772445493031363600,2.584363525390625,-0.02507306645810604,0.007502630715072155,0.00032995575686218213
1772445493041296400,2.59429638671875,-0.028662615382671355,0.0038525107096880674,-0.005033571437129285
1772445493051228400,2.604228515625,-0.021779285609722136,0.0014362342150416225,0.0039147417413420045
1772445493061160400,2.614160400390625,-0.023123101434111594,0.0048353568677324795,-0.002080119325860869
1772445493071092500,2.624092529296875,-0.022674188622832298,-0.0015982472431845963,0.000579423306172248
1772445493081024800,2.634024658203125,-0.01579085884988308,-0.0021479626809712497,0.0020167694827774537
1772445493090956500,2.64395654296875,-0.02057867764830589,-0.0033586719112936405,0.003808829114877153
1772445493100888600,2.653888671875,-0.01653670878112316,0.004868601550208404,-0.002237821505067404
1772445493110821400,2.6638212890625,-0.02192249347269535,0.0014983305326662956,0.003569076958694495
1772445493120753400,2.67375341796875,-0.022969372177124022,-0.0012399809905793517,-0.002577778066135943
1772445493130685400,2.683685546875,-0.026710312271118163,0.003260974557325244,0.000990374160662759
1772445493140617700,2.69361767578125,-0.029105682975053785,0.0005141418009065092,0.0023355508250766433
1772445493150549800,2.7035498046875,-0.015042086309194564,-0.0007129249091725796,0.002858129377476871
1772445493160481500,2.7134814453125,-0.02566635617613792,0.003945166562357917,-0.003680081318807788
1772445493170413600,2.72341357421875,-0.027760113584995267,-0.0036198253318201748,0.004986551674338989
1772445493180346400,2.733346435546875,-0.02267185053527355,0.00007779621025547385,0.0026113172928453423
1772445493190278700,2.743278564453125,-0.021027590459585188,-0.001313676414452493,-0.001237839265842922
1772445493200210700,2.753210693359375,-0.01519172391295433,-0.003255439865682274,-0.0020870171408168972
1772445493210142700,2.763142822265625,-0.012947744378447533,-0.0002057791046332568,0.0030300861276104114
1772445493220074800,2.77307470703125,-0.024170564660429952,-0.0021764946557115764,0.0031085422082804143
1772445493230006500,2.783006591796875,-0.03045826662778854,-0.0019950006089638917,0.006843271757196635
1772445493239938600,2.7929384765625,-0.015195815566182136,0.003717614017333835,-0.002825391585077159
1772445493249871600,2.80287158203125,-0.008165770798921584,0.0034783253687433895,0.0030054928257595747
1772445493259803600,2.8128037109375,-0.01654547660946846,0.0011118610988836734,0.0016225528506678528
1772445493269735700,2.822735595703125,-0.02357902850806713,0.00011343377921730279,0.01135917827906087
1772445493279667700,2.832667724609375,-0.018044190734624863,0.005806576520064845,-0.0005167287669260986
1772445493289599700,2.842599853515625,-0.019988895061612128,-0.0009777407246641815,0.004199002042820211
1772445493299531500,2.852531494140625,-0.018490765458345413,-0.006602092545619234,0.0032593534223968163
1772445493309463600,2.862463623046875,-0.01938800655901432,0.001396879452187568,-0.00417430142640369
1772445493319396600,2.872396728515625,-0.02103402020037174,-0.004459646289981902,-0.004939045571070164
1772445493329328600,2.88232861328125,-0.0183387897670269,-0.003025275238463655,0.0021259175292332655
1772445493339260700,2.8922607421875,-0.022229367464780807,0.0006913615313358604,0.003920765056752134
1772445493349192700,2.902192626953125,-0.017290742018818854,0.003670167279569432,-0.00233695504758507
1772445493359124700,2.912124755859375,-0.016841829207539558,0.0006870689487084746,-0.00024336888537509365
1772445493369056500,2.922056396484375,-0.01594458810687065,0.0030171101983170953,0.0009393266767263412
1772445493378988500,2.931988525390625,-0.029262919363379478,0.001434645046154037,-0.0028002913931501096
1772445493388921600,2.941921630859375,-0.02671791105568409,-0.0008710015477146953,0.0009815035843290388
1772445493398853600,2.951853515625,-0.018784779968857763,0.00722577740191482,0.0006546713663148693
1772445493408785700,2.96178564453125,-0.026116438031196593,-0.0011640388106927274,0.005814026890869717
1772445493418717700,2.9717177734375,-0.02087853737771511,0.0014558339646551757,0.0009328695364762097
1772445493428649700,2.981649658203125,-0.02521802788674831,-0.00620335728530772,0.0019434302519308402
1772445493438581500,2.99158154296875,-0.024918168157339094,0.0013834628481883555,0.003067582293518353
1772445493448513500,3.001513427734375,-0.02207446916401386,0.007422395952558144,0.004889749369514174
1772445493458446600,3.011446533203125,-0.016838322076201437,-0.00328369784578681,0.005849358499154913
1772445493468378600,3.021378662109375,-0.009206804284453392,-0.003283341652760282,0.0018016836936818434
1772445493478310700,3.031310546875,-0.02297346383035183,0.0005703746333252638,0.004768246448272839
1772445493488242700,3.04124267578125,-0.034193361502885815,0.006071702862810343,0.0024272568296757526
1772445493498174700,3.0511748046875,-0.01832885289490223,0.0043634833059739316,-0.0065166747179115185
1772445493508106500,3.0611064453125,-0.019673837763071057,0.0008206139341928064,-0.004449446839664597
1772445493518038500,3.07103857421875,-0.014586159235239027,-0.003516766816144809,0.0013199531749007291
1772445493527971600,3.0809716796875,-0.017577742266654966,0.005063822728209197,-0.0012099717280943877
1772445493537903600,3.090903564453125,-0.018476736932992933,0.0017426972151733933,0.0051127673033159226
1772445493547835600,3.100835693359375,-0.023564415460824967,-0.005927599950693548,0.0062848181738168925
1772445493557767700,3.110767578125,-0.01578209102153778,-0.001218326281197369,0.0007945456278859637
1772445493567699700,3.12069970703125,-0.021918401819467543,-0.00038929157853126526,-0.0003155048231128603
1772445493577631500,3.130631591796875,-0.013690087178349495,0.004075862003630027,-0.006400765853817574
1772445493587563500,3.1405634765625,-0.018027824121713637,-0.004589574546273798,-0.00006126291727414355
1772445493597496600,3.15049658203125,-0.019075871869921684,0.005149062459403649,0.000569796961301472
1772445493607428600,3.1604287109375,-0.023414777857065198,-0.0037225915865506973,0.005828496090928092
1772445493617360600,3.170360595703125,-0.013986439776420593,0.0005827591908629983,-0.0011886914780479855
1772445493627292700,3.180292724609375,-0.027153379863500592,-0.0017497571436222643,0.0002847831745748408
1772445493637224700,3.190224609375,-0.027901567882299423,-0.005741338397283107,0.002610846935387235
1772445493647156500,3.200156494140625,-0.029398528441786764,-0.010488423326518385,0.0076099178812932215
1772445493657088500,3.210088623046875,-0.018175708159804342,-0.0036320546257309614,0.00003608052695635706
1772445493667021600,3.220021484375,-0.01757598870098591,0.0027513171352911737,-0.0004556393795879557
1772445493676953600,3.22995361328125,-0.01578033745586872,0.001987210028152913,0.00016569140612846239
1772445493686885600,3.2398857421875,-0.02191547921001911,-0.0023426267365459354,-0.0017635801729978993
1772445493696817700,3.249817626953125,-0.020867431461811064,0.005092911825375631,-0.001414533839887008
1772445493706749400,3.25974951171875,-0.01937280898988247,-0.003648868763213977,-0.00034297963521676134
1772445493716682000,3.269681884765625,-0.019821721801161766,0.0008605258194729685,-0.005821710157115012
1772445493726614000,3.279614013671875,-0.025059622454643247,-0.003859625437064096,-0.00401269710692577
1772445493736546000,3.289546142578125,-0.018474398845434187,-0.0013847688892856239,-0.004973799507331568
1772445493746479000,3.29947900390625,-0.025058453410863876,0.002025003021582961,0.0002035277820425108
1772445493756411100,3.3094111328125,-0.015332593688368796,-0.009909755788883194,0.0031966885659028776
1772445493766343200,3.31934326171875,-0.019074118304252624,-0.00028558460888452827,-0.0024822361366357653
1772445493776275200,3.329275146484375,-0.021768179693818092,-0.003855561183299869,0.002525920014735311
1772445493786207000,3.33920703125,-0.01533200916647911,-0.0018867361952085047,-0.0013391327994060702
1772445493796139000,3.349138916015625,-0.01937105542421341,-0.0027693916480988263,-0.0055434982872218826
1772445493806071000,3.359071044921875,-0.018024316990375516,0.004981971397344023,-0.000997865630663
1772445493816004000,3.369004150390625,-0.018324176719784736,-0.0014392664223443715,0.00008482188937487081
1772445493825936100,3.37893603515625,-0.01727788253724575,0.0015190445271320641,-0.0008546577676897868
1772445493835868200,3.3888681640625,-0.02251636771261692,-0.0003570424098987132,0.0042144028246402735
1772445493845800200,3.39880029296875,-0.015935235756635666,-0.000024221125803887843,0.0030522043445846063
1772445493855732000,3.40873193359375,-0.02581073308289051,-0.0014444905867334453,-0.0038533395434613336
1772445493865664000,3.4186640625,-0.01728314323425293,0.0018057159814052282,0.010843002067983616
1772445493875596000,3.428595947265625,-0.017281974190473556,0.00295662131588906,0.01770497852565022
1772445493885529000,3.438529052734375,-0.017429273706674575,0.0015799078688956796,-0.003034979215147905
1772445493895461000,3.448461181640625,-0.021320435926318167,-0.0021430399106815456,-0.00027060851874994115
1772445493905393200,3.45839306640625,-0.010098200166225433,-0.0008068137377034872,0.004650947061402257
1772445493915325200,3.4683251953125,-0.019675006806850432,0.004731996957957744,0.0031688415777520276
1772445493925257000,3.478257080078125,-0.029998832422494886,0.00019849084732122718,0.003870847800688352
1772445493935189000,3.48818896484375,-0.023270400950312613,0.002022829330805689,-0.0021117223238106817
1772445493945121000,3.49812109375,-0.017584756529331207,-0.0036012850281316785,-0.004970778716471978
1772445493955054000,3.50805419921875,-0.017732640567421912,0.007667922545690089,-0.0016858067956287413
1772445493964986000,3.517986083984375,-0.02431611061096191,0.009421132021723315,0.0007635888006188907
1772445493974918100,3.527918212890625,-0.02252104388773441,0.003919776392774656,0.0007636595825664699
1772445493984850200,3.53785009765625,-0.018329437416791914,-0.008161131156422197,0.000738490891980473
1772445493994782000,3.547781982421875,-0.021767595171928403,0.0024497586391400545,-0.002740766058524605
1772445494004714000,3.5577138671875,-0.01338964292705059,-0.0025362222130410374,-0.00027966404146282
1772445494014646000,3.56764599609375,-0.020123335096240043,-0.004314703127648681,0.004584667759004514
1772445494024579000,3.5775791015625,-0.021322189491987227,0.003126114397589117,0.001769009833363816
1772445494034511000,3.587510986328125,-0.029851532906293866,-0.0012232673177961259,0.0016779545660247095
1772445494044443100,3.597443115234375,-0.02072422359883785,0.0050734673393890255,0.0008739675396471284
1772445494054375200,3.607375244140625,-0.022970541220903397,0.0005041501298546791,0.0022294532522326334
1772445494064307000,3.617306884765625,-0.028657939207553863,0.006294095175527036,0.005460251867002807
1772445494074239000,3.627239013671875,-0.01953004537820816,0.0005840926314238459,0.0008556007658946327
1772445494084171000,3.6371708984375,-0.02581716282367706,-0.002539994205860421,0.011306078118644654
1772445494094104000,3.64710400390625,-0.030305706414580344,0.0007493387962691485,0.002060752471687738
1772445494104036000,3.6570361328125,-0.01653670878112316,0.0008875782231800258,-0.0015255564663093537
1772445494113968000,3.666968017578125,-0.014590835410356521,0.006245716856000945,0.005895754924148787
1772445494123900200,3.676900146484375,-0.013989362385869026,-0.004704414831288159,0.0034603558872127902
1772445494133832000,3.68683203125,-0.023714637586474418,-0.0015102766987867653,0.01237840635816101
1772445494143764000,3.696763916015625,-0.023415362378954887,-0.000007644450338557362,0.002262923980283085
1772445494153696000,3.706696044921875,-0.02042319482564926,-0.001001696988986805,0.0035433465791051273
1772445494163629000,3.716629150390625,-0.015334931775927542,0.005983074731286615,-0.001284477719431743
1772445494173561000,3.72656103515625,-0.022366145586967468,0.00396236429233104,-0.002693588748818729
1772445494183493000,3.7364931640625,-0.022515783190727234,0.003456871588760987,-0.0009284810557262972
1772445494193425000,3.7464248046875,-0.025658757391571998,0.006830156547296792,0.010199856742681004
1772445494203357000,3.75635693359375,-0.019672668719291686,0.0045921683621592815,0.0058521760773262935
1772445494213289000,3.7662890625,-0.016679916644096373,0.0011878306782338768,-0.002764802237949334
1772445494223221000,3.776220947265625,-0.010842881053686141,-0.001582456019008532,-0.005746409581333864
1772445494233154000,3.786154052734375,-0.021166706669330595,-0.0007443612270522862,-0.002805878600431606
1772445494243086000,3.796086181640625,-0.02924538370668888,0.0006379782431293279,-0.00032952878188807517
1772445494253018000,3.80601806640625,-0.020115736311674116,-0.0012799111421685665,-0.004512598036637064
1772445494262950000,3.815949951171875,-0.02400689853131771,-0.007390101118152961,0.0035916815161472185
1772445494272882000,3.8258818359375,-0.020564064601063727,0.0012208378986921162,0.005201358902221545
1772445494282814000,3.83581396484375,-0.025053192713856694,-0.004052453728578985,0.0038571891680941914
1772445494292746000,3.84574609375,-0.02056348007917404,0.009378735918411985,0.004797191698255483
1772445494302679000,3.855678955078125,-0.02714578107893467,-0.0009447974362876266,0.006579193443933036
1772445494312611000,3.865611083984375,-0.017718027520179747,-0.002087482931697741,0.010456295172183308
1772445494322543000,3.875543212890625,-0.022207155632972715,0.009462477812264114,0.004480129672295879
1772445494332475000,3.885474853515625,-0.013229483929276465,0.003985672102682292,-0.0053147104830481105
1772445494342407000,3.895406982421875,-0.030290508845448493,0.003383194431196898,-0.0051762815431808116
1772445494352339000,3.9053388671875,-0.021012392890453337,0.005144267553277314,0.007685718497284688
1772445494362271000,3.91527099609375,-0.009786649999022482,-0.005968014159472659,0.005846673351724166
1772445494372203000,3.925203125,-0.024451135167479515,0.0036304106579162177,0.001783787277387455
1772445494382136000,3.935135986328125,-0.01921323451399803,-0.0010758764700498431,-0.0018088646364281884
1772445494392068000,3.945068115234375,-0.018465046495199203,-0.0019468506183009594,-0.000998237806709949
1772445494402000000,3.954999755859375,-0.018315993413329124,-0.0010575096962973476,-0.004729343776567839
1772445494411932000,3.964931884765625,-0.02026069774031639,0.0013319061908870936,0.003718262471305206
1772445494421864000,3.974864013671875,-0.024001053312420844,0.0021892354062758384,0.0016929626222001387
1772445494431796000,3.9847958984375,-0.032680618852376934,-0.0006302150617819279,-0.008712748573638964
1772445494441728000,3.99472802734375,-0.025498598393797874,-0.001960714746871963,-0.0019802482811152
1772445494451661000,4.0046611328125,-0.02430091304183006,0.008166428386047482,0.00009064199209678918
1772445494461593000,4.014593017578125,-0.024597850161790846,0.0048651948835700745,-0.0029770247831009326
1772445494471524900,4.02452490234375,-0.025198154142498968,0.0000318655761424452,-0.0003389085315866396
1772445494481457000,4.034456787109375,-0.024450550645589826,-0.0009998977575451135,0.002197121885209344
1772445494491389000,4.044388916015625,-0.028640988072752952,-0.0033101200618315487,-0.00014712826955365016
1772445494501321000,4.054321044921875,-0.018914543828368185,0.0013634886392392218,-0.0020331612118636255
1772445494511253000,4.0642529296875,-0.025202245795726774,0.000616058672266081,-0.0034601092920405786
1772445494521186000,4.07418603515625,-0.01966506993472576,0.0032891320727299897,-0.004592490305856335
1772445494531118000,4.0841181640625,-0.018618191230297086,0.001674025026289746,-0.001984972405293956
1772445494541049900,4.0940498046875,-0.017271452796459197,-0.0034023101236205547,-0.0023363385596545413
1772445494550982000,4.10398193359375,-0.019515432330965993,0.00365624835207127,-0.00202178130132379
1772445494560914000,4.113913818359375,-0.023855507361888885,0.0011341642622370272,0.004477983380982186
1772445494570846200,4.12384619140625,-0.007544424030184745,0.0009374635132029652,-0.003607294643810019
1772445494580778200,4.1337783203125,-0.02415185995995998,0.0030051366327330468,-0.0053445667651947585
1772445494590710300,4.143710205078125,-0.018017887249588964,-0.004278791564051062,-0.0015604633829090742
1772445494600643000,4.15364306640625,-0.012333996394276618,-0.0025986290579196065,-0.005951576764613855
1772445494610574800,4.163574951171875,-0.016973931154608726,-0.0034308603646699336,0.0016264709739596582
1772445494620507000,4.1735068359375,-0.029392683222889897,0.001748843828169629,-0.0017550772061338648
1772445494630439200,4.183439208984375,-0.02834521999657154,0.003692114249896258,0.0018492149131256156
1772445494640371200,4.19337109375,-0.015028642305731773,0.00885739719173871,0.0004978436866542324
1772445494650303200,4.20330322265625,-0.013531097224354744,0.005935253534186631,0.0003650179370888509
1772445494660235300,4.2132353515625,-0.022806290569901466,0.004587930578459054,-0.000611466978827957
1772445494670168000,4.22316796875,-0.028492519512772558,0.00012068550391122698,0.004313513534271624
1772445494680099800,4.233099853515625,-0.01607493648827076,-0.0007789028174709528,0.0015977472029742783
1772445494690032000,4.2430322265625,-0.019667992544174194,0.005492195074958727,0.006982371983921621
1772445494699964200,4.252964111328125,-0.02640110019147396,0.004207160233100876,-0.004235655675223097
1772445494709896200,4.262896240234375,-0.02370703880190849,0.002969188536517322,-0.002560342874145135
1772445494719828200,4.272828125,-0.017121230670809746,0.0008810023519210517,-0.004821342042111792
1772445494729760300,4.28276025390625,-0.017719196563959122,0.0007128609770908951,-0.0033272881090524605
1772445494739692300,4.2926923828125,-0.024751579418778417,-0.0011168295349460095,0.007073365602467675
1772445494749625000,4.302625,-0.023254618859291077,0.007675539596565068,-0.007175828179810196
1772445494759557000,4.31255712890625,-0.026097148808836935,0.005240138276340439,0.0017180787971476093
1772445494769489200,4.3224892578125,-0.022955343651771543,0.00527389441546984,0.0016928256248822434
1772445494779421200,4.332421142578125,-0.013229483929276465,0.0020306290447711945,0.0038960005082539283
1772445494789353200,4.342353271484375,-0.02056348007917404,0.0010527695890981703,-0.00653963546839077
1772445494799285200,4.35228515625,-0.016974515676498412,0.007157114346185699,0.007877708821871783
1772445494809217300,4.36221728515625,-0.011437924337387084,-0.00483525640303269,-0.0020902091783238574
1772445494819149300,4.3721494140625,-0.021764088040590285,-0.008426431029103695,-0.005576505507680122
1772445494829082400,4.382082275390625,-0.020119243443012236,0.003945933747338131,0.0028405937207862733
1772445494839014100,4.39201416015625,-0.014733458751440047,0.002173224986391142,-0.0018998445552424526
1772445494848946200,4.4019462890625,-0.020270634612441062,0.0013055387737695126,-0.011752305782493203
1772445494858878200,4.411878173828125,-0.019821137279272077,-0.0003265011411625892,0.0013045797925442457
1772445494868810200,4.421810302734375,-0.022366145586967468,-0.006085923184407874,0.0075703051068237975
1772445494878742300,4.4317421875,-0.024307927304506302,0.0019538466146681458,0.0006550298426300287
1772445494888674300,4.44167431640625,-0.031489363241195674,-0.002328488613339141,-0.0038581184665672477
1772445494898606000,4.451606201171875,-0.030892566391825676,-0.002796663247514516,-0.00545344081701478
1772445494908539100,4.4615390625,-0.033139468535780904,0.0025591829635202884,0.0028089245074661446
1772445494918471200,4.47147119140625,-0.03298924641013145,0.0017489442928694187,0.0020061247911769896
1772445494928403200,4.4814033203125,-0.014583821147680281,0.0002639846984297037,0.0037112847412470724
1772445494938335200,4.491335205078125,-0.014882511833310127,-0.003515250712493434,0.0031167163815815
1772445494948267300,4.501267333984375,-0.020419103172421453,0.008441774728707968,0.005256071064411662
1772445494958199000,4.511198974609375,-0.01742518205344677,0.0010155519844032824,0.0019076625355170108
1772445494968131000,4.521131103515625,-0.01652501834332943,-0.0018557839345186948,0.0001234939489280805
1772445494978063000,4.53106298828125,-0.02056698721051216,-0.005530143332015723,-0.004076526440621819
1772445494987996200,4.54099609375,-0.019669746109843254,-0.0008512100018560886,0.005331392189790495
1772445494997928200,4.55092822265625,-0.025805472385883328,0.007544122636085376,-0.0022941251194337382
1772445495007860200,4.560860107421875,-0.014731120663881301,0.0007632851232308894,-0.0035703944162349213
1772445495017792300,4.570792236328125,-0.02146539735496044,-0.003548084403015673,0.0020215575390378944
1772445495027724000,4.58072412109375,-0.01907294926047325,0.0025216822310350833,0.003975082210008986
1772445495037656000,4.590656005859375,-0.023114333605766296,-0.0028101437835954127,0.0024047162043047137
1772445495047588000,4.600588134765625,-0.025358897662162778,-0.006556929096486419,-0.00004946516491472721
1772445495057520000,4.61052001953125,-0.019972528448700903,-0.005443789355969056,-0.0032162129669915883
1772445495067453200,4.620453125,-0.015184125128388404,-0.002771044749068096,-0.0009396486204233951
1772445495077385200,4.63038525390625,-0.017877017474174497,0.006482996210595593,0.012176291931781451
1772445495087317200,4.640317138671875,-0.02161737304627895,-0.0019290318338200448,0.006805949121224694
1772445495097249000,4.6502490234375,-0.027303017467260358,0.006430069580115378,0.0017795883095939643
1772445495107181000,4.66018115234375,-0.02161561948060989,-0.0024824735986534504,0.00006427229169057681
1772445495117113000,4.670113037109375,-0.022663082706928253,-0.0015487729451153427,0.007233992674411274
1772445495127045000,4.680045166015625,-0.024009236618876457,-0.0017090324075892567,0.0028898077239515258
1772445495136977200,4.68997705078125,-0.01727437540590763,-0.00055738728758879,-0.00006272878857562318
1772445495146910200,4.69991015625,-0.023708207845687865,-0.0025697043575346468,0.0022779708523652516
1772445495156842200,4.70984228515625,-0.03223813578188419,-0.007938565313769503,-0.002673105366504751
1772445495166774000,4.71977392578125,-0.015928806015849114,0.004553955243621021,0.006005713538068812
1772445495176706000,4.7297060546875,-0.021615034958720206,0.0023399689885787666,0.007974919835361652
1772445495186638000,4.73963818359375,-0.018921558091044424,0.0056140404894948,0.005528102071979082
1772445495196570000,4.749570068359375,-0.015628946286439894,-0.003965149904461577,0.0005343078061006963
1772445495206502100,4.759502197265625,-0.02670388253033161,0.007792580971820279,-0.002139112654235214
1772445495216434200,4.76943408203125,-0.02849778020977974,0.0049801356332842255,-0.003983669658552389
1772445495226367200,4.7793671875,-0.015928221493959425,0.00022455687033943832,-0.00095794232893968
1772445495236299000,4.789299072265625,-0.02999649433493614,0.00184893406862393,0.0016607591193402184
1772445495246231000,4.79923095703125,-0.016977438285946844,0.004225645737862214,0.0067175584517186505
1772445495256163000,4.8091630859375,-0.027450901505351066,-0.0027541210137307644,-0.0003743885536328889
1772445495266095000,4.81909521484375,-0.016376549783349036,-0.0010264843703713267,0.009513634894054847
1772445495276027100,4.829027099609375,-0.021163199537992478,0.004996356115723029,0.008365816565800923
1772445495285959200,4.838959228515625,-0.024005729487538336,0.008406328955991194,-0.00079285827758722
1772445495295891000,4.848890869140625,-0.02505260819196701,0.005386652341252193,-0.001321416762913577
1772445495305824000,4.858823974609375,-0.024752748462557792,0.0008429536301642656,0.0012685723308240994
1772445495315756000,4.868756103515625,-0.022208909198641776,0.00010299458359368145,0.0037448764835949985
1772445495325688000,4.87868798828125,-0.029394436788558957,-0.0028303280550986526,0.0003283140723360702
1772445495335620000,4.8886201171875,-0.022961773392558095,-0.002266922018676996,0.0021962770684156568
1772445495345552100,4.89855224609375,-0.029395605832338332,0.0038287827742286024,0.0036714185217395423
1772445495355484200,4.908484130859375,-0.01622398957014084,0.0018680223615840075,-0.0030804897241527214
1772445495365416000,4.918416015625,-0.016373627173900604,0.0051425596533808855,0.003654529035731684
1772445495375348000,4.928347900390625,-0.025351298877596854,-0.0045890539564657955,0.0054571443111752155
1772445495385280300,4.9382802734375,-0.02056348007917404,0.0014717713193036614,0.0035636084824218414
1772445495395213000,4.948213134765625,-0.017421674922108648,0.002534359049517661,-0.0025182824142626486
1772445495405145000,4.95814501953125,-0.020412088909745215,-0.0030102785987313834,-0.0008308613335713744
1772445495415077000,4.9680771484375,-0.021159692406654357,-0.0017287782876752316,-0.000017467158031649887
1772445495425009200,4.978009033203125,-0.025050270104408263,0.006505271974485367,-0.003208084459463134
1772445495434941000,4.98794091796875,-0.022657237488031386,0.010335908779082819,0.005682815426366869
1772445495444873200,4.997873291015625,-0.02205927159488201,0.003666778879240155,-0.004212208584265318
1772445495454805200,5.00780517578125,-0.03208440652489662,0.000020741393929347394,0.0012850394084351136
1772445495464737300,5.0177373046875,-0.01143500172793865,0.004833548503136262,0.0019375873163226059
1772445495474670000,5.027670166015625,-0.022360884889960287,0.0003271130625158548,-0.009756373591767623
1772445495484602000,5.03760205078125,-0.02700023512840271,0.004265274495352059,-0.003551888361875899
1772445495494534100,5.0475341796875,-0.02131342166364193,0.0021200608938932415,-0.005502613720984663
1772445495504466200,5.057466064453125,-0.01547580155134201,-0.004726818459341303,-0.006821989223861601
1772445495514398200,5.067398193359375,-0.023106150299310683,0.0038836456334684043,0.0007987103463499806
1772445495524330200,5.077330322265625,-0.029840426990389822,-0.002850210932502523,-0.004972564248181879
1772445495534262300,5.08726220703125,-0.017270283752679822,-0.000022385361744090913,-0.00017639317994471638
1772445495544194300,5.0971943359375,-0.01846738458275795,0.002207419516937807,-0.006949444678565487
1772445495554126000,5.1071259765625,-0.01667231785953045,-0.0005617986012250185,-0.002101881349808536
1772445495564059100,5.11705908203125,-0.016224574092030524,0.004307314405636861,0.00013928517310414463
1772445495573991200,5.1269912109375,-0.024906477719545364,0.009558604263653979,0.006072965521423611
1772445495583923200,5.136923095703125,-0.020119243443012236,-0.005620817290153354,-0.005868323494528886
1772445495593855200,5.146855224609375,-0.024009236618876457,-0.0025068773875478656,0.00005753202365012839
1772445495603787300,5.156787353515625,-0.021318682360649106,-0.00010526873907074332,0.0062899898225674405
1772445495613719300,5.16671923828125,-0.023562077373266217,-0.0014014003636781125,0.003407385874248575
1772445495623651000,5.176651123046875,-0.01727788253724575,-0.0015008056175429374,0.0025752778650843535
1772445495633583000,5.1865830078125,-0.027153379863500592,-0.0017000727829989044,0.004400595879391767
1772445495643516200,5.19651611328125,-0.02176642612814903,0.0003733724901918322,-0.0027862811341066844
1772445495653448200,5.2064482421875,-0.021916063731908797,0.007684252625983208,0.0028348854992073028
1772445495663380200,5.216380126953125,-0.022064532291889188,-0.0018007201458793132,-0.0028507749047945253
1772445495673312300,5.226312255859375,-0.010543021324276923,0.0021128091691993175,0.013844138379034119
1772445495683244300,5.236244384765625,-0.01787643295228481,0.002220461661601439,0.001013729920075275
1772445495693176000,5.246176025390625,-0.027754268366098404,-0.0039602362673263995,0.0006245205399347469
1772445495703108000,5.256108154296875,-0.027156302472949027,0.0024875150999519972,0.0015114160598139277
1772445495713040100,5.2660400390625,-0.02251812127828598,0.0034487156817689536,-0.002101123297982849
1772445495722974500,5.275974365234375,-0.011595160725712775,0.00753624985688366,-0.0051056845419807356
1772445495732907500,5.285907470703125,-0.022367899152636525,0.0005697718451265245,0.0023451155211543662
1772445495742839600,5.295839599609375,-0.0264081144541502,-0.0000499126894865185,-0.002065563360834494
1772445495752771600,5.305771484375,-0.022369652718305585,0.001237843832420185,-0.0011112948433030397
1772445495762703600,5.31570361328125,-0.014437690675258635,0.001323613286577165,0.005682395301258657
1772445495772635400,5.325635498046875,-0.0253624047935009,-0.0030582915920764208,-0.0025526618911884723
1772445495782567400,5.3355673828125,-0.03134498633444309,0.00397310488205403,0.005835261475143488
1772445495792499500,5.34549951171875,-0.020422610303759574,0.004060700967116282,0.010856416388694196
1772445495802431500,5.355431396484375,-0.01174479832947254,-0.0020210026999004185,0.00007702217540936544
1772445495812364500,5.365364501953125,-0.016683423775434494,0.0002538103642873466,0.0003305448453291319
1772445495822296600,5.375296630859375,-0.025063129585981368,0.004281367113627493,0.00515990351382643
1772445495832228600,5.385228515625,-0.016833645901083945,-0.0016747739449609071,0.0019679185225046237
1772445495842160400,5.395160400390625,-0.01518821678161621,0.004776667216746136,0.0023428961646044626
1772445495852092400,5.405092529296875,-0.019376900643110276,0.004246286667091772,-0.00043999428588431327
1772445495862024400,5.4150244140625,-0.013091536763310431,0.006292012816295028,0.0012285097484942525
1772445495871956500,5.42495654296875,-0.017730887001752852,0.00466915172166191,0.00560232265223749
1772445495881888500,5.434888427734375,-0.022518705800175665,0.0004503467165399342,0.006193545994057786
1772445495891821600,5.444821533203125,-0.02207096203267574,0.0036714002554304897,-0.0024720435361843553
1772445495901753600,5.454753662109375,-0.018630466189980505,0.008516200804943218,-0.002973812195996288
1772445495911685400,5.464685302734375,-0.030901334220170974,-0.000703928751964122,0.004521712924854364
1772445495921617400,5.474617431640625,-0.016684592819213865,0.005344347569486126,-0.0014209727138280869
1772445495931549400,5.484549560546875,-0.02072597716450691,0.004398189293174073,-0.007339631306240334
1772445495941481500,5.4944814453125,-0.023123101434111594,-0.0020200254523660985,0.00652931272048736
1772445495951413500,5.50441357421875,-0.020729484295845032,-0.00003084266283549368,0.005555923943954985
1772445495961345800,5.514345703125,-0.020129764837026595,0.00034469438497908414,0.004199990706797689
1772445495971277600,5.524277587890625,-0.014592004454135894,0.0004309935620985925,0.0018537746405228972
1772445495981210400,5.53421044921875,-0.018182137900590895,-0.002548150112852454,0.004490262907242868
1772445495991142400,5.544142333984375,-0.017284896799921987,0.0013848145550582557,0.006753033907187637
1772445496001074400,5.554074462890625,-0.013844400957226752,0.0002922061459161341,0.002748876299744006
1772445496011006700,5.5640068359375,-0.019381576818227768,0.0006683185824658721,0.006588196451007388
1772445496020938800,5.573938720703125,-0.015340776994824409,-0.004527998818457126,0.005524295829830226
1772445496030870800,5.583870849609375,-0.01474164205789566,0.00004649688969366252,0.007219053116894792
1772445496040802600,5.593802490234375,-0.01683598398864269,-0.0005869147761724889,0.005697878281469456
1772445496050734600,5.603734619140625,-0.022667758882045745,0.00037926337486132977,-0.0023571964013040995
1772445496060666600,5.61366650390625,-0.03299041545391083,0.001431302311597392,-0.002419756226520985
1772445496070599700,5.623599609375,-0.018772505009174347,-0.0072290379380807275,0.0017862235463573597
1772445496080531700,5.63353173828125,-0.020869185027480124,-0.005734771659178659,0.00019795427449280394
1772445496090463700,5.643463623046875,-0.01578326006531715,0.0012358254052698611,-0.0047474753715912804
1772445496100395500,5.6533955078125,-0.020123335096240043,-0.0005010996562428772,-0.005435921143344603
1772445496110327600,5.66332763671875,-0.03389174820780754,-0.003407497755391523,-0.000006062131316866725
1772445496120259600,5.673259521484375,-0.026711481314897537,0.00663625967670232,0.006418790134275332
1772445496130191600,5.683191650390625,-0.018031915774941443,0.006465908078476786,-0.0009024858146556653
1772445496140123600,5.69312353515625,-0.017281974190473556,-0.001876260466966778,0.0012979285727604292
1772445496150055700,5.7030556640625,-0.02670738966166973,-0.003490472464263439,-0.0012802193861338308
1772445496159988700,5.71298876953125,-0.019822890844941137,0.0025680055907927454,0.0019435352832078933
1772445496169920500,5.72292041015625,-0.0252098445802927,-0.003286949248798191,-0.0019402085316716693
1772445496179852500,5.7328525390625,-0.018026655077934266,0.0015948953754734247,0.006385065961186774
1772445496189784600,5.74278466796875,-0.022066870379447937,-0.00007236198331229389,0.006902760559204034
1772445496199716600,5.752716552734375,-0.022515783190727234,0.011341140298871323,0.0047597937137587
1772445496209648600,5.762648681640625,-0.013986439776420593,0.0046203989428002384,-0.0011397811522707343
1772445496219580700,5.77258056640625,-0.023414777857065198,-0.005733273821836337,0.0008214359181001782
1772445496229512400,5.782512451171875,-0.02970072625875473,0.0010440930922981351,0.0061117517454084
1772445496239445500,5.792445556640625,-0.026408698976039886,0.0025157365474384277,0.0010740818051854148
1772445496249377500,5.80237744140625,-0.012492401826381682,0.007608209981396794,-0.0028269670542329546
1772445496259309600,5.8123095703125,-0.022520459365844726,0.00118889925731346,-0.0006186296552652493
1772445496269241600,5.82224169921875,-0.024915245547890662,0.009495348035404458,0.005398874785297084
1772445496279173600,5.832173583984375,-0.028657939207553863,0.005037500976864248,-0.0012202739264001138
1772445496289105700,5.842105712890625,-0.020427286478877066,0.0013923676738515495,0.0068563938169623724
1772445496299037400,5.852037353515625,-0.011897943064570426,0.0038210287260357287,0.0013775377141893841
1772445496308969500,5.861969482421875,-0.02162438730895519,0.007567932769935577,0.000938064018113073
1772445496318901500,5.871901611328125,-0.01653846234679222,-0.00041347617171704767,0.007976502154383343
1772445496328834600,5.88183447265625,-0.02132686566710472,0.00300340133337304,0.0038813280955073423
1772445496338766600,5.8917666015625,-0.0184825821518898,0.0015485446162521838,-0.002123830603423994
1772445496348698600,5.90169873046875,-0.016686346384882925,0.006912765929987653,0.013266861364175564
1772445496358630700,5.911630615234375,-0.01698679063618183,0.0035613274770788846,0.002777250727568753
1772445496368562400,5.9215625,-0.019231354692578313,-0.00006973163480870425,-0.0001590812855400145
1772445496378494500,5.931494384765625,-0.021323943057656287,0.0029220523260068145,-0.0029132525316206736
1772445496388426500,5.941426513671875,-0.02207154655456543,-0.0013572141620796173,-0.001391616471891757
1772445496398358500,5.951358642578125,-0.014138415467739104,-0.0036088655463885513,-0.000768089162511751
1772445496408290600,5.96129052734375,-0.016233341920375823,0.004735595420841127,-0.0020354011180112137
1772445496418223600,5.9712236328125,-0.02656009014546871,-0.002065271099889651,-0.0031763147814432157
1772445496428155600,5.98115576171875,-0.014289222115278243,0.002869262692844495,0.0015662149869720451
1772445496438087400,5.99108740234375,-0.021173136410117147,0.003813758735032752,0.0009366255462751723
1772445496448019500,6.00101953125,-0.011894435933232307,0.004337399016646668,0.0007863851543166674
1772445496457951500,6.010951416015625,-0.017879940083622932,0.00300542889367789,-0.0018010466561536303
1772445496467883500,6.020883544921875,-0.011744213807582855,-0.0010726981322746723,-0.0017204990830970927
1772445496477815600,6.030815673828125,-0.015483400335907935,-0.00206762745375745,0.0049974109950708225
1772445496487747600,6.04074755859375,-0.022217677026987074,-0.0021962314026430247,0.003554516427090857
1772445496497679400,6.050679443359375,-0.030597967359423637,-0.0005462265727575868,-0.0001191694002598524
1772445496507612400,6.0606123046875,-0.014586159235239027,-0.0011563578277360648,-0.001485914009087719
1772445496517544400,6.07054443359375,-0.02820142761170864,-0.0017233623270411043,0.0012781735595199279
1772445496527476500,6.0804765625,-0.022814473876357075,-0.0018314897434785961,0.0006972775321803055
1772445496537408500,6.090408447265625,-0.015036241090297699,0.004909335419395938,-0.008650903417763766
1772445496547340500,6.100340576171875,-0.025361820271611213,-0.006545540052792057,0.005101369126467034
1772445496557272600,6.1102724609375,-0.02626023041605949,0.0017085300840903072,0.0019331600196659563
1772445496567204400,6.120204345703125,-0.014888357052206992,0.002708510040026158,-0.0006351857811328955
1772445496577136600,6.13013671875,-0.020574585995078085,-0.001481589460419491,-0.002212303471320774
1772445496587068700,6.140068603515625,-0.013242927932739257,0.0006562902179546654,0.0025605095542152413
1772445496597001500,6.15000146484375,-0.017733809611201284,0.0004738280568271875,0.00266984026376158
1772445496606933500,6.15993359375,-0.020726561686396597,0.003444350033905357,0.005015691003855317
1772445496616865500,6.169865478515625,-0.014292144724726676,0.00517833421966061,-0.00771903167841956
1772445496626797600,6.179797607421875,-0.02012859579324722,0.004442960016662255,0.005572105610487051
1772445496636729600,6.1897294921875,-0.016836568510532376,0.006819014098774641,0.00668948085141601
1772445496646661600,6.19966162109375,-0.025513795962929724,0.0006018931495957076,0.005769815573096275
1772445496656593700,6.20959375,-0.0220727155983448,-0.005690777253825217,0.005530072550068143
1772445496666525700,6.219525634765625,-0.023120178824663162,0.0018172602887265383,-0.0021483257238636725
1772445496676457700,6.229457763671875,-0.026114684465527532,0.0065937631086912,-0.004368707470363006
1772445496686390500,6.239390625,-0.028209026396274563,0.007182915507722646,0.0021598814476281405
1772445496696322600,6.249322509765625,-0.02551438048481941,-0.0012615626347251235,-0.0023281255704467184
1772445496706254600,6.259254638671875,-0.0243166951328516,-0.003379778631404042,0.0005700732392258941
1772445496716186600,6.2691865234375,-0.025963293296098706,-0.0006560892885550856,0.00472884145306889
1772445496726115600,6.279115478515625,-0.026712065836787223,0.0028216606914531436,0.00906155744473217
1772445496736047600,6.289047607421875,-0.021177228063344954,0.00444367240271531,0.0006687592571717687
1772445496745979600,6.298979736328125,-0.019832243195176125,-0.0005205989411566406,-0.0018905903864186255
1772445496755911700,6.30891162109375,-0.020581600257754323,-0.002824437170429155,-0.0017816843685577622
1772445496765843700,6.31884375,-0.019984218886494636,0.0035070948055014014,-0.0020982988699455745
1772445496775776500,6.328776611328125,-0.01549625981748104,0.0013391579155810176,0.006893810067768208
1772445496785708500,6.33870849609375,-0.027168577432632443,0.001849756052531302,0.011764539642981253
1772445496795640600,6.348640625,-0.02193418391048908,0.0019232414138503373,0.0005304581814678385
1772445496805572600,6.358572509765625,-0.023729250633716583,0.0026590905408840626,0.003149314893374685
1772445496815504600,6.368504638671875,-0.017895137652754783,0.001594621380837634,0.001772918823501095
1772445496825436700,6.378436767578125,-0.027622166419029235,-0.0010517558089457452,0.004561366798519157
1772445496835368700,6.38836865234375,-0.023432898035645484,0.0010892656745854765,0.0018601290327846071
1772445496845300500,6.398300537109375,-0.029269933626055716,-0.003628310032375157,0.010109376864077058
1772445496855232500,6.408232421875,-0.01789922930598259,0.0008303681432269513,0.00901276356667513
1772445496865165600,6.41816552734375,-0.021938860085606575,-0.0005491400490514934,-0.0006978483543382026
1772445496875097600,6.42809765625,-0.028373861569166183,-0.0000898428410757333,-0.007372608843946363
1772445496885029600,6.438029541015625,-0.01969429602921009,0.0021387199285905806,-0.0003877891746116802
1772445496894961700,6.447961669921875,-0.01714753415584564,-0.00461511084632948,0.0028010288953781125
1772445496904893400,6.4578935546875,-0.021637246790528294,0.0017191976085770874,-0.0008070169503916986
1772445496914825500,6.467825439453125,-0.02941840218603611,0.01054751483630389,-0.00017135852851206436
1772445496924757500,6.477757568359375,-0.023282675909996033,0.000741301620285958,-0.00044059707408305256
1772445496934689500,6.487689453125,-0.02208499055802822,-0.008861434046039358,-0.004681068205030169
1772445496944621600,6.49762158203125,-0.021335633495450017,0.009520555541897192,0.0014314667083788661
1772445496954554600,6.5075546875,-0.025525486400723454,0.0016311539989430457,0.008528240585897583
1772445496964486700,6.517486572265625,-0.019839257457852363,-0.001218919936241582,-0.00019846344785764812
1772445496974418400,6.52741845703125,-0.018192074772715568,-0.0010452621360775083,-0.0048197346069151535
1772445496984350500,6.5373505859375,-0.015649404552578926,-0.00021466566398739814,0.001701002081471961
1772445496994282500,6.547282470703125,-0.012062193715572357,0.004652821641368791,0.0006315051198587752
1772445497004214500,6.557214599609375,-0.02029284644424915,0.007073518582805991,0.004798344759014435
1772445497014146600,6.567146484375,-0.017300678890943527,0.006487727184640244,-0.0024030927860876545
1772445497024078600,6.57707861328125,-0.018497195199131965,0.00372706683226861,-0.005848333302559331
1772445497034010400,6.58701025390625,-0.014756255105137825,0.005394990911334753,-0.006620418220176361
1772445497043943400,6.596943359375,-0.019395605343580244,-0.00715736094135791,0.0011203617824590763
1772445497053875500,6.60687548828125,-0.01864858636856079,0.010729575138632208,0.0025286120120319535
1772445497063807500,6.616807373046875,-0.019245383217930793,0.000029673619056120512,0.002875407022552099
1772445497073739500,6.626739501953125,-0.025528993532061575,0.005818212158931419,0.004835484731895849
1772445497083671600,6.636671630859375,-0.027024785047769544,0.004608078317344188,0.00009149137546774
1772445497093603600,6.646603515625,-0.015202245306968688,0.00018914763024076818,-0.0028741397973615673
1772445497103535400,6.656535400390625,-0.020738836646080016,-0.005467170231556519,-0.001800455284398049
1772445497113467400,6.66646728515625,-0.0333095644056797,0.010178398396121337,0.0032143475201795806
1772445497123399400,6.6763994140625,-0.01879588588476181,0.007296659814193845,0.0015352787093026563
1772445497133331500,6.68633154296875,-0.019841011023521423,0.004934369395952672,0.00742995135464007
1772445497143264500,6.696264404296875,-0.03076689418554306,0.0071509951326530425,-0.005811022083030548
1772445497153196500,6.706196533203125,-0.02732698286473751,0.003079215649096295,-0.006108477509510703
1772445497163128600,6.716128662109375,-0.019544658425450324,-0.0010050305903889238,0.004685714697395451
1772445497173060400,6.726060302734375,-0.025979659909009932,0.004263502663373947,-0.007484706899314187
1772445497182992400,6.735992431640625,-0.018796470406651496,0.009474204782675952,0.005885959615919273
1772445497192924400,6.74592431640625,-0.02163841583430767,0.0029474424955900757,-0.001834563049976714
1772445497202856400,6.7558564453125,-0.01999240219295025,0.0060522675099782645,-0.0011147266261163167
1772445497212788500,6.76578857421875,-0.020592121651768682,-0.0006096289314795285,0.005357675125228707
1772445497222720500,6.775720458984375,-0.02672784792780876,0.002124782734783366,0.00029208741490729153
1772445497232653600,6.785653564453125,-0.028524083694815634,0.006795295296469703,-0.0034674180989502927
1772445497242585300,6.79558544921875,-0.02448445291519165,0.007892278486629947,-0.002442906489956658
1772445497252517400,6.805517333984375,-0.01849777972102165,-0.001758652836130932,-0.0033521805217140354
1772445497262449400,6.815449462890625,-0.021340309670567513,-0.0029724034069105983,-0.002383326356403995
1772445497272381400,6.82538134765625,-0.022539164066314697,0.008082878288440405,-0.010525442285102327
1772445497282313500,6.8353134765625,-0.018351064726710317,0.0051711920928210016,0.001393723947298713
1772445497292245500,6.84524560546875,-0.009373393023014069,0.003722381523996591,0.000348559992632363
1772445497302177500,6.855177490234375,-0.020597382348775863,0.004094822432426736,0.0016398510453407651
1772445497312109600,6.865109619140625,-0.03601005553603172,0.0002145377998240292,-0.0016043070912128313
1772445497322042400,6.87504248046875,-0.030921792486310003,0.0039040673669893293,0.0022552018981310535
1772445497331974400,6.884974365234375,-0.022093173864483832,0.004826643838314339,0.0028389771524351087
1772445497341906400,6.894906494140625,-0.021944120782613753,-0.00007998816734179853,0.0028869307802757245
1772445497351838500,6.90483837890625,-0.019847440764307975,0.0018517470802180468,0.0020742170247482136
1772445497361770800,6.914770751953125,-0.01281798051893711,-0.0030018943628761915,-0.0031361426012590527
1772445497371702500,6.92470263671875,-0.02972644522190094,-0.0004875551880802959,-0.003043543830804992
1772445497381634600,6.934634521484375,-0.018801731103658674,0.004247327846707776,-0.003083174871583469
1772445497391566600,6.944566650390625,-0.017155717462301254,-0.0036871092812158163,0.00010177987404167652
1772445497401498600,6.95449853515625,-0.02030044522881508,0.0010877313046250491,0.0005824874795158394
1772445497411430700,6.9644306640625,-0.027782909938693045,0.00639923605043441,-0.0005026796919759363
1772445497421363700,6.97436376953125,-0.02957739214003086,0.007963928083889186,-0.005369623574637807
1772445497431295700,6.984295654296875,-0.025087094983458517,0.005055228429799899,-0.0030583692238898945
1772445497441227500,6.9942275390625,-0.024637597650289535,0.009071332203363999,-0.0023970306547707876
1772445497451159600,7.00415966796875,-0.01820201164484024,0.0031723829584196206,-0.002281190289335791
1772445497461091600,7.014091552734375,-0.02269055523574352,0.001769137697527185,-0.007471548306930344
1772445497471023600,7.024023681640625,-0.022391864550113678,0.0034845359138213094,-0.008223549417743925
1772445497480955600,7.03395556640625,-0.019700141248106956,0.005509274073923006,0.0020188952244934626
1772445497490887400,7.043887451171875,-0.025684476354718207,0.0019671901534311473,0.001556335197063163
1772445497500819500,7.0538193359375,-0.0199988319337368,0.009782923671975731,0.0092553789668018
1772445497510751500,7.06375146484375,-0.024936872857809066,0.0009413633701857179,-0.0018884783444344064
1772445497520684500,7.0736845703125,-0.012366729620099067,-0.00325379589786753,-0.003735181640065275
1772445497530616600,7.083616455078125,-0.013115502160787582,0.000059913493692874905,0.0025547191342455335
1772445497540548600,7.093548583984375,-0.022392449072003363,0.0040582898143213236,0.0025941378291812725
1772445497550480600,7.103480712890625,-0.017903320959210395,0.0016470730872824788,-0.00001031589803751558
1772445497560412400,7.113412353515625,-0.022393618115782738,0.0038172110674437134,-0.0068356227402808145
1772445497570344400,7.123344482421875,-0.014762684845924377,0.005938806331297382,-0.008644902935239951
1772445497580276500,7.1332763671875,-0.02074526638686657,0.0027944804235827177,-0.0006101449547102674
1772445497590208500,7.14320849609375,-0.01864858636856079,0.0031122046032454817,-0.0008605235361843369
1772445497600140500,7.153140625,-0.018797054928541182,0.00034017347348853943,-0.004361426062916871
1772445497610073600,7.163073486328125,-0.017749591702222824,-0.002368738425336778,-0.000025157274142839014
1772445497620005600,7.173005615234375,-0.009669745621085166,-0.0017045845613349229,-0.003052699818217661
1772445497629937400,7.1829375,-0.024334230789542197,-0.002307135298056528,-0.0010277904114685953
1772445497639869400,7.192869384765625,-0.02014437788426876,-0.00620150325493887,0.004174648486275691
1772445497649801500,7.202801513671875,-0.014607786545157432,-0.006657384663121774,-0.0013174940730445086
1772445497659733500,7.2127333984375,-0.014008067086338996,-0.009115765000134706,-0.0033684329701936804
1772445497669665500,7.22266552734375,-0.022985738790035248,0.003687593338405713,0.0031079006041749378
1772445497679597600,7.23259765625,-0.016702128475904465,0.0033347247801255434,0.0008747301580500789
1772445497689529300,7.242529296875,-0.01431026490330696,0.001052733056480065,-0.0011422608037246391
1772445497699462400,7.25246240234375,-0.022839023795723914,-0.00002319821249693632,-0.0008475133575615473
1772445497709394400,7.26239453125,-0.02164192296564579,0.0008960903231985867,0.0032726261792122386
1772445497719327200,7.2723271484375,-0.018950784185528754,0.002530340461526066,0.0022101617465843447
1772445497729259300,7.28225927734375,-0.0180512049973011,-0.003245840920275077,-0.0001407396279624663
1772445497739191300,7.29219140625,-0.02328676756322384,0.005798484545154497,-0.007520552247541491
1772445497749123300,7.302123291015625,-0.023584873726963995,0.0006160769385751336,0.0012793722860515117
1772445497759055400,7.312055419921875,-0.014604279413819312,0.011697178061772137,0.000028100433188956228
1772445497768987400,7.3219873046875,-0.01535246743261814,0.005723848406365141,0.0039237401818390935
1772445497778919200,7.331919189453125,-0.0183475575953722,-0.0007364153826143592,-0.004051323500706349
1772445497788851200,7.341851318359375,-0.018948446097970008,0.0020754271677229552,0.0038467134398524646
1772445497798784300,7.3517841796875,-0.019099252745509148,-0.00021784400176256893,0.007285567598021589
1772445497808716300,7.36171630859375,-0.021344401323795316,-0.001514359218860045,-0.0009734001929755322
1772445497818648300,7.3716484375,-0.01566051046848297,0.009570513897156342,0.0043352230425807645
1772445497828580400,7.381580322265625,-0.03017594255506992,0.0029455153999850153,-0.0010027267521596514
1772445497838512400,7.391512451171875,-0.015510872864723205,0.0012973737336229533,0.00009540721547091379
1772445497848444200,7.401444091796875,-0.013862521135807037,-0.0008162665526382625,0.005193324009526986
1772445497858376200,7.411376220703125,-0.022093173864483832,-0.001545603740494698,-0.0010151204428519123
1772445497868308200,7.42130810546875,-0.023589549902081487,0.0035230960922315716,-0.002194128493813332
1772445497878240300,7.431240234375,-0.010122165563702584,0.0061208848999347535,-0.0015770263586426152
1772445497888172300,7.44117236328125,-0.018652678021788598,-0.008146399378171191,0.01246213683556998
1772445497898105300,7.451105224609375,-0.016409283009171483,-0.00026317184767685826,-0.003220804660429712
1772445497908037400,7.461037353515625,-0.02404138532280922,0.009838215789478272,0.005613355502905324
1772445497917969200,7.47096923828125,-0.021497546058893202,0.008180520843481644,0.0012706912226742133
1772445497927901200,7.480901123046875,-0.02284428449273109,0.0011779668713454157,-0.005196150720852892
1772445497937833200,7.490833251953125,-0.027035306441783903,0.005155199939245358,0.002300751223042607
1772445497947765200,7.50076513671875,-0.01835749446749687,-0.0018526147298980502,-0.0025648934683878905
1772445497957697300,7.510697265625,-0.02748246568739414,0.002433209363138303,0.002267755419027526
1772445497967629300,7.52062939453125,-0.028079262536764144,0.00654302843529731,0.0016604531586635856
1772445497977561300,7.530561279296875,-0.02089607303440571,-0.002363742589810863,-0.002124577238806523
1772445497987493400,7.540493408203125,-0.009221417331695556,0.003578397342888638,-0.004816474070749245
1772445497997426200,7.55042626953125,-0.02358545824885368,0.007697203439101576,0.0048518878774251786
1772445498007358200,7.560358154296875,-0.021191256588697433,0.010245408350881188,0.003468637375079561
1772445498017290200,7.570290283203125,-0.01610533162653446,-0.0029888430850580332,-0.004978530481376219
1772445498027222300,7.58022216796875,-0.018050035953521726,-0.0026023279855027794,-0.010071577020781115
1772445498037154300,7.590154296875,-0.02343815873265266,0.0044933293638750905,-0.005928458467219025
1772445498047086300,7.60008642578125,-0.03570902676284313,-0.0004172755640000105,0.007575104579527397
1772445498057018400,7.610018310546875,-0.024036124625802038,0.005802375268982723,0.0040151014098548325
1772445498066950400,7.619950439453125,-0.017299509847164152,0.005584978791791945,-0.005509159909491427
1772445498076882400,7.62988232421875,-0.021040449941158293,-0.0005699453750625253,0.00020474020830588415
1772445498086815200,7.639815185546875,-0.014156535646319388,0.007620667604170739,0.0031955126722576096
1772445498096747500,7.64974755859375,-0.028224223965406418,-0.002280740481475368,-0.006717163442785386
1772445498106679300,7.65967919921875,-0.016101824495196343,-0.0014833247597794978,0.011647922959411515
1772445498116611300,7.669611328125,-0.017297756281495092,0.008785080874199047,0.0007626092697959393
1772445498126543400,7.67954345703125,-0.019693126985430718,0.007400777775794267,-0.002592183334112633
1772445498136475400,7.689475341796875,-0.021488193708658218,0.007648569391248747,-0.003140636113286018
1772445498146407400,7.699407470703125,-0.01669920586645603,0.005800457306532189,0.007176419551565777
1772445498156339500,7.70933935546875,-0.020741759255528448,0.0034118908027186987,-0.005277433512848801
1772445498166271200,7.719271240234375,-0.027626842594146727,0.0021793715993873772,0.0003446144698769785
1772445498176203300,7.729203369140625,-0.023888240587711333,0.0011185283016879111,-0.002313272777898237
1772445498186136300,7.73913623046875,-0.024038462713360784,-0.0015230174493510275,-0.003229972064285539
1772445498196068400,7.749068359375,-0.008474398356676101,0.004660374760162085,0.002220461661601439
1772445498206000400,7.75900048828125,-0.017600538620352744,-0.0008233082147780805,-0.00005886318092234432
1772445498215932400,7.768932373046875,-0.024933365726470945,0.0014290646887384355,-0.007369750166579615
1772445498225864400,7.778864501953125,-0.022688801670074463,0.0032270083556417374,0.00430609056293033
1772445498235796200,7.788796142578125,-0.022239304336905477,-0.006382074853079393,0.0025739193083485585
1772445498245728300,7.798728271484375,-0.03226443926692009,0.00013146262625232338,-0.0032188227658974935
1772445498255660300,7.808660400390625,-0.0189443544447422,-0.005249317096639425,-0.0019234217936522327
1772445498265592300,7.81859228515625,-0.014006313520669937,-0.0011867346996907145,0.0030834602826624175
1772445498275524400,7.8285244140625,-0.026426234632730482,0.0021403456300962717,-0.002117939718754496
1772445498285457400,7.83845751953125,-0.018644494715332985,0.0016873959645163268,-0.0016600604330189526
1772445498295389400,7.848389404296875,-0.010863339319825171,-0.00192150611449033,-0.0007996259450912475
1772445498305321200,7.8583212890625,-0.03285831350684166,-0.001708575749862939,0.0011457314024446532
1772445498315253200,7.868253173828125,-0.019988895061612128,0.006220427151117473,-0.0004897608448984101
1772445498325185300,7.878185302734375,-0.020588614520430565,-0.0016647274749819188,-0.0053759916666313076
1772445498335117300,7.888117431640625,-0.022685879060626028,0.006096709439903497,0.00019925346572417766
1772445498345049300,7.89804931640625,-0.02238777289688587,0.00526818619389087,-0.0025764651751727795
1772445498354981400,7.9079814453125,-0.021639000356197355,0.0010212054070550948,-0.0027186272919527254
1772445498364913200,7.9179130859375,-0.02178746891617775,-0.0005312390661798417,-0.0026216057914192786
1772445498374845200,7.92784521484375,-0.020441315004229545,0.001324417004175484,0.004482390128041152
1772445498384778200,7.9377783203125,-0.026728432449698445,0.0061251683494076125,0.008090198511793278
1772445498394710300,7.947710205078125,-0.024183424142003057,0.010561168902320787,0.007500306327245198
1772445498404642300,7.957642333984375,-0.018797639450430868,0.008368928688205778,-0.002598359629861079
1772445498414574300,7.96757421875,-0.021940029129385946,0.0015928495488595215,0.0016701685517909936
1772445498424506400,7.97750634765625,-0.017150456765294073,-0.0004215498803183436,-0.004660550573386718
1772445498434438100,7.987438232421875,-0.022686463582515717,0.0013129092294722794,0.005460788439831231
1772445498444370200,7.9973701171875,-0.0195458274692297,0.00018625242025591433,0.0012370058654923922
1772445498454302200,8.00730224609375,-0.020744097343087194,0.004287047935742885,-0.007042230678687337
1772445498464234200,8.017234130859375,-0.02538286305963993,0.0020593619489111003,-0.002121638646337669
1772445498474166300,8.027166259765625,-0.020294015488028526,-0.0022184341012965888,0.004519687647838146
1772445498484099300,8.037099365234376,-0.019696634116768835,-0.0025528719537425784,0.002232126983220223
1772445498494031000,8.047031005859376,-0.022839023795723914,0.0059725807367358354,0.0004949598931125365
1772445498503963100,8.056963134765626,-0.018052374041080475,0.0006854158477392048,-0.0003437034377129748
1772445498513895200,8.066895263671874,-0.024936872857809066,0.001092617542296648,0.006666351137578021
1772445498523827200,8.0768271484375,-0.018203765210509298,0.005625593929970637,0.007828236807091162
1772445498533759200,8.08675927734375,-0.01730710863173008,0.0038990897977724667,0.003992097276891582
1772445498543691500,8.09669140625,-0.020750527083873746,0.00040302784293889997,-0.009138990612095221
1772445498553623300,8.106623291015625,-0.01760813740491867,-0.0013977288355585186,0.001388111623842269
1772445498563555300,8.116555419921875,-0.020749358040094375,0.0019759945143945513,-0.0004158713414915837
1772445498573487400,8.1264873046875,-0.016857611298561094,-0.004258917819801718,-0.0017016984845045953
1772445498583420200,8.136420166015625,-0.018203765210509298,-0.0016134448123164473,0.0006928045697510242
1772445498593352200,8.146352294921876,-0.02104629516005516,-0.00656554166120477,0.004848940151801798
1772445498603284500,8.156284423828126,-0.022691724279522894,-0.00154933006754145,0.0004273654164629988
1772445498613216500,8.166216552734374,-0.02029460000991821,0.008163889369089156,0.003975961276132148
1772445498623148300,8.176148193359374,-0.027476620468497276,0.003437463635392487,0.0031526416449109093
1772445498633080300,8.186080322265624,-0.01984510267674923,-0.0063037123872432856,0.0007053854901110753
1772445498643012400,8.196012451171875,-0.019097499179840088,0.005989970262954011,-0.0050903362757991994
1772445498652944400,8.2059443359375,-0.02044365309178829,0.009746482385415584,-0.0032465601561940272
1772445498662876400,8.21587646484375,-0.01984510267674923,0.0032843371666036545,-0.001716288698860444
1772445498672808400,8.225808349609375,-0.0268786545753479,0.0049950409414712335,0.00033051516257692125
1772445498682741500,8.235741455078125,-0.015355390042066572,0.006083411566913128,0.003339978627266828
1772445498692673300,8.24567333984375,-0.022537995022535322,0.0005895633909851312,-0.00031109579276526343
1772445498702605300,8.255605224609376,-0.020594459739327428,0.0026255535974632946,0.004558030913828406
1772445498712537300,8.265537353515626,-0.019546411991119384,0.006035115445777774,0.00010313158091157675
1772445498722468900,8.27546875,-0.03031973493993282,0.003280181581294164,0.0010902429221197963
1772445498732400600,8.285400634765624,-0.01804769786596298,0.00019561390364542604,0.004193129424459766
1772445498742332700,8.295332763671874,-0.02059095260798931,-0.001031772466842085,0.0034532571428571826
1772445498752264700,8.3052646484375,-0.024332477223873137,0.0060200366076547645,0.0032702195929945445
1772445498762196700,8.31519677734375,-0.014607786545157432,0.00020131299206987022,0.0012096886003040708
1772445498772128800,8.325128662109375,-0.024184008663892746,0.010019901632471009,-0.002107500523130875
1772445498782061800,8.335061767578125,-0.017449731972813604,-0.0003046729018446058,0.0034622989658382717
1772445498791993900,8.344993896484375,-0.019693711507320404,-0.000023371742432937025,-0.0023954506190377286
1772445498801925600,8.354925537109375,-0.017449147450923918,0.005821408763015642,-0.0071976952350349165
1772445498811857700,8.364857666015626,-0.022237550771236417,0.011507372844405471,0.009176616925455164
1772445498821789700,8.374789794921876,-0.02882218985855579,0.006007615517498925,0.0035188286257791333
1772445498831721700,8.3847216796875,-0.0289700738966465,0.003226898757787421,0.002360249158204533
1772445498841653800,8.39465380859375,-0.014454641810059546,0.0047051180841866875,0.006453886563831474
1772445498851585800,8.404585693359374,-0.01430325064063072,0.00043017157819122073,-0.0036818577173631634
1772445498861517600,8.414517578125,-0.016098317363858222,0.002937277294602245,-0.008828036383225116
1772445498871449600,8.42444970703125,-0.016099486407637593,-0.00043924080063588916,-0.006313240550702903
1772445498881382700,8.434382568359375,-0.01400572899878025,0.0016862817196641117,-0.0008533151939744129
1772445498891314700,8.444314697265625,-0.018044190734624863,-0.0023122224651277064,-0.006787810676335357
1772445498901246700,8.454246826171875,-0.016247954967617988,-0.001313000561017543,-0.005898992627428379
1772445498911178800,8.4641787109375,-0.025074820023775098,0.0021986151559744028,-0.004668363987084012
1772445498921110800,8.47411083984375,-0.027617490243911743,-0.002369624341325834,-0.009963926811667623
1772445498931042600,8.48404248046875,-0.010260112729668617,0.002585888307355344,0.005929675460059661
1772445498940974600,8.493974609375,-0.019236615389585494,0.0033776414732448754,0.002964231516898144
1772445498950907000,8.503906982421874,-0.022827333357930184,0.005003936633979901,-0.002630974124674685
1772445498960839000,8.5138388671875,-0.020135610055923462,0.000909945318615064,-0.003957859363860916
1772445498970771000,8.52377099609375,-0.021182488760352135,0.008533243271289393,0.002391927504679188
1772445498980703700,8.533703857421875,-0.015495675295591354,0.0017478665806353092,-0.003373645718139596
1772445498990635800,8.5436357421875,-0.02357727494239807,0.0010215159343089908,-0.005394041063264012
1772445499000567600,8.553567626953125,-0.02986146977841854,0.0057227250283583995,-0.0012014185288804582
1772445499010499800,8.563499755859375,-0.018638064974546432,0.007336480367928743,0.003263216746761463
1772445499020432000,8.573431884765625,-0.018489011892676353,0.003214313270850107,-0.0010543108089244924
1772445499030364000,8.583364013671876,-0.019385083949565885,0.0026339287001639605,-0.0005861475911922752
1772445499040296000,8.5932958984375,-0.025070728370547295,0.0006330463396850973,0.0004347358721657656
1772445499050228000,8.60322802734375,-0.027914427363872528,0.005631092088995501,-0.00823708475275198
1772445499060159700,8.61315966796875,-0.015347206735610961,0.007415272092027589,0.0013826157481060363
1772445499070091800,8.623091796875,-0.01459784967303276,0.002238326111854985,0.0042010638524545355
1772445499080024800,8.63302490234375,-0.01968377463519573,0.0003583758504595607,0.006043919806741177
1772445499089956900,8.642956787109375,-0.026415713238716124,0.0011547503925394267,0.0020316314084804616
1772445499099889000,8.652888916015625,-0.018784195446968077,0.007607305799098685,0.005288692409091163
1772445499109821000,8.662821044921875,-0.022823826226592063,0.009628381564235315,0.004790405764442403
1772445499119753000,8.6727529296875,-0.024617139384150503,0.0019797391077503563,-0.0019601850239094345
1772445499129684700,8.682684814453125,-0.025064883151650428,-0.00047839463409036397,0.010189563677529804
1772445499139616800,8.69261669921875,-0.02401858896911144,0.006785568486899137,0.00029101426925044505
1772445499149548800,8.702548828125,-0.019979542711377144,-0.003897043971158564,-0.00013425280496012418
1772445499159480800,8.712480712890626,-0.028209610918164253,0.001934676123317331,-0.0003667189871193841
1772445499169412900,8.722412841796874,-0.025965046861767767,0.0017995054363273083,0.0036422449428937394
1772445499179346000,8.732345947265625,-0.028359833043813704,0.0037912363759707657,0.0012357911559403873
1772445499189277700,8.742277587890625,-0.021774609434604644,0.0068705250903032715,-0.01041710708939936
1772445499199209700,8.752209716796875,-0.015488661032915114,0.003354032268794253,-0.00249170265130233
1772445499209141800,8.762141845703125,-0.01833060646057129,-0.0016268066173885016,0.007656115660176146
1772445499219073800,8.77207373046875,-0.022669512447714806,0.0023885208380408584,0.006329223571124021
1772445499229005800,8.782005859375,-0.01952653824687004,-0.0007752404225058853,-0.0061875683444202875
1772445499238937900,8.791937744140625,-0.012044658058881759,-0.0046592605153098696,0.004440619645814877
1772445499248869600,8.80186962890625,-0.018329437416791914,-0.00451556859514676,0.0034626231928239575
1772445499258801700,8.8118017578125,-0.028804069679975508,0.004725393687235191,0.0015679548529093153
1772445499268733700,8.821733642578126,-0.014138999989628791,0.008763298300653696,-0.001168105347745586
1772445499278666800,8.831666748046874,-0.009050736939907074,0.008688872224418446,-0.0034608376611140555
1772445499288598800,8.841598876953125,-0.01832885289490223,0.00979965561106801,-0.0006227669742656871
1772445499298530800,8.85153076171875,-0.016681085687875748,0.008176100396690889,-0.007056268337194342
1772445499308462800,8.861462890625,-0.01533376273214817,0.007688335146056487,-0.0004963549824664369
1772445499318394600,8.87139453125,-0.025507950744032858,0.0009061367931775748,-0.002068093244638294
1772445499328326700,8.88132666015625,-0.022065116813778877,-0.000968050447711721,-0.0075726751604233864
1772445499338258700,8.8912587890625,-0.017875848430395126,0.0038898105127736925,-0.0013968748856103047
1772445499348190700,8.901190673828125,-0.02072071646749973,-0.006485224700300022,0.00025672840715851633
1772445499358122800,8.911122802734376,-0.027754268366098404,0.003266938507230952,-0.0016083644951111636
1772445499368054800,8.9210546875,-0.019973697492480277,-0.0011965528408065438,0.0014310785493114962
1772445499377987800,8.93098779296875,-0.014886603486537933,0.009177021067542954,-0.0007202382826595567
1772445499387919600,8.940919677734374,-0.016084288838505743,0.010851612349413335,-0.003684380751301069
1772445499397851600,8.9508515625,-0.016085457882285117,0.0074522705010138445,0.004466779283666983
1772445499407783700,8.96078369140625,-0.02581248664855957,0.000451323964074254,-0.001488681354909204
1772445499417715700,8.9707158203125,-0.02536415835916996,0.0006465816746931523,-0.004237027931690681
1772445499427647700,8.980647705078125,-0.027459084811806676,0.002025441413000226,-0.00005278050000779331
1772445499437579800,8.990579833984375,-0.021325696623325348,-0.002072906417073682,0.00485568498641951
1772445499447511600,9.000511474609375,-0.021024667850136756,-0.002781547876773402,-0.0037050582131487315
1772445499457443800,9.01044384765625,-0.016084873360395432,0.0038603012904990463,-0.0012061791856773196
1772445499467375900,9.0203759765625,-0.011596914291381835,0.0016825005936902016,-0.003197693212900776
1772445499477308000,9.030307861328126,-0.03553951541483402,0.006837545269308611,-0.00026168771006632597
1772445499487240700,9.04024072265625,-0.02880582324564457,0.0028109018354211,-0.0011344725062022915
1772445499497172700,9.0501728515625,-0.021923077994585035,0.004177185219945386,-0.006770069523667916
1772445499507104800,9.060104736328125,-0.01653553973734379,0.007122563622612506,0.003173065661720466
1772445499517036800,9.070036865234375,-0.01623568000793457,0.0012854458338115364,-0.007014009231200907
1772445499526968800,9.07996875,-0.02386836684346199,-0.0007603899132460355,0.0028867549670510925
1772445499536900900,9.08990087890625,-0.012494155392050742,-0.0042831024129875005,0.005619280636904295
1772445499546833000,9.0998330078125,-0.028203765699267386,-0.0002387680587824434,-0.006607871549145784
1772445499556765000,9.109764892578125,-0.033440497308969495,0.005740708209620788,-0.0028590586759499274
1772445499566697000,9.119697021484376,-0.025210429102182387,0.003774650567350909,-0.008951295153424143
1772445499576628700,9.129628662109376,-0.03583352992534637,0.004621385323489085,-0.0037255347455968147
1772445499586560800,9.139560791015626,-0.0229658650457859,0.004093315461929888,-0.0018945838582352735
1772445499596493800,9.149493896484374,-0.019077040913701056,0.007951543526351452,-0.006133328822976909
1772445499606425900,9.15942578125,-0.015784429109096526,0.011842011626251042,-0.0035392092601046897
1772445499616358000,9.16935791015625,-0.014885434442758558,0.0014461162882391362,0.005059087187587284
1772445499626290000,9.1792900390625,-0.029248890838026998,-0.0005842113624326884,0.0025195633391849694
1772445499636221700,9.1892216796875,-0.03254033359885215,0.005779661113675684,-0.0070732856873655684
1772445499646153700,9.19915380859375,-0.024010405662655828,-0.0020515987675637005,-0.0005363513494259678
1772445499656085800,9.209085693359375,-0.02161620400249958,-0.0007161671790294349,0.0017432292214245534
1772445499666017800,9.219017822265625,-0.025207506492733955,0.0017258922108449042,-0.003702532895922195
1772445499675949800,9.22894970703125,-0.017275544449687003,-0.004370378837641328,-0.005496923765714746
1772445499685881900,9.2388818359375,-0.019669161587953565,0.0016927297267597167,-0.004161138267442584
1772445499695815000,9.24881494140625,-0.01188859071433544,0.003827814659848809,0.000001863163523375988
1772445499705746700,9.25874658203125,-0.022364392021298408,0.00882451783544384,-0.003525294899183791
1772445499715678700,9.2686787109375,-0.024159458744525908,0.002801421621022746,-0.00786925152078038
1772445499725611300,9.278611328125,-0.012188450443744659,0.0030857641208916903,0.005829233593156095
1772445499735543300,9.288543212890625,-0.01981938371360302,-0.005306691573373973,0.0005160848795319907
1772445499745475300,9.298475341796875,-0.02864507972598076,0.00855839597885497,-0.004120840506383683
1772445499755407400,9.308407470703125,-0.019516016852855683,0.0036816202553454783,-0.0037251534363953393
1772445499765339400,9.31833935546875,-0.021460721179842948,-0.0032268804914783685,0.000236713099014014
1772445499775271200,9.328271240234375,-0.01816927841901779,-0.002307728953100741,0.0016589416215894743
1772445499785203200,9.338203125,-0.018318916022777555,0.007447539526969194,-0.006452254012459888
1772445499795136300,9.34813623046875,-0.024154782569408416,0.0001164568533655256,0.002559450108290184
1772445499805068300,9.358068359375,-0.017869418689608573,0.005168963603116572,-0.0061534560122643595
1772445499815000300,9.368000244140624,-0.019214403557777402,-0.0024208065392915157,-0.006689599582424852
1772445499824932400,9.377932373046875,-0.01906418143212795,-0.0033728739665821192,-0.005982713971682824
1772445499834864400,9.387864501953125,-0.012630933514237403,-0.00030903854970820244,-0.0007975184696842916
1772445499844796200,9.397796142578125,-0.016821370941400526,0.004491776727605611,-0.00169044872141676
1772445499854728200,9.407728271484375,-0.022806875091791152,-0.0010650719482451676,-0.009518103289906866
1772445499864660200,9.41766015625,-0.020412088909745215,-0.002332068809913471,-0.00547651573192561
1772445499874592300,9.42759228515625,-0.024899463456869123,0.007442799419770016,-0.0050173920538858505
1772445499884524300,9.437524169921875,-0.021460136657953263,0.0008538220840506255,-0.005895161269104573
1772445499894456000,9.4474560546875,-0.024306173738837242,0.0005821929352823645,-0.00639992560360115
1772445499904389400,9.457389404296874,-0.025952187380194662,-0.0024196557618211953,-0.005863263726921286
1772445499914321200,9.467321044921874,-0.010689151796698569,-0.0013684844747651368,-0.0032138566131237893
1772445499924253200,9.477253173828124,-0.012185527834296226,-0.0012281626886222511,-0.001242303095117677
1772445499934185200,9.487185302734375,-0.027749007669091223,0.0042371535125654185,-0.005581818720325827
1772445499944117200,9.4971171875,-0.01996785227358341,0.0030414865877479314,-0.005458169507770799
1772445499954049300,9.50704931640625,-0.009492635488510131,-0.00011649338598363101,-0.006858631439821328
1772445499963981000,9.51698095703125,-0.02400689853131771,-0.006011314445082098,0.002199053547391668
1772445499973913000,9.5269130859375,-0.03148877871930599,0.0016334738201927393,0.0008477873521973378
1772445499983845000,9.53684521484375,-0.0187701669216156,0.005236293218284845,-0.0040292988985660486
1772445499993777200,9.546777099609375,-0.023706454280018805,0.0019702497601974756,0.0015083747193566522
1772445500003709400,9.55670947265625,-0.023853753796219825,0.003193297882284969,-0.003326881683676038
1772445500013642200,9.566642333984374,-0.02415419804751873,-0.0031845848528668282,0.0023031326930853537
1772445500023574300,9.57657421875,-0.02340659455060959,0.004468404985172674,0.003911106745840515
1772445500033506000,9.586506103515624,-0.01352992818057537,0.005233005282655358,0.001841737142857164
1772445500043438000,9.59643798828125,-0.016824878072738646,-0.00013172748773358762,0.0023359138679690658
1772445500053370000,9.6063701171875,-0.026554244926571845,-0.005794036698900163,0.002300739806599449
1772445500063302400,9.616302490234375,-0.006358429116010665,0.004432283359020948,0.001625717488711234
1772445500073234400,9.626234375,-0.15158055452108382,0.006834476529387757,-0.1674570823604241
1772445500083166500,9.63616650390625,-0.29459494074881076,0.026040651114936916,-0.14296744181346147
1772445500093098200,9.64609814453125,0.12563655044734479,-0.01429756981851533,0.1028289721026551
1772445500103030300,9.6560302734375,0.5153185896009207,-0.03647345353038981,0.19781139542339368
1772445500112962300,9.66596240234375,-0.2833364646315574,0.019731449701823292,-0.0995741167588625
1772445500122895400,9.675895263671874,-0.2058095728367567,0.0214978565861471,-0.07930531791048125
1772445500132827400,9.685827392578124,0.24015783264040946,-0.014798450279049575,0.10287664716928266
1772445500142759400,9.695759521484375,-0.0041653029859066,-0.0011972378273960203,0.029392941234505268
1772445500152691500,9.70569140625,-0.06473053858578205,0.004475245717912912,0.002197864524836768
1772445500162623200,9.715623291015625,0.036003625795245166,-0.01895602661622688,0.045665781764918936
1772445500172555300,9.72555517578125,-0.013220716100931167,-0.01146500414055772,0.028765059693704822
1772445500182487300,9.7354873046875,-0.05048281752467155,-0.0041300490094348784,-0.014032352144224568
1772445500192419300,9.74541943359375,-0.15716916830837727,0.02178052771873772,-0.05505704837134107
