time,seconds_elapsed,z,y,x
1772555507216678100,0.07167822265625,0.32539716362953186,0.03694843500852585,-0.22495460510253906
1772555507226610200,0.081610107421875,0.3210516571998596,0.1288759559392929,-0.14644914865493774
1772555507236542200,0.091542236328125,0.309935063123703,0.21983301639556885,-0.09103762358427048
1772555507246474200,0.10147412109375,0.287712037563324,0.2859313488006592,-0.0552186444401741
1772555507256405000,0.111405029296875,0.2611972987651825,0.32467830181121826,-0.049818798899650574
1772555507266337300,0.121337158203125,0.2345038801431656,0.3435649275779724,-0.07063060998916626
1772555507276269300,0.131269287109375,0.20875483751296997,0.34890133142471313,-0.10578508675098419
1772555507286201300,0.141201416015625,0.19637353718280792,0.34470656514167786,-0.14481744170188904
1772555507296133400,0.15113330078125,0.187605619430542,0.3597448468208313,-0.18593819439411163
1772555507306064100,0.161064208984375,0.16957788169384003,0.39273208379745483,-0.22066502273082733
1772555507315996200,0.17099609375,0.16209611296653748,0.4212717115879059,-0.24393880367279053
1772555507325928200,0.18092822265625,0.1695399135351181,0.44468143582344055,-0.2534862160682678
1772555507335860200,0.190860107421875,0.17472416162490845,0.45885685086250305,-0.26172327995300293
1772555507345792000,0.2007919921875,0.18598614633083344,0.4570421576499939,-0.26801472902297974
1772555507355724000,0.21072412109375,0.20242007076740265,0.4518550932407379,-0.28220275044441223
1772555507365655300,0.2206552734375,0.24673080444335938,0.46262332797050476,-0.2898332178592682
1772555507375587300,0.23058740234375,0.26667752861976624,0.4938380718231201,-0.3119708001613617
1772555507385519400,0.240519287109375,0.25761133432388306,0.47669100761413574,-0.3257542550563812
1772555507395451100,0.250451171875,0.26619696617126465,0.43202921748161316,-0.33932003378868103
1772555507405383200,0.260383056640625,0.28793156147003174,0.38354527950286865,-0.33699721097946167
1772555507415314200,0.270314208984375,0.32190775871276855,0.3279459774494171,-0.31221866607666016
1772555507425246200,0.28024609375,0.3547637164592743,0.27403560280799866,-0.26741287112236023
1772555507435178200,0.29017822265625,0.38403230905532837,0.23620960116386414,-0.2091137021780014
1772555507445110000,0.300110107421875,0.42269450426101685,0.20730924606323242,-0.13701820373535156
1772555507455042000,0.3100419921875,0.46695733070373535,0.18603073060512543,-0.05517025291919708
1772555507464974000,0.31997412109375,0.5250003933906555,0.17802579700946808,0.032543621957302094
1772555507474905300,0.3299052734375,0.5940009355545044,0.19576269388198853,0.11484908312559128
1772555507484837000,0.339837158203125,0.6684299111366272,0.2236473262310028,0.18511898815631866
1772555507494769200,0.34976904296875,0.721220850944519,0.21344630420207977,0.2495293915271759
1772555507504701200,0.359701171875,0.7589482665061951,0.1544807255268097,0.29996833205223083
1772555507514633200,0.36963330078125,0.7840684056282043,0.06118115782737732,0.34354719519615173
1772555507524564000,0.37956396484375,0.7971689701080322,-0.06137245148420334,0.3610529601573944
1772555507534496000,0.38949609375,0.8088342547416687,-0.1813042312860489,0.3589639663696289
1772555507544428000,0.399427978515625,0.819717288017273,-0.2928813397884369,0.33152300119400024
1772555507554360000,0.409360107421875,0.8203933238983154,-0.35714229941368103,0.2672879099845886
1772555507564292000,0.4192919921875,0.7978680729866028,-0.37233296036720276,0.16500386595726013
1772555507574224000,0.429223876953125,0.7584584951400757,-0.369843065738678,0.035798460245132446
1772555507584155100,0.439155029296875,0.6960251927375793,-0.3604660630226135,-0.1088644489645958
1772555507594087200,0.449087158203125,0.6076663136482239,-0.32292622327804565,-0.23435990512371063
1772555507604019200,0.459019287109375,0.5069034695625305,-0.25514742732048035,-0.3068873882293701
1772555507613951000,0.468950927734375,0.3998699188232422,-0.15834017097949982,-0.32730036973953247
1772555507623883000,0.478883056640625,0.28932395577430725,-0.02957206964492798,-0.31626343727111816
1772555507633815000,0.48881494140625,0.1620456874370575,0.0757128894329071,-0.2801344394683838
1772555507643746000,0.49874609375,0.04429587721824646,0.15371155738830566,-0.22177284955978394
1772555507653678000,0.508677978515625,-0.0586371123790741,0.2290360927581787,-0.13939078152179718
1772555507663609900,0.51860986328125,-0.13840597867965698,0.2906627058982849,-0.039649538695812225
1772555507673542100,0.528542236328125,-0.1859774887561798,0.3304128646850586,0.07799343019723892
1772555507683474200,0.53847412109375,-0.200457364320755,0.3243032991886139,0.20164185762405396
1772555507693405200,0.5484052734375,-0.1772664189338684,0.2650020122528076,0.3180178999900818
1772555507703337200,0.558337158203125,-0.12394700199365616,0.19631162285804749,0.4133254885673523
1772555507713269000,0.56826904296875,-0.06878533214330673,0.14567507803440094,0.4778304994106293
1772555507723201000,0.578200927734375,-0.002914171200245619,0.11468227207660675,0.5086091756820679
1772555507733133000,0.588133056640625,0.053178295493125916,0.09372201561927795,0.5063232779502869
1772555507743065000,0.598065185546875,0.09703390300273895,0.07222151756286621,0.4810760021209717
1772555507752995800,0.607995849609375,0.1281026303768158,0.04708278551697731,0.4377249479293823
1772555507762928000,0.61792822265625,0.1433526873588562,0.033037539571523666,0.3957841694355011
1772555507772860200,0.627860107421875,0.14779995381832123,0.02168157882988453,0.3611055910587311
1772555507782792200,0.637792236328125,0.1391766369342804,0.018216541036963463,0.33907726407051086
1772555507792724200,0.64772412109375,0.1194755807518959,0.01522119715809822,0.32704028487205505
1772555507802655000,0.657655029296875,0.10336798429489136,0.003204748034477234,0.3260538578033447
1772555507812587000,0.6675869140625,0.0822678804397583,-0.013259902596473694,0.31895992159843445
1772555507822519000,0.67751904296875,0.06619570404291153,-0.03790532797574997,0.31027400493621826
1772555507832451000,0.687451171875,0.049631666392087936,-0.06674911081790924,0.29073086380958557
1772555507842383000,0.697383056640625,0.035850074142217636,-0.09861569851636887,0.26353543996810913
1772555507852315100,0.707315185546875,0.027189716696739197,-0.1236015260219574,0.24361664056777954
1772555507862246100,0.71724609375,0.019107822328805923,-0.13450637459754944,0.21454955637454987
1772555507872178200,0.72717822265625,0.010427902452647686,-0.12916246056556702,0.19810450077056885
1772555507882110200,0.737110107421875,0.0026791682466864586,-0.11840062588453293,0.1861458420753479
1772555507892042200,0.747042236328125,-0.007130343001335859,-0.10492600500583649,0.17543472349643707
1772555507901974300,0.756974365234375,-0.022509032860398293,-0.09020166099071503,0.17146901786327362
1772555507911905000,0.766905029296875,-0.03380395844578743,-0.08669780194759369,0.1640682965517044
1772555507921837000,0.776837158203125,-0.04763268679380417,-0.08310732245445251,0.14245620369911194
1772555507931769000,0.78676904296875,-0.059593334794044495,-0.07989917695522308,0.11603255569934845
1772555507941701000,0.796701171875,-0.06865979731082916,-0.08078521490097046,0.08250042796134949
1772555507951633000,0.8066328125,-0.07017852365970612,-0.0700802356004715,0.0393766313791275
1772555507961565000,0.81656494140625,-0.07591630518436432,-0.054106324911117554,-0.005346363410353661
1772555507971496200,0.82649609375,-0.08295466005802155,-0.0208715982735157,-0.05032378435134888
1772555507981428200,0.83642822265625,-0.0879448875784874,0.017999636009335518,-0.08321701735258102
1772555507991360300,0.8463603515625,-0.09537522494792938,0.059490278363227844,-0.11130848526954651
1772555508001292000,0.8562919921875,-0.10559510439634323,0.09553749114274979,-0.134940043091774
1772555508011224000,0.86622412109375,-0.11003471910953522,0.12026812881231308,-0.15774357318878174
1772555508021156000,0.876156005859375,-0.11224540323019028,0.13879093527793884,-0.16535435616970062
1772555508031087000,0.886087158203125,-0.1034117266535759,0.15494737029075623,-0.15761801600456238
1772555508041019100,0.89601904296875,-0.09314551204442978,0.1694173961877823,-0.13363519310951233
1772555508050951000,0.905950927734375,-0.08253493905067444,0.17949658632278442,-0.09565047174692154
1772555508060883000,0.915883056640625,-0.06813975423574448,0.17686140537261963,-0.05767273157835007
1772555508070815000,0.92581494140625,-0.0545145645737648,0.17450636625289917,-0.028068123385310173
1772555508080746200,0.935746337890625,-0.03968555107712746,0.16877338290214539,-0.013470537960529327
1772555508090678000,0.945677978515625,-0.02694399654865265,0.15400350093841553,-0.0044998349621891975
1772555508100610000,0.955610107421875,-0.012967992573976517,0.1309668868780136,-0.003918732516467571
1772555508110542000,0.9655419921875,-0.00510537251830101,0.11873593926429749,0.00043385662138462067
1772555508120474000,0.97547412109375,0.003927270881831646,0.11853434145450592,0.004051228519529104
1772555508130405000,0.985405029296875,0.015790879726409912,0.09879256784915924,0.004929100163280964
1772555508140337000,0.9953369140625,0.03302392736077309,0.06468839198350906,0.015478413552045822
1772555508150269000,1.00526904296875,0.037539318203926086,0.03497358039021492,0.036489468067884445
1772555508160201000,1.015200927734375,0.03854519501328468,-0.007102498784661293,0.051654305309057236
1772555508170133000,1.025133056640625,0.044209010899066925,-0.0330081433057785,0.05574348196387291
1772555508180065300,1.035065185546875,0.0510416179895401,-0.07471883296966553,0.06899244338274002
1772555508189996000,1.04499609375,0.04753375053405762,-0.1370937079191208,0.09428609907627106
1772555508199928000,1.054927978515625,0.043492671102285385,-0.20575879514217377,0.10777740180492401
1772555508209860000,1.064860107421875,0.03895309567451477,-0.2800298035144806,0.09583079069852829
1772555508219792100,1.074792236328125,0.027969684451818466,-0.33845609426498413,0.05492836609482765
1772555508229724200,1.08472412109375,0.021229296922683716,-0.4055469334125519,-0.019328974187374115
1772555508239656000,1.094656005859375,0.015529865399003029,-0.4838846027851105,-0.10431976616382599
1772555508249587000,1.1045869140625,0.022195709869265556,-0.571270763874054,-0.19333966076374054
1772555508259519000,1.11451904296875,0.060270391404628754,-0.6104463934898376,-0.283878892660141
1772555508269451300,1.124451171875,0.13594667613506317,-0.5068546533584595,-0.30305740237236023
1772555508279383300,1.13438330078125,0.1666385382413864,-0.39604687690734863,-0.2206924855709076
1772555508289315000,1.144315185546875,0.17819756269454956,-0.25811970233917236,-0.11800528317689896
1772555508299246000,1.15424609375,0.16641120612621307,-0.10836481302976608,-0.039520323276519775
1772555508309178000,1.16417822265625,0.1537691354751587,0.1600463092327118,0.0164308100938797
1772555508319110100,1.174110107421875,0.17857222259044647,0.3272334337234497,0.07411327958106995
1772555508329042200,1.184042236328125,0.19167305529117584,0.3723949193954468,0.09923464059829712
1772555508338974000,1.193973876953125,0.14751066267490387,0.37488603591918945,0.05539634823799133
1772555508348906000,1.203906005859375,0.10001946985721588,0.06174095720052719,0.0036881649866700172
1772555508358837200,1.213837158203125,0.03975214064121246,-0.07754849642515182,-0.04523516818881035
1772555508368769300,1.223769287109375,0.0022716084495186806,-0.12266738712787628,-0.07594124972820282
1772555508378701000,1.233701171875,0.010552708059549332,-0.11359027028083801,-0.06430163979530334
1772555508388633000,1.243633056640625,0.0447758287191391,-0.09522926807403564,-0.025726579129695892
1772555508398565000,1.253565185546875,0.07069823890924454,-0.0785839855670929,0.006336282007396221
1772555508408496000,1.26349609375,0.06586610525846481,-0.0669093206524849,0.02284780517220497
1772555508418428200,1.27342822265625,0.0352831594645977,-0.08389895409345627,0.03662087395787239
1772555508428360000,1.28335986328125,-0.0042685093358159065,-0.10819284617900848,0.03987179696559906
1772555508438292000,1.2932919921875,-0.04445108398795128,-0.11086505651473999,0.033890336751937866
1772555508448224000,1.30322412109375,-0.09039320796728134,-0.05672046169638634,0.015901733189821243
1772555508458156000,1.313156005859375,-0.13247540593147278,0.07074242830276489,0.000999748706817627
1772555508468087300,1.32308740234375,-0.1708352416753769,0.22874915599822998,-0.00765195582062006
1772555508478018800,1.333018798828125,-0.20416443049907684,0.38029950857162476,0.022261202335357666
1772555508487950800,1.342950927734375,-0.2359541803598404,0.4791930019855499,0.06984718888998032
1772555508497882600,1.352882568359375,-0.274966835975647,0.5198469161987305,0.12439165264368057
1772555508507814700,1.362814697265625,-0.309071809053421,0.5230400562286377,0.1759057193994522
1772555508517745700,1.37274560546875,-0.33142316341400146,0.5002655982971191,0.20997659862041473
1772555508527677700,1.382677734375,-0.3507895767688751,0.439142644405365,0.22470715641975403
1772555508537609700,1.392609619140625,-0.3647429347038269,0.35241201519966125,0.22205784916877747
1772555508547541500,1.40254150390625,-0.36131757497787476,0.24124492704868317,0.19820670783519745
1772555508557473500,1.4124736328125,-0.34567418694496155,0.1185418963432312,0.15247011184692383
1772555508567405800,1.42240576171875,-0.3209669291973114,-0.010009605437517166,0.08759420365095139
1772555508577336800,1.4323369140625,-0.2870931029319763,-0.14350827038288116,0.008874619379639626
1772555508587268600,1.4422685546875,-0.24395518004894257,-0.27103909850120544,-0.06453745067119598
1772555508597200600,1.45220068359375,-0.19663427770137787,-0.36948975920677185,-0.12110672146081924
1772555508607132700,1.462132568359375,-0.15293952822685242,-0.4274028241634369,-0.1725158840417862
1772555508617064700,1.472064697265625,-0.12592601776123047,-0.4494663178920746,-0.2048591822385788
1772555508626995700,1.48199560546875,-0.12478845566511154,-0.4330812096595764,-0.21495714783668518
1772555508636927500,1.491927490234375,-0.13155502080917358,-0.38866499066352844,-0.19768361747264862
1772555508646859500,1.501859619140625,-0.1503872275352478,-0.32964253425598145,-0.1683395951986313
1772555508656791800,1.511791748046875,-0.1801629662513733,-0.2562282383441925,-0.1281311959028244
1772555508666723800,1.521723876953125,-0.20661023259162903,-0.18204501271247864,-0.07709194719791412
1772555508676655900,1.53165576171875,-0.2324434220790863,-0.10112007707357407,-0.0263022780418396
1772555508686586600,1.541586669921875,-0.24790485203266144,-0.0223153717815876,0.03148488700389862
1772555508696518700,1.5515185546875,-0.26434239745140076,0.04923098534345627,0.08478592336177826
1772555508706450700,1.56145068359375,-0.2758929133415222,0.10960233211517334,0.12737326323986053
1772555508716382700,1.5713828125,-0.2851324677467346,0.14333073794841766,0.161036416888237
1772555508726314800,1.581314697265625,-0.2864169776439667,0.16670656204223633,0.18466608226299286
1772555508736245800,1.591245849609375,-0.2794613242149353,0.18287114799022675,0.194588765501976
1772555508746177800,1.601177734375,-0.26486900448799133,0.19297264516353607,0.191050723195076
1772555508756109800,1.61110986328125,-0.23782673478126526,0.1930703967809677,0.167622372508049
1772555508766041900,1.621041748046875,-0.20705367624759674,0.19838668406009674,0.13348236680030823
1772555508775974000,1.630973876953125,-0.16583406925201416,0.19975927472114563,0.091892309486866
1772555508785904600,1.640904541015625,-0.12135973572731018,0.19610856473445892,0.055985644459724426
1772555508795836700,1.650836669921875,-0.07764928042888641,0.17817670106887817,0.02357843518257141
1772555508805768700,1.660768798828125,-0.050438012927770615,0.1461144983768463,-0.010192436166107655
1772555508815700700,1.67070068359375,-0.03635149076581001,0.10758015513420105,-0.041163668036460876
1772555508825632800,1.6806328125,-0.03528978303074837,0.058069802820682526,-0.056861262768507004
1772555508835564500,1.690564453125,-0.0470321960747242,0.009684430435299873,-0.058137182146310806
1772555508845495800,1.700495849609375,-0.058678124099969864,-0.02080797217786312,-0.04225180298089981
1772555508855427800,1.710427734375,-0.06690648943185806,-0.03787856921553612,-0.02143014594912529
1772555508865360000,1.72035986328125,-0.06536205857992172,-0.04505032300949097,0.006003325805068016
1772555508875292000,1.7302919921875,-0.06102056801319122,-0.043348297476768494,0.02312452159821987
1772555508885223700,1.7402236328125,-0.0586690716445446,-0.03633405268192291,0.03717440366744995
1772555508895154700,1.75015478515625,-0.05729221552610397,-0.02542920783162117,0.039058323949575424
1772555508905086700,1.760086669921875,-0.059042081236839294,-0.016273094341158867,0.028851255774497986
1772555508915018800,1.770018798828125,-0.059638895094394684,0.004042297601699829,0.015987124294042587
1772555508924950500,1.779950439453125,-0.06034623086452484,0.037411440163850784,-0.002698413096368313
1772555508934882600,1.789882568359375,-0.06533726304769516,0.06881223618984222,-0.013528957031667233
1772555508944814600,1.799814697265625,-0.0755382552742958,0.09183701872825623,-0.016463682055473328
1772555508954745900,1.809745849609375,-0.07783443480730057,0.12056479603052139,-0.018895946443080902
1772555508964678000,1.819677978515625,-0.07478148490190506,0.14746561646461487,-0.014549782499670982
1772555508974609700,1.829609619140625,-0.07164161652326584,0.1608983278274536,-0.00037004798650741577
1772555508984541700,1.839541748046875,-0.06835228204727173,0.14910146594047546,0.01814235746860504
1772555508994473700,1.8494736328125,-0.06905508786439896,0.13391266763210297,0.035006824880838394
1772555509004404700,1.85940478515625,-0.07032705843448639,0.12882299721240997,0.048505038022994995
1772555509014336800,1.869336669921875,-0.07347731292247772,0.11388479173183441,0.05881493538618088
1772555509024268500,1.8792685546875,-0.07827724516391754,0.08489121496677399,0.06277137994766235
1772555509034200600,1.88920068359375,-0.08155453205108643,0.05718155950307846,0.058256786316633224
1772555509044132600,1.899132568359375,-0.0806937962770462,0.02429785206913948,0.0513448640704155
1772555509054064600,1.909064697265625,-0.06289403140544891,-0.0009843353182077408,0.044943954795598984
1772555509063995600,1.91899560546875,-0.04408584162592888,-0.03596630319952965,0.04072901979088783
1772555509073927700,1.928927734375,-0.02508551999926567,-0.07890231907367706,0.029629230499267578
1772555509083859700,1.938859619140625,-0.0031562047079205513,-0.12090620398521423,0.01836758479475975
1772555509093791700,1.948791748046875,0.01219212543219328,-0.1456373929977417,-0.00910771731287241
1772555509103723800,1.958723876953125,0.023706302046775818,-0.15161538124084473,-0.03679580241441727
1772555509113654500,1.968654541015625,0.028322093188762665,-0.15756888687610626,-0.06833775341510773
1772555509123586600,1.978586669921875,0.031867243349552155,-0.1668241322040558,-0.1014886200428009
1772555509133518600,1.9885185546875,0.028630703687667847,-0.15805433690547943,-0.13047578930854797
1772555509143450600,1.99845068359375,0.02673141285777092,-0.12186603993177414,-0.15604034066200256
1772555509153382700,2.008382568359375,0.020274311304092407,-0.08204405754804611,-0.1675662398338318
1772555509163315000,2.01831494140625,0.01583920419216156,-0.04680529981851578,-0.16746565699577332
1772555509173245700,2.02824560546875,0.007688066456466913,-0.01388570200651884,-0.1542862057685852
1772555509183177700,2.038177734375,-0.00898746121674776,0.005484284833073616,-0.12753906846046448
1772555509193109800,2.04810986328125,-0.02820669673383236,0.01224791444838047,-0.09715612977743149
1772555509203041800,2.058041748046875,-0.03896922990679741,0.015090884640812874,-0.06243690475821495
1772555509212973600,2.0679736328125,-0.0512370839715004,0.007286757230758667,-0.03271123394370079
1772555509222904600,2.077904541015625,-0.06026442348957062,-0.0077425213530659676,-0.006512131541967392
1772555509232836600,2.087836669921875,-0.06630527228116989,-0.03281565010547638,0.015021390281617641
1772555509242768600,2.0977685546875,-0.07487179338932037,-0.05296732485294342,0.0234233308583498
1772555509252701000,2.107700927734375,-0.08291027694940567,-0.05170099064707756,0.022596951574087143
1772555509262632700,2.1176328125,-0.0847843661904335,-0.03313979133963585,0.012851548381149769
1772555509272564700,2.127564697265625,-0.07780501991510391,-0.018381351605057716,0.006174204405397177
1772555509282495700,2.137495849609375,-0.07114549726247787,-0.002166253514587879,-0.0015014158561825752
1772555509292427800,2.147427734375,-0.05924542620778084,0.018772050738334656,-0.006413084454834461
1772555509302359800,2.15735986328125,-0.04728294536471367,0.03531929478049278,-0.014860907569527626
1772555509312291600,2.16729150390625,-0.03966550529003143,0.049131784588098526,-0.02427331730723381
1772555509322223600,2.1772236328125,-0.03127388283610344,0.05079352855682373,-0.02796841412782669
1772555509332154600,2.187154541015625,-0.023741664364933968,0.04680944234132767,-0.02321014180779457
1772555509342087000,2.1970869140625,-0.023921331390738487,0.02754584327340126,-0.015038687735795975
1772555509352018700,2.207018798828125,-0.032026395201683044,0.0035246629267930984,-0.00983380526304245
1772555509361950700,2.21695068359375,-0.04176107421517372,-0.016341837123036385,-0.005371064879000187
1772555509371882800,2.2268828125,-0.04880433529615402,-0.022123292088508606,-0.006493854336440563
1772555509381813800,2.236813720703125,-0.052723489701747894,-0.02602650411427021,-0.00796366948634386
1772555509391745800,2.246745849609375,-0.04704243689775467,-0.036404576152563095,-0.002551860176026821
1772555509401677600,2.256677490234375,-0.03978282958269119,-0.047959066927433014,0.000041025690734386444
1772555509411609600,2.266609619140625,-0.031792011111974716,-0.04588206857442856,0.00283042062073946
1772555509421541600,2.276541748046875,-0.023612210527062416,-0.03271769732236862,0.005130560602992773
1772555509431473700,2.2864736328125,-0.017225684598088264,-0.018308397382497787,0.010312006808817387
1772555509441405000,2.296405029296875,-0.014918562956154346,-0.004249514080584049,0.006092466879636049
1772555509451336700,2.306336669921875,-0.016490094363689423,0.008313948288559914,-0.004094390198588371
1772555509461268700,2.316268798828125,-0.02110377885401249,0.025409521535038948,-0.014315308071672916
1772555509471200800,2.32620068359375,-0.030395282432436943,0.04906691610813141,-0.02736559882760048
1772555509481132500,2.336132568359375,-0.033610809594392776,0.07750210911035538,-0.03772623464465141
1772555509491063300,2.346063232421875,-0.03369070217013359,0.10716546326875687,-0.03992414101958275
1772555509500995300,2.355995361328125,-0.029620157554745674,0.11596119403839111,-0.04152526333928108
1772555509510927400,2.36592724609375,-0.023772386834025383,0.11248736083507538,-0.05018932744860649
1772555509520859400,2.375859375,-0.017216507345438004,0.08546029031276703,-0.05774560570716858
1772555509530791400,2.38579150390625,-0.010621989145874977,0.048571791499853134,-0.06971970945596695
1772555509540723200,2.39572314453125,-0.00958885159343481,0.008484192192554474,-0.07099080085754395
1772555509550654500,2.405654541015625,-0.007121166680008173,-0.018346624448895454,-0.06918331235647202
1772555509560586500,2.41558642578125,-0.002800985937938094,-0.029141008853912354,-0.06168753281235695
1772555509570518500,2.4255185546875,-0.0028121713548898697,-0.026433907449245453,-0.0462326779961586
1772555509580450600,2.435450439453125,-0.0042809052392840385,-0.01050269789993763,-0.026812784373760223
1772555509590382300,2.44538232421875,0.0005298289470374584,0.01801256649196148,-0.005901112221181393
1772555509600313300,2.455313232421875,-0.0017040311358869076,0.03966028243303299,0.02132895588874817
1772555509610245400,2.465245361328125,0.0037599760107696056,0.05339180678129196,0.047679074108600616
1772555509620177400,2.475177490234375,0.0047770612873137,0.06038091331720352,0.066673144698143
1772555509630109200,2.485109130859375,0.005617822054773569,0.05445750802755356,0.07432706654071808
1772555509640041500,2.49504150390625,0.005584242753684521,0.04163534194231033,0.07260142266750336
1772555509649972500,2.504972412109375,0.00912731233984232,0.0272915530949831,0.060984980314970016
1772555509659904500,2.514904541015625,0.009398446418344975,0.012849939987063408,0.04478111490607262
1772555509669836500,2.52483642578125,0.021362431347370148,0.012160181999206543,0.027426626533269882
1772555509679768300,2.534768310546875,0.03358646109700203,0.012586569413542747,0.01128782145678997
1772555509689700400,2.544700439453125,0.051976121962070465,0.005877800285816193,0.004403550177812576
1772555509699632400,2.55463232421875,0.06803277134895325,0.006025081500411034,0.0034052389673888683
1772555509709563400,2.5645634765625,0.08325433731079102,0.008340965956449509,0.0013072006404399872
1772555509719495400,2.574495361328125,0.09878117591142654,0.013938328251242638,0.0007382864132523537
1772555509729427500,2.584427490234375,0.10673443973064423,0.01643557660281658,-0.00845947302877903
1772555509739359500,2.594359375,0.1150323897600174,0.030609827488660812,-0.017742114141583443
1772555509749291500,2.60429150390625,0.12641394138336182,0.04778774827718735,-0.02411159686744213
1772555509759222500,2.614222412109375,0.12833425402641296,0.06032157316803932,-0.025742413476109505
1772555509769154300,2.624154296875,0.12730146944522858,0.06391257047653198,-0.019949238747358322
1772555509779086300,2.63408642578125,0.1250113993883133,0.06298127770423889,-0.01846667006611824
1772555509789018400,2.644018310546875,0.12092024832963943,0.05549139901995659,-0.012237535789608955
1772555509798950400,2.653950439453125,0.11335842311382294,0.0607595220208168,-0.01042869221419096
1772555509808882400,2.66388232421875,0.10831466317176819,0.0723850205540657,-0.007816930301487446
1772555509818813400,2.6738134765625,0.10385697335004807,0.08103033155202866,-0.003933052532374859
1772555509828745500,2.683745361328125,0.09752877056598663,0.0779530480504036,0.0023589320480823517
1772555509838677500,2.693677490234375,0.09452030807733536,0.07282280921936035,0.014203784056007862
1772555509848609500,2.703609619140625,0.08230918645858765,0.06250519305467606,0.023925386369228363
1772555509858541600,2.71354150390625,0.07794159650802612,0.04831421375274658,0.04211295396089554
1772555509868472300,2.723472412109375,0.0728594958782196,0.00894896499812603,0.054791197180747986
1772555509878404400,2.733404296875,0.06783038377761841,-0.02582233026623726,0.05555951967835426
1772555509888336400,2.74333642578125,0.06295493245124817,-0.040059857070446014,0.04749466851353645
1772555509898268400,2.753268310546875,0.05698138847947121,-0.0341898575425148,0.036560822278261185
1772555509908200400,2.763200439453125,0.05447562038898468,-0.0168478861451149,0.027554277330636978
1772555509918131500,2.77313134765625,0.05049886554479599,-0.0073909880593419075,0.022761613130569458
1772555509928063500,2.7830634765625,0.04485349729657173,-0.005216783843934536,0.022814344614744186
1772555509937995500,2.79299560546875,0.04117336869239807,0.0026086699217557907,0.024997808039188385
1772555509947927600,2.802927490234375,0.042822398245334625,0.024476949125528336,0.028485752642154694
1772555509957859600,2.812859619140625,0.04983273521065712,0.036176323890686035,0.034451838582754135
1772555509967791400,2.822791259765625,0.05471590906381607,0.030561314895749092,0.04080827161669731
1772555509977722400,2.832722412109375,0.056298986077308655,0.02662533149123192,0.039651960134506226
1772555509987654400,2.842654296875,0.05958692356944084,0.025226373225450516,0.029637407511472702
1772555509997586400,2.85258642578125,0.05771883949637413,0.018759967759251595,0.014567330479621887
1772555510007518500,2.8625185546875,0.058706071227788925,-0.0004177223891019821,0.002953018993139267
1772555510017450200,2.8724501953125,0.06252102553844452,-0.022800227627158165,-0.0011331615969538689
1772555510027381500,2.882381591796875,0.07297499477863312,-0.04155660420656204,-0.006289574317634106
1772555510037313500,2.8923134765625,0.08647175133228302,-0.0507797971367836,-0.015597730875015259
1772555510047245600,2.90224560546875,0.09404684603214264,-0.05156702548265457,-0.02294938638806343
1772555510057177300,2.91217724609375,0.09288515895605087,-0.04964673891663551,-0.03216969966888428
1772555510067109400,2.922109375,0.08822596073150635,-0.03833016753196716,-0.03060748800635338
1772555510077041400,2.93204150390625,0.07594350725412369,-0.03408719226717949,-0.024738088250160217
1772555510086972400,2.941972412109375,0.06370015442371368,-0.014111087657511234,-0.01622130163013935
1772555510096904400,2.951904541015625,0.050348419696092606,0.013168852776288986,-0.0008671935647726059
1772555510106836200,2.961836181640625,0.03953012824058533,0.02854274958372116,0.014849717728793621
1772555510116768300,2.971768310546875,0.028388552367687225,0.036176133900880814,0.028065219521522522
1772555510126700300,2.9817001953125,0.01565864123404026,0.03590102866292,0.03383549302816391
1772555510136631600,2.991631591796875,0.007058858405798674,0.022801315411925316,0.04592658206820488
1772555510146563600,3.0015634765625,0.0005234605632722378,0.00044647417962551117,0.05093758925795555
1772555510156495400,3.011495361328125,-0.005319392774254084,-0.028384298086166382,0.05267227813601494
1772555510166427400,3.021427490234375,-0.01328916847705841,-0.04475368559360504,0.04828685149550438
1772555510176359400,3.031359375,-0.01840519905090332,-0.05859862267971039,0.042289428412914276
1772555510186290400,3.04129052734375,-0.02327878400683403,-0.07145236432552338,0.028796788305044174
1772555510196222200,3.05122216796875,-0.026132941246032715,-0.07188909500837326,0.015527747571468353
1772555510206154200,3.061154296875,-0.024732384830713272,-0.0556320920586586,0.0042671035043895245
1772555510216086300,3.071086181640625,-0.024935485795140266,-0.036430537700653076,-0.00006609130650758743
1772555510226018300,3.081018310546875,-0.029516655951738358,-0.02182203158736229,0.004290307406336069
1772555510235950600,3.09095068359375,-0.028043445199728012,-0.01543031819164753,0.014795172028243542
1772555510245881300,3.10088134765625,-0.021741872653365135,-0.0065377578139305115,0.025857675820589066
1772555510255813400,3.1108134765625,-0.010200457647442818,0.0036403629928827286,0.03557433560490608
1772555510265745400,3.120745361328125,0.0029859179630875587,-0.0017384244129061699,0.04813912883400917
1772555510275677400,3.130677490234375,0.01625920832157135,-0.011076690629124641,0.04995867609977722
1772555510285609500,3.140609375,0.033791862428188324,-0.018808646127581596,0.04800790920853615
1772555510295540200,3.150540283203125,0.051740068942308426,-0.022205132991075516,0.03828718140721321
1772555510305472300,3.16047216796875,0.06933370977640152,-0.025225425139069557,0.02487283945083618
1772555510315404300,3.170404296875,0.07701396942138672,-0.03464626520872116,0.011628000065684319
1772555510325336600,3.180336669921875,0.08662398904561996,-0.03969215601682663,0.006338429171591997
1772555510335268600,3.1902685546875,0.08240750432014465,-0.05001739040017128,0.0040969243273139
1772555510345199400,3.200199462890625,0.07046056538820267,-0.05946096032857895,0.006187239196151495
1772555510355131400,3.21013134765625,0.06293901801109314,-0.05938301980495453,0.013977127149701118
1772555510365063400,3.2200634765625,0.048425063490867615,-0.048183098435401917,0.015504449605941772
1772555510374995500,3.229995361328125,0.03408677130937576,-0.03367243707180023,0.014136039651930332
1772555510384927500,3.239927490234375,0.027047503739595413,-0.02180619165301323,0.016488676890730858
1772555510394859300,3.249859375,0.021349187940359116,-0.01159043237566948,0.013921629637479782
1772555510404790500,3.25979052734375,0.019406145438551903,-0.005144251510500908,0.01213811058551073
1772555510414722600,3.26972265625,0.020138707011938095,-0.01108788326382637,0.007112300954759121
1772555510424654600,3.279654541015625,0.019114721566438675,-0.017014481127262115,0.003319426905363798
1772555510434586600,3.289586669921875,0.017365945503115654,-0.030445851385593414,-0.0010343585163354874
1772555510444518400,3.299518310546875,0.014055369421839714,-0.035561252385377884,-0.005301008000969887
1772555510454449400,3.309449462890625,0.003417978063225746,-0.03125765174627304,-0.004837950691580772
1772555510464381400,3.31938134765625,-0.008445339277386665,-0.017741844058036804,-0.005446482449769974
1772555510474313500,3.3293134765625,-0.022687463089823723,-0.004185427911579609,-0.0047508422285318375
1772555510484245500,3.33924560546875,-0.03562936186790466,0.012398075312376022,-0.002550537697970867
1772555510494177300,3.34917724609375,-0.045027803629636765,0.01624842919409275,0.005448526237159967
1772555510504109300,3.359109375,-0.054419707506895065,0.018251126632094383,0.010793756693601608
1772555510514040600,3.36904052734375,-0.06282464414834976,0.011427901685237885,0.020770445466041565
1772555510523972600,3.37897265625,-0.06639940291643143,0.006469361484050751,0.026592383161187172
1772555510533904600,3.388904541015625,-0.0705312192440033,0.008556416258215904,0.027776625007390976
1772555510543836400,3.39883642578125,-0.07842589914798737,0.012583380565047264,0.02414087764918804
1772555510553768400,3.4087685546875,-0.08225467801094055,0.022386884316802025,0.02002706751227379
1772555510563699500,3.418699462890625,-0.08576179295778275,0.04005136340856552,0.019815346226096153
1772555510573631500,3.428631591796875,-0.08288045227527618,0.05445021018385887,0.02118867263197899
1772555510583563500,3.4385634765625,-0.07753148674964905,0.061879102140665054,0.0181308314204216
1772555510593495300,3.448495361328125,-0.06785242259502411,0.06350494921207428,0.017804216593503952
1772555510603427300,3.45842724609375,-0.05636248365044594,0.05485101044178009,0.01445342879742384
1772555510613358600,3.468358642578125,-0.04993600770831108,0.042416445910930634,0.014380724169313908
1772555510623290600,3.47829052734375,-0.048765018582344055,0.03912557661533356,0.014321601949632168
1772555510633222400,3.488222412109375,-0.04530445486307144,0.029470844194293022,0.020924437791109085
1772555510643154400,3.498154541015625,-0.03875308111310005,0.01759314350783825,0.02727314829826355
1772555510653086500,3.50808642578125,-0.03147422522306442,-0.00007224269211292267,0.03255358710885048
1772555510663018500,3.5180185546875,-0.015089126303792,-0.019883232191205025,0.03572514280676842
1772555510672949500,3.527949462890625,0.004780936986207962,-0.02304016798734665,0.03044244274497032
1772555510682881300,3.53788134765625,0.025127220898866653,-0.01239498145878315,0.01995038613677025
1772555510692813300,3.547813232421875,0.030806606635451317,0.0013139136135578156,0.007999291643500328
1772555510702745300,3.557745361328125,0.0361957773566246,0.010894902050495148,0.0008857222273945808
1772555510712677400,3.567677490234375,0.028916243463754654,0.0022455547004938126,0.010595414787530899
1772555510722608600,3.577608642578125,0.01595410704612732,-0.019207272678613663,0.029410913586616516
1772555510732540400,3.58754052734375,-0.006775561720132828,-0.035391584038734436,0.05139721930027008
1772555510742472400,3.597472412109375,-0.02346372790634632,-0.04251367598772049,0.07602933049201965
1772555510752404500,3.607404541015625,-0.03552685305476189,-0.033100344240665436,0.09469757974147797
1772555510762336500,3.61733642578125,-0.045393332839012146,-0.015120808966457844,0.11269814521074295
1772555510772268500,3.6272685546875,-0.0505935400724411,0.008767195045948029,0.12174229323863983
1772555510782199300,3.63719921875,-0.056398164480924606,0.029738789424300194,0.12644916772842407
1772555510792131300,3.64713134765625,-0.05627026408910751,0.04290373623371124,0.12872028350830078
1772555510802063400,3.6570634765625,-0.04868558049201965,0.03825758397579193,0.1346825659275055
1772555510811995400,3.666995361328125,-0.03977551683783531,0.01750890351831913,0.13801883161067963
1772555510821927400,3.676927490234375,-0.029100235551595688,-0.014588844031095505,0.13840657472610474
1772555510831858400,3.6868583984375,-0.011724995449185371,-0.03701911121606827,0.12535898387432098
1772555510841790500,3.69679052734375,0.003809222485870123,-0.057880714535713196,0.11348982155323029
1772555510851722500,3.706722412109375,0.020698843523859978,-0.07414314150810242,0.09658464044332504
1772555510861654500,3.716654541015625,0.03238346427679062,-0.07294498383998871,0.0704350620508194
1772555510871586600,3.726586669921875,0.03973431885242462,-0.06090264767408371,0.044907551258802414
1772555510881517300,3.736517333984375,0.038312990218400955,-0.04465017467737198,0.018679410219192505
1772555510891449300,3.746449462890625,0.0384797528386116,-0.02861199900507927,-0.0010324940085411072
1772555510901381400,3.75638134765625,0.030556581914424896,-0.01736307330429554,-0.014021264389157295
1772555510911313400,3.7663134765625,0.020638633519411087,0.0057154130190610886,-0.020175494253635406
1772555510921245700,3.77624560546875,0.014870758168399334,0.028625788167119026,-0.01815628632903099
1772555510931176400,3.786176513671875,0.004953000228852034,0.05328934267163277,-0.006926851347088814
1772555510941108500,3.7961083984375,0.0007105846889317036,0.06808719038963318,0.005461907014250755
1772555510951040500,3.80604052734375,-0.00189534155651927,0.08199703693389893,0.021493421867489815
1772555510960972500,3.81597265625,-0.007251757197082043,0.08503357321023941,0.035334400832653046
1772555510970904300,3.825904296875,-0.006479708943516016,0.0678507387638092,0.048187702894210815
1772555510980836400,3.83583642578125,-0.005368637852370739,0.04931940138339996,0.05403200536966324
1772555510990767400,3.845767333984375,-0.00457189092412591,0.041074641048908234,0.043421998620033264
1772555511000699600,3.85569970703125,0.0008684145286679268,0.031081929802894592,0.0247455146163702
1772555511010631700,3.865631591796875,0.0030713556334376335,0.029831551015377045,0.004116083029657602
1772555511020563500,3.8755634765625,0.016814865171909332,0.022801339626312256,-0.0115235960111022
1772555511030495500,3.88549560546875,0.026024755090475082,0.016226835548877716,-0.02046462520956993
1772555511040426500,3.895426513671875,0.03784652426838875,0.0036407355219125748,-0.026600278913974762
1772555511050358500,3.905358642578125,0.048358868807554245,-0.004300195723772049,-0.03382328897714615
1772555511060290600,3.91529052734375,0.058193389326334,-0.010102691128849983,-0.037528812885284424
1772555511070222300,3.925222412109375,0.06551214307546616,-0.007815491408109665,-0.04100219905376434
1772555511080154400,3.935154296875,0.07272877544164658,-0.0031277956441044807,-0.04824412986636162
1772555511090085600,3.945085693359375,0.07511395215988159,0.00915679894387722,-0.05601886659860611
1772555511100017700,3.955017578125,0.07684873789548874,0.02258312702178955,-0.060695111751556396
1772555511109949400,3.964949462890625,0.07951942086219788,0.01924831047654152,-0.05412892624735832
1772555511119881500,3.974881591796875,0.07703496515750885,0.008455848321318626,-0.043858181685209274
1772555511129813500,3.9848134765625,0.07481294870376587,-0.0008871890604496002,-0.032935358583927155
1772555511139745500,3.99474560546875,0.07153326272964478,-0.0028496719896793365,-0.025708869099617004
1772555511149676500,4.004676513671875,0.06669187545776367,0.0028317421674728394,-0.01838558539748192
1772555511159608300,4.0146083984375,0.06320659816265106,0.013024725019931793,-0.01688356325030327
1772555511169540400,4.024540283203125,0.05547643452882767,0.024594245478510857,-0.022443825379014015
1772555511179472400,4.034472412109375,0.04484749212861061,0.03777715563774109,-0.0239716786891222
1772555511189404400,4.044404296875,0.035249654203653336,0.03319786116480827,-0.027385741472244263
1772555511199335700,4.054335693359375,0.029767002910375595,0.022143349051475525,-0.03591105341911316
1772555511209267500,4.064267333984375,0.028804611414670944,0.0019942428916692734,-0.03662337362766266
1772555511219199500,4.074199462890625,0.03283530846238136,-0.010620351880788803,-0.03615252673625946
1772555511229131500,4.084131591796875,0.04200948029756546,-0.010271250270307064,-0.03184088319540024
1772555511239063600,4.0940634765625,0.04790305718779564,-0.0030487580224871635,-0.026692725718021393
1772555511248995600,4.10399560546875,0.04958266392350197,0.008970536291599274,-0.01780337654054165
1772555511258926300,4.11392626953125,0.0555337630212307,0.0063704922795295715,-0.005913160741329193
1772555511268858400,4.1238583984375,0.05670030042529106,-0.00782629381865263,0.0014623552560806274
1772555511278790400,4.133790283203125,0.05886971205472946,-0.01873593218624592,-0.00300722848623991
1772555511288722400,4.143722412109375,0.060871515423059464,-0.03664606809616089,-0.016740161925554276
1772555511298654500,4.153654541015625,0.06548438221216202,-0.06403374671936035,-0.024079833179712296
1772555511308585500,4.16358544921875,0.0749002993106842,-0.07000367343425751,-0.035410501062870026
1772555511318517500,4.173517578125,0.08706162124872208,-0.06282352656126022,-0.05065549910068512
1772555511328449500,4.183449462890625,0.09124428778886795,-0.03788771480321884,-0.05607746168971062
1772555511338381600,4.193381591796875,0.0964859202504158,-0.023709580302238464,-0.05056658387184143
1772555511348313600,4.203313720703125,0.10431312024593353,-0.027070121839642525,-0.03675626218318939
1772555511358244400,4.213244384765625,0.10440180450677872,-0.03933264687657356,-0.03182488679885864
1772555511368176400,4.22317626953125,0.09185189753770828,-0.051850952208042145,-0.03510715067386627
1772555511378108400,4.2331083984375,0.07480047643184662,-0.055870190262794495,-0.04368226230144501
1772555511388040400,4.24304052734375,0.057615507394075394,-0.05119515210390091,-0.04449811950325966
1772555511397972200,4.25297216796875,0.04796980693936348,-0.04503312706947327,-0.0358274020254612
1772555511407904500,4.262904541015625,0.04021916165947914,-0.044032394886016846,-0.021181095391511917
1772555511417835500,4.27283544921875,0.03522626683115959,-0.05626402422785759,-0.0022484175860881805
1772555511427767600,4.282767578125,0.027896277606487274,-0.0657007098197937,0.022743742913007736
1772555511437699600,4.292699462890625,0.018536865711212158,-0.06180877238512039,0.0391397587954998
1772555511447631400,4.30263134765625,0.00735057145357132,-0.04507264122366905,0.047740496695041656
1772555511457563400,4.3125634765625,-0.009726416319608688,-0.022328712046146393,0.046696003526449203
1772555511467494400,4.322494384765625,-0.025227393954992294,-0.006237444467842579,0.05252271890640259
1772555511477426400,4.332426513671875,-0.02928312122821808,0.0006902366876602173,0.05995240435004234
1772555511487358500,4.3423583984375,-0.039369285106658936,-0.005881414748728275,0.061846811324357986
1772555511497290500,4.35229052734375,-0.05036015063524246,-0.00933926273137331,0.051123060286045074
1772555511507222500,4.362222412109375,-0.05857978016138077,-0.0017177024856209755,0.036514583975076675
1772555511517153800,4.37215380859375,-0.055623140186071396,0.020620359107851982,0.02992032840847969
1772555511527085800,4.3820859375,-0.04787787050008774,0.04158396273851395,0.017294548451900482
1772555511537017600,4.392017578125,-0.039314206689596176,0.04102843254804611,0.011532001197338104
1772555511546949600,4.40194970703125,-0.03182411566376686,0.02206030674278736,0.006978201679885387
1772555511556881700,4.411881591796875,-0.02363143488764763,0.0029079169034957886,0.0012401547282934189
1772555511566813700,4.421813720703125,-0.022398123517632484,-0.01482719648629427,0.003722265362739563
1772555511576744400,4.431744384765625,-0.02230997383594513,-0.023023607209324837,0.00782353337854147
1772555511586676500,4.441676513671875,-0.021603919565677643,-0.02011236362159252,0.015982897952198982
1772555511596608500,4.4516083984375,-0.025299057364463806,-0.008377943187952042,0.025676004588603973
1772555511606540800,4.461540771484375,-0.02652793563902378,0.010164888575673103,0.03265482932329178
1772555511616472800,4.471472900390625,-0.027025947347283363,0.01959647424519062,0.03549882024526596
1772555511626403600,4.481403564453125,-0.023434137925505638,0.02146458998322487,0.035721343010663986
1772555511636335600,4.491335693359375,-0.024576900526881218,0.012738477438688278,0.0315319262444973
1772555511646267600,4.501267578125,-0.020374871790409088,-0.002513662911951542,0.022635741159319878
1772555511656199700,4.51119970703125,-0.02007712982594967,-0.026735913008451462,0.014094451442360878
1772555511666131700,4.521131591796875,-0.0163503997027874,-0.06436920166015625,0.0012257574126124382
1772555511676062500,4.5310625,-0.014443309977650642,-0.09031585603952408,-0.01751011237502098
1772555511685994800,4.540994873046875,-0.009584300220012665,-0.08832408487796783,-0.03130140155553818
1772555511695926800,4.5509267578125,-0.005447345320135355,-0.0734734982252121,-0.039413921535015106
1772555511705858800,4.56085888671875,-0.0008574356324970722,-0.05463065207004547,-0.04136150702834129
1772555511715790800,4.570790771484375,-0.007046888116747141,-0.04647978022694588,-0.03786903992295265
1772555511725721600,4.5807216796875,-0.009967067278921604,-0.028994113206863403,-0.03289656341075897
1772555511735653600,4.590653564453125,-0.016310449689626694,-0.0037303026765584946,-0.026115359738469124
1772555511745585700,4.600585693359375,-0.023298781365156174,0.015059830620884895,-0.0209084153175354
1772555511755517700,4.610517578125,-0.029078904539346695,0.028415851294994354,-0.023989424109458923
1772555511765449700,4.62044970703125,-0.03526496887207031,0.04592214524745941,-0.026820257306098938
1772555511775381500,4.630381591796875,-0.04188612103462219,0.062013231217861176,-0.028845060616731644
1772555511785312800,4.640312744140625,-0.04979965463280678,0.06405782699584961,-0.02872306853532791
1772555511795244800,4.650244873046875,-0.056821610778570175,0.06254887580871582,-0.029413092881441116
1772555511805176800,4.6601767578125,-0.06530171632766724,0.05434874817728996,-0.024879753589630127
1772555511815108900,4.67010888671875,-0.06841602176427841,0.03723686933517456,-0.01985063962638378
1772555511825040600,4.68004052734375,-0.06654398888349533,0.020324839279055595,-0.013411839492619038
1772555511834971600,4.6899716796875,-0.06044801324605942,-0.00005180388689041138,-0.0074761854484677315
1772555511844903700,4.699903564453125,-0.05105574429035187,-0.013653084635734558,-0.0106256864964962
1772555511854835700,4.709835693359375,-0.03967845439910889,-0.015986546874046326,-0.015838025137782097
1772555511864767500,4.719767578125,-0.029195962473750114,-0.01897342875599861,-0.017931625247001648
1772555511874699500,4.729699462890625,-0.01900031790137291,-0.014391460455954075,-0.02172902598977089
1772555511884631600,4.739631591796875,-0.014281608164310455,-0.0005092434585094452,-0.03506428003311157
1772555511894562800,4.749562744140625,-0.011761458590626717,0.015728583559393883,-0.03907632827758789
1772555511904494800,4.759494873046875,-0.004832081496715546,0.014087233692407608,-0.037996962666511536
1772555511914426600,4.769426513671875,-0.005646742880344391,0.000019084662199020386,-0.03280726075172424
1772555511924358700,4.779358642578125,-0.007864503189921379,-0.012185897678136826,-0.029936421662569046
1772555511934290700,4.789290771484375,-0.012511719018220901,-0.02461034245789051,-0.025486279278993607
1772555511944221700,4.7992216796875,-0.019569000229239464,-0.03608478978276253,-0.023166541010141373
1772555511954153700,4.80915380859375,-0.02580505982041359,-0.03068283572793007,-0.019104424864053726
1772555511964085500,4.81908544921875,-0.034428756684064865,-0.017654815688729286,-0.015874050557613373
1772555511974017500,4.829017578125,-0.038832828402519226,-0.0002973973751068115,-0.00824382621794939
1772555511983949600,4.838949462890625,-0.04353928938508034,0.010871026664972305,0.003221440128982067
1772555511993880800,4.848880859375,-0.052551958709955215,0.020934047177433968,0.013688195496797562
1772555512003812600,4.8588125,-0.05515565723180771,0.024620594456791878,0.022437676787376404
1772555512013744600,4.86874462890625,-0.05569255352020264,0.02409542165696621,0.03557957708835602
1772555512023676700,4.8786767578125,-0.054543785750865936,0.009568659588694572,0.04151501506567001
1772555512033608700,4.888608642578125,-0.0585305392742157,0.003330737352371216,0.04120901972055435
1772555512043540700,4.898540771484375,-0.0574314258992672,0.00014085881412029266,0.036799054592847824
1772555512053471500,4.908471435546875,-0.05588492751121521,-0.006521306000649929,0.03332815691828728
1772555512063403500,4.918403564453125,-0.05514885112643242,-0.01498349942266941,0.026647083461284637
1772555512073335600,4.92833544921875,-0.05581704154610634,-0.015929188579320908,0.020415551960468292
1772555512083267600,4.938267578125,-0.05396769568324089,-0.006214275024831295,0.020145602524280548
1772555512093199600,4.94819970703125,-0.051531702280044556,-0.007716829888522625,0.026449039578437805
1772555512103130600,4.958130615234375,-0.05247252434492111,-0.02000333182513714,0.03932211920619011
1772555512113062700,4.968062744140625,-0.046591464430093765,-0.02272268384695053,0.04487054795026779
1772555512122994700,4.97799462890625,-0.04140098765492439,-0.003269122913479805,0.04594269394874573
1772555512132926700,4.9879267578125,-0.028943253681063652,0.0009815488010644913,0.04634403437376022
1772555512142858800,4.997858642578125,-0.014890284277498722,-0.013182027265429497,0.044925227761268616
1772555512152789500,5.00778955078125,-0.004436844494193792,-0.0231276024132967,0.035658758133649826
1772555512162721500,5.017721435546875,0.003247804008424282,-0.015719853341579437,0.02119649574160576
1772555512172653600,5.027653564453125,0.007855073548853397,-0.012069991789758205,0.008161921054124832
1772555512182585600,5.037585693359375,0.008347222581505775,-0.017215542495250702,-0.0016728276386857033
1772555512192517600,5.047517578125,0.011811729520559311,-0.020791634917259216,-0.007640705443918705
1772555512202449700,5.05744970703125,0.012410193681716919,-0.014665370807051659,-0.013079199939966202
1772555512212380700,5.067380615234375,0.012860001996159554,-0.004070783033967018,-0.014778563752770424
1772555512222312700,5.077312744140625,0.017445456236600876,0.0018380917608737946,-0.0077151525765657425
1772555512232244700,5.08724462890625,0.015922393649816513,0.01077406108379364,-0.0028410349041223526
1772555512242176800,5.0971767578125,0.01235329732298851,0.025212056934833527,-0.0022102026268839836
1772555512252108500,5.107108642578125,0.014015641063451767,0.03858192265033722,-0.006168991327285767
1772555512262039600,5.11703955078125,0.012083519250154495,0.051443394273519516,-0.016335075721144676
1772555512271971600,5.1269716796875,0.012943718582391739,0.05037972703576088,-0.021670717746019363
1772555512281903600,5.136903564453125,0.018042631447315216,0.043151289224624634,-0.027161750942468643
1772555512291836000,5.1468359375,0.02329358644783497,0.03784573823213577,-0.03651796653866768
1772555512301767700,5.156767578125,0.022280253469944,0.038624174892902374,-0.04665076360106468
1772555512311698700,5.16669873046875,0.019829612225294113,0.03728274255990982,-0.055991001427173615
1772555512321630700,5.176630615234375,0.01234852522611618,0.03197181224822998,-0.06395301222801208
1772555512331562800,5.186562744140625,0.009860067628324032,0.03495614975690842,-0.06459696590900421
1772555512341494500,5.19649462890625,0.00636215228587389,0.039351142942905426,-0.05597253516316414
1772555512351426600,5.206426513671875,0.0030369292944669724,0.041398048400878906,-0.04935191571712494
1772555512361357600,5.216357666015625,0.0008837389759719372,0.03376738727092743,-0.031568530946969986
1772555512371289900,5.226289794921875,-0.0034886386711150408,0.02596113085746765,-0.019238095730543137
1772555512381222000,5.236221923828125,-0.00577769847586751,0.027572084218263626,-0.00638637226074934
1772555512391153700,5.246153564453125,-0.006440293043851852,0.026702027767896652,-0.004444927908480167
1772555512401085700,5.256085693359375,-0.0056105731055140495,0.02674935944378376,-0.00916795153170824
1772555512411017700,5.266017822265625,-0.00580844609066844,0.02613549865782261,-0.010476096533238888
1772555512420948700,5.27594873046875,-0.005001215264201164,0.026353904977440834,-0.019423987716436386
1772555512430880800,5.285880859375,0.0008018128573894501,0.02711130864918232,-0.018704134970903397
1772555512440812500,5.2958125,0.008916342630982399,0.019752386957406998,-0.014985475689172745
1772555512450744600,5.30574462890625,0.014315369538962841,0.006940983235836029,-0.0039011333137750626
1772555512460676600,5.315676513671875,0.019146297127008438,-0.012360304594039917,0.0020749475806951523
1772555512470608000,5.32560791015625,0.01274858508259058,-0.03170390799641609,0.011255130171775818
1772555512480539600,5.33553955078125,0.011936536058783531,-0.03908286616206169,0.016022205352783203
1772555512490471700,5.3454716796875,0.016069496050477028,-0.032188475131988525,0.01065061055123806
1772555512500403700,5.35540380859375,0.016901779919862747,-0.0031808260828256607,0.006054628640413284
1772555512510335700,5.365335693359375,0.016687661409378052,0.025917936116456985,0.005376055371016264
1772555512520266800,5.375266845703125,0.018642738461494446,0.03130198270082474,0.011714577674865723
1772555512530198800,5.38519873046875,0.019419584423303604,0.030546177178621292,0.0218721404671669
1772555512540130600,5.395130615234375,0.021456295624375343,0.026550794020295143,0.03312259167432785
1772555512550062600,5.4050625,0.024490168318152428,0.024138769134879112,0.042004235088825226
1772555512559994600,5.41499462890625,0.02673351764678955,-0.0003083571791648865,0.05218275636434555
1772555512569926700,5.4249267578125,0.024909518659114838,-0.04377247765660286,0.055092792958021164
1772555512579858000,5.43485791015625,0.031225956976413727,-0.07008565962314606,0.04719304293394089
1772555512589789700,5.444789794921875,0.03129573166370392,-0.07364816963672638,0.030456673353910446
1772555512599721700,5.4547216796875,0.03778669983148575,-0.07248342782258987,0.01248137466609478
1772555512609653800,5.46465380859375,0.03852306678891182,-0.0707947164773941,-0.00256255641579628
1772555512619585800,5.474585693359375,0.04038834571838379,-0.061093203723430634,-0.012018551118671894
1772555512629516500,5.4845166015625,0.03977954387664795,-0.04583036154508591,-0.015447637997567654
1772555512639448600,5.494448486328125,0.03844692185521126,-0.03213455528020859,-0.014099985361099243
1772555512649380600,5.504380615234375,0.02918950840830803,-0.012493476271629333,-0.00739680789411068
1772555512659312600,5.514312744140625,0.017986271530389786,0.017072182148694992,0.00596694415435195
1772555512669244700,5.52424462890625,0.01021889504045248,0.04552192986011505,0.024060459807515144
1772555512679175700,5.53417578125,-0.0018132184632122517,0.05572432279586792,0.04350528120994568
1772555512689107700,5.544107666015625,-0.010478878393769264,0.05847243219614029,0.0556732676923275
1772555512699039700,5.554039794921875,-0.008065233938395977,0.0542449876666069,0.05424896255135536
1772555512708971800,5.5639716796875,-0.005496082361787558,0.04015660285949707,0.04683791846036911
1772555512718903800,5.57390380859375,-0.001172657124698162,0.01348651759326458,0.025503043085336685
1772555512728834600,5.58383447265625,0.012115717865526676,-0.022047242149710655,0.0009614815935492516
1772555512738766600,5.5937666015625,0.02337355725467205,-0.04502806067466736,-0.020684286952018738
1772555512748698600,5.60369873046875,0.03418758884072304,-0.06228587403893471,-0.03314361721277237
1772555512758630700,5.613630615234375,0.03487713262438774,-0.06432444602251053,-0.041673436760902405
1772555512768562700,5.623562744140625,0.03373996168375015,-0.057794906198978424,-0.03801904618740082
1772555512778494700,5.63349462890625,0.02902407944202423,-0.050823844969272614,-0.034953661262989044
1772555512788425700,5.64342578125,0.020369339734315872,-0.03629283607006073,-0.02313907817006111
1772555512798357800,5.653357666015625,0.013180908747017384,-0.02397536300122738,-0.002453383058309555
1772555512808289800,5.663289794921875,0.01496123243123293,-0.0025212038308382034,0.013640099205076694
1772555512818221800,5.673221923828125,0.0139229167252779,0.020454293116927147,0.024034928530454636
1772555512828153600,5.683153564453125,0.011435789987444878,0.03626974672079086,0.03325799107551575
1772555512838084600,5.693084716796875,0.009644665755331516,0.034223802387714386,0.038184601813554764
1772555512848016600,5.7030166015625,0.008184720762073994,0.02082863450050354,0.036637306213378906
1772555512857948700,5.71294873046875,0.008545411750674248,-0.0018548807129263878,0.030928008258342743
1772555512867880700,5.722880615234375,0.004693947732448578,-0.02802310138940811,0.022261017933487892
1772555512877812700,5.732812744140625,0.004454748705029488,-0.041399650275707245,0.011673299595713615
1772555512887743700,5.74274365234375,0.007031623274087906,-0.048376332968473434,0.001017458736896515
1772555512897675800,5.75267578125,0.006597770377993584,-0.032402604818344116,-0.013249504379928112
1772555512907607800,5.76260791015625,0.01039863470941782,-0.01319934707134962,-0.020886652171611786
1772555512917539600,5.77253955078125,0.012373104691505432,0.0051791854202747345,-0.03212256357073784
1772555512927471600,5.7824716796875,0.015219757333397865,0.028125248849391937,-0.03622595965862274
1772555512937403600,5.792403564453125,0.020344160497188568,0.04127292335033417,-0.03444325551390648
1772555512947334700,5.802334716796875,0.020992640405893326,0.036921314895153046,-0.027975771576166153
1772555512957266700,5.8122666015625,0.019535817205905914,0.025908565148711205,-0.017153073102235794
1772555512967198700,5.82219873046875,0.014199375174939632,0.01752200536429882,-0.013685104437172413
1772555512977130800,5.832130859375,0.013337383046746254,0.013192230835556984,-0.01564876362681389
1772555512987062800,5.842062744140625,0.01187184639275074,0.0118489321321249,-0.01915241777896881
1772555512996993800,5.851993896484375,0.006696282885968685,-0.0012259501963853836,-0.02606690675020218
1772555513006925800,5.86192578125,0.00047220848500728607,-0.015904229134321213,-0.023756083101034164
1772555513016857600,5.871857666015625,-0.00193526572547853,-0.02998211234807968,-0.017787756398320198
1772555513026789600,5.88178955078125,-0.0045819152146577835,-0.03218827396631241,-0.01213786005973816
1772555513036721700,5.8917216796875,-0.006166203413158655,-0.01795850694179535,-0.00719066895544529
1772555513046652700,5.901652587890625,-0.007645057048648596,-0.009436924010515213,0.0015828479081392288
1772555513056584700,5.911584716796875,-0.009137152694165707,-0.012866552919149399,0.010297936387360096
1772555513066516700,5.921516845703125,-0.01660039648413658,-0.018628301098942757,0.01606314815580845
1772555513076448800,5.93144873046875,-0.016088001430034637,-0.02367466874420643,0.023408910259604454
1772555513086380800,5.941380859375,-0.021047338843345642,-0.024570023640990257,0.018246639519929886
1772555513096311800,5.951311767578125,-0.02308805100619793,-0.016694381833076477,0.007889836095273495
1772555513106243600,5.96124365234375,-0.023079529404640198,-0.005411100573837757,-0.007034251466393471
1772555513116175600,5.971175537109375,-0.027346469461917877,0.0012695323675870895,-0.020961396396160126
1772555513126107600,5.981107666015625,-0.0269981287419796,0.0044954195618629456,-0.03435096889734268
1772555513136039700,5.991039794921875,-0.022453758865594864,0.00413794070482254,-0.03805810585618019
1772555513145971700,6.0009716796875,-0.01996556669473648,-0.002709578722715378,-0.03492622822523117
1772555513155902700,6.01090283203125,-0.016434043645858765,-0.007451388984918594,-0.028246063739061356
1772555513165834800,6.020834716796875,-0.013529600575566292,-0.01886756159365177,-0.024384215474128723
1772555513175766800,6.030766845703125,-0.00879980530589819,-0.030813969671726227,-0.013476977124810219
1772555513185698800,6.04069873046875,-0.012092538177967072,-0.027747340500354767,-0.007566092535853386
1772555513195630800,6.050630859375,-0.01966998167335987,-0.02373354882001877,0.001049472950398922
1772555513205561600,6.0605615234375,-0.020297955721616745,-0.007829150184988976,0.00020098965615034103
1772555513215493600,6.07049365234375,-0.0309700146317482,-0.0023175617679953575,0.0017375098541378975
1772555513225425700,6.08042578125,-0.03500736877322197,-0.0005422979593276978,0.0006914194673299789
1772555513235357700,6.090357666015625,-0.03546843305230141,-0.00400407612323761,0.007109173573553562
1772555513245289700,6.100289794921875,-0.02844434604048729,-0.00018803216516971588,0.010744388215243816
1772555513255220700,6.110220703125,-0.023304443806409836,0.002986455336213112,0.014453905634582043
1772555513265152800,6.12015283203125,-0.013972993940114975,-0.010224686935544014,0.020507270470261574
1772555513275084800,6.130084716796875,-0.0068845320492982864,-0.021880801767110825,0.016269754618406296
1772555513285016800,6.140016845703125,-0.006312218494713306,-0.035717520862817764,0.011074992828071117
1772555513294948900,6.149948974609375,-0.008771887049078941,-0.042673736810684204,0.00870781671255827
1772555513304879600,6.159879638671875,-0.011491773650050163,-0.03023863583803177,0.01406183559447527
1772555513314811600,6.169811767578125,-0.015011047013103962,-0.0168926864862442,0.02585016004741192
1772555513324743700,6.17974365234375,-0.01972377672791481,-0.006070398725569248,0.03644021973013878
1772555513334675700,6.18967578125,-0.027160849422216415,-0.0028229476884007454,0.04720887169241905
1772555513344607500,6.199607421875,-0.027827169746160507,-0.0075463298708200455,0.054985299706459045
1772555513354539500,6.20953955078125,-0.021016372367739677,-0.01407451368868351,0.06171118840575218
1772555513364470800,6.219470703125,-0.012829283252358437,-0.03122660145163536,0.06870251893997192
1772555513374402800,6.22940283203125,-0.002902477979660034,-0.04611152410507202,0.07110755890607834
1772555513384334800,6.2393349609375,0.0005606967024505138,-0.06895612180233002,0.06576765328645706
1772555513394266600,6.2492666015625,0.005350053776055574,-0.08604875206947327,0.06186005845665932
1772555513404198700,6.25919873046875,0.0055788191966712475,-0.08485113084316254,0.06313811242580414
1772555513414129700,6.269129638671875,0.012964709661900997,-0.06976380944252014,0.05312307924032211
1772555513424061700,6.279061767578125,0.016948796808719635,-0.05241198092699051,0.04457859322428703
1772555513433993700,6.28899365234375,0.017666764557361603,-0.03440912812948227,0.03015899285674095
1772555513443925500,6.298925537109375,0.017393523827195168,-0.009196450933814049,0.015421058982610703
1772555513453857500,6.308857421875,0.018580663949251175,0.008528318256139755,0.005323381628841162
1772555513463788800,6.318788818359375,0.017197150737047195,0.0017910543829202652,0.003361430950462818
1772555513473720800,6.328720947265625,0.009242530912160873,-0.010129963047802448,0.005660929251462221
1772555513483653000,6.338653076171875,0.004350836388766766,-0.02093573845922947,0.009317182935774326
1772555513493585200,6.348585205078125,-0.004638880491256714,-0.03883901983499527,0.01434524916112423
1772555513503517200,6.35851708984375,-0.010320202447474003,-0.03949948400259018,0.013487710617482662
1772555513513448000,6.368447998046875,-0.01232110895216465,-0.021424127742648125,0.010020422749221325
1772555513523380000,6.3783798828125,-0.0186354648321867,-0.00557059608399868,0.007802275940775871
1772555513533312000,6.38831201171875,-0.02099718153476715,0.0037271231412887573,0.006925954949110746
1772555513543244000,6.398244140625,-0.0190738458186388,0.007924264296889305,0.011466378346085548
1772555513553175800,6.40817578125,-0.012733244337141514,0.007188739255070686,0.01379399187862873
1772555513563107000,6.418107177734375,-0.007516111712902784,0.0025492459535598755,0.015413193963468075
1772555513573039000,6.4280390625,-0.006803644821047783,-0.003446393646299839,0.016910087317228317
1772555513582971100,6.43797119140625,-0.009276922792196274,-0.010316018015146255,0.013867426663637161
1772555513592903200,6.447903076171875,-0.008592923171818256,-0.01306843850761652,0.008073451928794384
1772555513602835000,6.4578349609375,-0.012225741520524025,-0.014108402654528618,0.009333127178251743
1772555513612767000,6.46776708984375,-0.011919286102056503,-0.016967354342341423,0.01131785660982132
1772555513622698000,6.477697998046875,-0.014653819613158703,-0.018481096252799034,0.010798274539411068
1772555513632630000,6.487630126953125,-0.015218507498502731,-0.011181270703673363,0.017046814784407616
1772555513642562000,6.49756201171875,-0.0193040631711483,0.00043250806629657745,0.021744364872574806
1772555513652494000,6.507494140625,-0.01989857852458954,0.008990677073597908,0.028645381331443787
1772555513662426000,6.517426025390625,-0.018679115921258926,0.029919128865003586,0.030903209000825882
1772555513672357000,6.527357177734375,-0.01325842086225748,0.03365437686443329,0.03477494418621063
1772555513682289200,6.5372890625,-0.008914272300899029,0.03289910405874252,0.03845543414354324
1772555513692221000,6.547220947265625,0.0038889721035957336,0.0260046124458313,0.03779207542538643
1772555513702153000,6.557153076171875,0.011285634711384773,0.01615358144044876,0.03887917846441269
1772555513712085000,6.5670849609375,0.014165990054607391,0.011916209012269974,0.03601846098899841
1772555513722016000,6.57701611328125,0.022125378251075745,0.006441017612814903,0.03695749118924141
1772555513731948000,6.586947998046875,0.03257044404745102,-0.0017922203987836838,0.03977174311876297
1772555513741880000,6.596880126953125,0.042576469480991364,-0.007213616743683815,0.04514813423156738
1772555513751812000,6.60681201171875,0.047169722616672516,-0.01910419948399067,0.05154987424612045
1772555513761744100,6.616744140625,0.050110917538404465,-0.028297431766986847,0.0612749382853508
1772555513771675100,6.626675048828125,0.05003807321190834,-0.03621461242437363,0.06357019394636154
1772555513781607200,6.636607177734375,0.0493650920689106,-0.03359778970479965,0.06552015990018845
1772555513791539000,6.6465390625,0.04111826792359352,-0.026531465351581573,0.06238553673028946
1772555513801471000,6.656470947265625,0.035839881747961044,-0.006463214755058289,0.0629567801952362
1772555513811403000,6.666403076171875,0.0304674431681633,0.007485067471861839,0.07272147387266159
1772555513821335000,6.6763349609375,0.01765071228146553,0.009998291730880737,0.0893569067120552
1772555513831266000,6.68626611328125,0.01740926131606102,0.019922195002436638,0.1157778948545456
1772555513841198000,6.696197998046875,0.007329729385674,0.013698121532797813,0.13504905998706818
1772555513851130000,6.706130126953125,0.00147571275010705,0.021511763334274292,0.14453373849391937
1772555513861062100,6.716062255859375,-0.005110284313559532,0.022045724093914032,0.147066131234169
1772555513870994200,6.725994140625,-0.012860738672316074,0.022421954199671745,0.14071698486804962
1772555513880925000,6.735925048828125,-0.015723103657364845,0.018881281837821007,0.11832805722951889
1772555513890857000,6.74585693359375,-0.022826869040727615,0.01415802538394928,0.09013532847166061
1772555513900789000,6.7557890625,-0.027295652776956558,0.008263915777206421,0.06650376319885254
1772555513910721000,6.765720947265625,-0.028571423143148422,-0.0019404198974370956,0.04425888508558273
1772555513920653000,6.775653076171875,-0.024201709777116776,-0.008746661245822906,0.02438797615468502
1772555513930584000,6.785583984375,-0.019640611484646797,-0.003878033719956875,0.01103138830512762
1772555513940516000,6.79551611328125,-0.011690543033182621,0.006634794175624847,0.0013289600610733032
1772555513950448000,6.8054482421875,-0.006199808791279793,0.021885227411985397,0.0008595157414674759
1772555513960380200,6.815380126953125,-0.004012554418295622,0.03503511846065521,0.004160504322499037
1772555513970312200,6.825312255859375,-0.003254425013437867,0.0378146655857563,0.005385132972151041
1772555513980243000,6.835242919921875,-0.014577386900782585,0.03401806578040123,0.009649652987718582
1772555513990175000,6.845175048828125,-0.017261803150177002,0.020855529233813286,0.015357853844761848
1772555514000107000,6.85510693359375,-0.025407079607248306,0.017423247918486595,0.011614514514803886
1772555514010039000,6.8650390625,-0.03371717780828476,0.006124753504991531,0.005284558981657028
1772555514019971000,6.87497119140625,-0.030669990926980972,-0.011984742246568203,0.0009060557931661606
1772555514029902000,6.884902099609375,-0.02230677381157875,-0.016219325363636017,0.0016965493559837341
1772555514039834000,6.894834228515625,-0.008183763362467289,-0.02394994907081127,0.007053498178720474
1772555514049766100,6.90476611328125,-0.0006333859637379646,-0.031593672931194305,-0.00031864549964666367
1772555514059698200,6.9146982421875,0.000057437922805547714,-0.030581671744585037,-0.002273404970765114
1772555514069630200,6.924630126953125,0.001733650453388691,-0.027271831408143044,-0.012391074560582638
1772555514079562000,6.93456201171875,-0.0017835861071944237,-0.029755229130387306,-0.01682816818356514
1772555514089493000,6.944492919921875,-0.005359143950045109,-0.0371377170085907,-0.005455709062516689
1772555514099425000,6.954425048828125,-0.011251654475927353,-0.0374157540500164,0.007552234921604395
1772555514109357000,6.964357177734375,-0.017452269792556763,-0.03988492116332054,0.025972699746489525
1772555514119289000,6.9742890625,-0.02177617698907852,-0.03952006995677948,0.04146484285593033
1772555514129220900,6.984220947265625,-0.033836204558610916,-0.028820060193538666,0.040953777730464935
1772555514139152100,6.994152099609375,-0.039751086384058,-0.012423244304955006,0.03564103692770004
1772555514149084200,7.004084228515625,-0.046868085861206055,-0.0009112367406487465,0.030932951718568802
1772555514159016200,7.01401611328125,-0.04896745830774307,0.002041144296526909,0.028827454894781113
1772555514168948000,7.023947998046875,-0.03951241821050644,-0.0038241371512413025,0.03181040287017822
1772555514178880000,7.0338798828125,-0.028241921216249466,-0.007594374939799309,0.02642682194709778
1772555514188811000,7.04381103515625,-0.016543813049793243,-0.02044849842786789,0.013048093765974045
1772555514198743000,7.053742919921875,-0.0034040440805256367,-0.03240901976823807,0.011446203105151653
1772555514208675000,7.063675048828125,0.008668570779263973,-0.04449813812971115,0.003919736947864294
1772555514218606800,7.07360693359375,0.006157476454973221,-0.040369704365730286,-0.010758008807897568
1772555514228539000,7.083538818359375,0.0051216320134699345,-0.03212309628725052,-0.023980462923645973
1772555514238470100,7.09347021484375,-0.00703276926651597,-0.026330456137657166,-0.032239459455013275
1772555514248402200,7.103402099609375,-0.011168321594595909,-0.023475877940654755,-0.02918168529868126
1772555514258334200,7.113334228515625,-0.012412017211318016,-0.018427856266498566,-0.01239817962050438
1772555514268266000,7.123265869140625,-0.009638844057917595,-0.005072461441159248,0.005648873746395111
1772555514278198000,7.133197998046875,-0.005830257199704647,0.008376767858862877,0.018238168209791183
1772555514288130000,7.143130126953125,-0.0031709966715425253,0.013005925342440605,0.026473572477698326
1772555514298061000,7.15306103515625,-0.0004348647780716419,0.0003338046371936798,0.025854919105768204
1772555514307992800,7.162992919921875,0.0048105474561452866,-0.011561861261725426,0.019895808771252632
1772555514317924900,7.1729248046875,0.0072417473420500755,-0.02818424627184868,0.01023093145340681
1772555514327857000,7.18285693359375,0.008851606398820877,-0.04323229193687439,-0.006117593497037888
1772555514337789200,7.1927890625,0.003646723460406065,-0.057770486921072006,-0.01907706819474697
1772555514347720200,7.20272021484375,-0.002096141455695033,-0.0647049993276596,-0.02808189019560814
1772555514357652000,7.21265185546875,-0.0053286864422261715,-0.0585339218378067,-0.035086002200841904
1772555514367584000,7.222583984375,-0.012353522703051567,-0.04997150972485542,-0.03939817473292351
1772555514377516000,7.23251611328125,-0.015253972262144089,-0.026650741696357727,-0.0390532948076725
1772555514387448000,7.242447998046875,-0.015353599563241005,-0.0011740513145923615,-0.036904267966747284
1772555514397379000,7.252379150390625,-0.018118226900696754,0.014165222644805908,-0.03310899809002876
1772555514407310800,7.262310791015625,-0.02315346524119377,0.013422202318906784,-0.021917328238487244
1772555514417243000,7.272242919921875,-0.02754049003124237,0.006744058802723885,-0.0008029891178011894
1772555514427175200,7.282175048828125,-0.032192569226026535,0.004248207435011864,0.015210673213005066
1772555514437107200,7.292107177734375,-0.040746644139289856,0.0030117016285657883,0.02474851906299591
1772555514447038000,7.302037841796875,-0.04925653338432312,0.008703237399458885,0.02787412889301777
1772555514456970000,7.311969970703125,-0.05888412520289421,0.009464368224143982,0.017256105318665504
1772555514466902000,7.321902099609375,-0.0674186423420906,0.014729190617799759,0.008587194606661797
1772555514476834000,7.331833984375,-0.0674109160900116,0.017938829958438873,-0.003235376439988613
1772555514486765800,7.341765869140625,-0.06412854790687561,0.016017267480492592,-0.008268876001238823
1772555514496696800,7.35169677734375,-0.05797850713133812,0.010990018025040627,-0.00542382150888443
1772555514506628900,7.36162890625,-0.0472128726541996,-0.0013393629342317581,0.0029059099033474922
1772555514516561200,7.37156103515625,-0.04204047843813896,-0.008780501782894135,0.013370801694691181
1772555514526493200,7.3814931640625,-0.03742801025509834,-0.009154479950666428,0.0191494133323431
1772555514536425000,7.391425048828125,-0.03625408932566643,-0.0073190294206142426,0.02678975649178028
1772555514546356000,7.40135595703125,-0.034664999693632126,-0.007926617749035358,0.032836027443408966
1772555514556288000,7.4112880859375,-0.03226415812969208,-0.011379405856132507,0.03051561303436756
1772555514566220000,7.421219970703125,-0.03266545385122299,-0.009878951124846935,0.024826619774103165
1772555514576151800,7.43115185546875,-0.033831119537353516,-0.010880832560360432,0.01583392173051834
1772555514586083800,7.441083740234375,-0.0308401919901371,-0.0076767196878790855,0.008778483606874943
1772555514596015900,7.451015869140625,-0.025207605212926865,-0.006986960768699646,-0.001634742133319378
1772555514605947100,7.460947021484375,-0.01695074513554573,-0.0077055394649505615,-0.007204179652035236
1772555514615879200,7.470879150390625,-0.009205207228660583,-0.01268698275089264,-0.008139216341078281
1772555514625811000,7.48081103515625,-0.002651938935741782,-0.02379586175084114,-0.0033012060448527336
1772555514635743000,7.490742919921875,0.003021392971277237,-0.03472467511892319,-0.0044439686462283134
1772555514645675000,7.500675048828125,0.008587640710175037,-0.03956008329987526,0.0048479242250323296
1772555514655606000,7.51060595703125,0.01515952404588461,-0.03347795456647873,0.010785974562168121
1772555514665538000,7.5205380859375,0.0147568229585886,-0.015943191945552826,0.016442984342575073
1772555514675469800,7.5304697265625,0.01319940760731697,0.0008477717638015747,0.023330718278884888
1772555514685401900,7.54040185546875,0.0057696024887263775,0.011775825172662735,0.021734174340963364
1772555514695334000,7.550333984375,-0.0014262581244111061,0.004286749288439751,0.024252459406852722
1772555514705265200,7.56026513671875,-0.004724656697362661,-0.00045739486813545227,0.022375833243131638
1772555514715197000,7.570197021484375,-0.007207788061350584,-0.005066794343292713,0.02257716841995716
1772555514725129000,7.58012890625,-0.0057274592109024525,-0.013401497155427933,0.02152237854897976
1772555514735061000,7.59006103515625,-0.004558864049613476,-0.016843633726239204,0.030757423490285873
1772555514744993000,7.599992919921875,-0.005836406722664833,-0.016004113480448723,0.036124348640441895
1772555514754924000,7.609924072265625,-0.009944599121809006,-0.008271891623735428,0.030778318643569946
1772555514764855800,7.619855712890625,-0.013891179114580154,-0.0010576266795396805,0.024558160454034805
1772555514774787800,7.629787841796875,-0.02121354080736637,0.0012353546917438507,0.01615695282816887
1772555514784720000,7.639719970703125,-0.02915385365486145,-0.011060625314712524,0.011693988926708698
1772555514794652000,7.64965185546875,-0.0371989980340004,-0.02668672241270542,0.007859036326408386
1772555514804583200,7.659583251953125,-0.03625549003481865,-0.04106420278549194,-0.004091087728738785
1772555514814515000,7.669514892578125,-0.03806111589074135,-0.047028351575136185,-0.019211983308196068
1772555514824447000,7.679447021484375,-0.03766389563679695,-0.05863693356513977,-0.02973533794283867
1772555514834379000,7.68937890625,-0.03096657618880272,-0.06762483716011047,-0.03465845808386803
1772555514844311000,7.69931103515625,-0.0209263376891613,-0.07755009829998016,-0.04066424444317818
1772555514854241800,7.70924169921875,-0.012115269899368286,-0.09014472365379333,-0.04746116325259209
1772555514864173800,7.719173828125,-0.0034254195634275675,-0.1045936718583107,-0.05194787681102753
1772555514874105900,7.72910595703125,0.004715597257018089,-0.11279647052288055,-0.056449681520462036
1772555514884038000,7.739037841796875,0.013351911678910255,-0.12004334479570389,-0.061103276908397675
1772555514893970000,7.748969970703125,0.016468342393636703,-0.12112032622098923,-0.062014609575271606
1772555514903901000,7.75890087890625,0.01980743743479252,-0.12380274385213852,-0.050892043858766556
1772555514913833000,7.7688330078125,0.021901214495301247,-0.11455997824668884,-0.042589105665683746
1772555514923765000,7.778764892578125,0.02258286438882351,-0.09345550835132599,-0.030176591128110886
1772555514933697000,7.788697021484375,0.017916740849614143,-0.06724148988723755,-0.02412136271595955
1772555514943629000,7.798629150390625,0.014039013534784317,-0.03866608068346977,-0.011030583642423153
1772555514953561000,7.80856103515625,0.007762208580970764,-0.015938131138682365,-0.002425643615424633
1772555514963491800,7.818491943359375,-0.00331511115655303,0.00671035423874855,0.011382353492081165
1772555514973423900,7.828423828125,-0.01024572178721428,0.016204258427023888,0.03243330866098404
1772555514983356000,7.83835595703125,-0.014585882425308228,0.024457283318042755,0.05260148644447327
1772555514993288000,7.848287841796875,-0.009930942207574844,0.01926412060856819,0.06423390656709671
1772555515003220000,7.858219970703125,-0.00594019889831543,0.015269054099917412,0.062497030943632126
1772555515013151000,7.86815087890625,0.0038517117500305176,0.0025545917451381683,0.054249752312898636
1772555515023083000,7.8780830078125,0.012452660128474236,-0.008747009560465813,0.03890671581029892
1772555515033015000,7.88801513671875,0.016834093257784843,-0.020053992047905922,0.025036970153450966
1772555515042947000,7.897947021484375,0.019311150535941124,-0.019957447424530983,0.016096726059913635
1772555515052878800,7.90787890625,0.019986528903245926,-0.008372696116566658,0.008016163483262062
1772555515062809900,7.917809814453125,0.02143612876534462,0.015639666467905045,0.016078699380159378
1772555515072742000,7.927741943359375,0.020027317106723785,0.019000042229890823,0.027017101645469666
1772555515082674000,7.937673828125,0.018117614090442657,0.009563479572534561,0.035901423543691635
1772555515092606000,7.94760595703125,0.020028695464134216,-0.007430416531860828,0.04008924588561058
1772555515102538000,7.9575380859375,0.02239823527634144,-0.022765621542930603,0.039771974086761475
1772555515112469000,7.967468994140625,0.024970315396785736,-0.03915657848119736,0.035619840025901794
1772555515122401000,7.977401123046875,0.02896401286125183,-0.052736133337020874,0.027837160974740982
1772555515132333000,7.9873330078125,0.030372560024261475,-0.05909070372581482,0.012624651193618774
1772555515142264800,7.997264892578125,0.03389725834131241,-0.06498102098703384,-0.005945601500570774
1772555515152196900,8.00719677734375,0.03190121799707413,-0.08172617852687836,-0.019498426467180252
1772555515162128000,8.0171279296875,0.031207390129566193,-0.08663922548294067,-0.029699794948101044
1772555515172060000,8.027059814453125,0.027066707611083984,-0.09075514227151871,-0.03725145757198334
1772555515181992000,8.036991943359375,0.02373199723660946,-0.08233986794948578,-0.03948903828859329
1772555515191924000,8.046924072265625,0.016650119796395302,-0.0753067284822464,-0.037224553525447845
1772555515201856000,8.05685595703125,0.008321423083543777,-0.07040758430957794,-0.030389919877052307
1772555515211788000,8.0667880859375,0.00003020418807864189,-0.05984575301408768,-0.01723683439195156
1772555515221719000,8.076718994140625,-0.013160333968698978,-0.048175614327192307,-0.014140071347355843
1772555515231651000,8.086651123046876,-0.017029374837875366,-0.03373914957046509,-0.011126704514026642
1772555515241582800,8.096582763671876,-0.029363112524151802,-0.03509737178683281,-0.00874155294150114
1772555515251515000,8.106514892578126,-0.034439098089933395,-0.031829409301280975,-0.0037212269380688667
1772555515261447000,8.116447021484374,-0.03198738396167755,-0.01893693394958973,-0.0018514860421419144
1772555515271378000,8.1263779296875,-0.0318496972322464,-0.011767704039812088,0.0017347270622849464
1772555515281310000,8.13631005859375,-0.029895855113863945,-0.002201381139457226,0.0006625978276133537
1772555515291242000,8.146241943359374,-0.03541285917162895,0.004116436466574669,-0.0005419505760073662
1772555515301174000,8.156174072265625,-0.03521097078919411,-0.00421487633138895,-0.00748677272349596
1772555515311106000,8.16610595703125,-0.03986271843314171,-0.010250665247440338,-0.019102681428194046
1772555515321037000,8.176037109375,-0.04486710950732231,-0.01358790136873722,-0.0229661762714386
1772555515330968800,8.18596875,-0.04063774272799492,-0.01611710526049137,-0.021685194224119186
1772555515340900900,8.19590087890625,-0.03525220602750778,-0.016112521290779114,-0.013907073065638542
1772555515350833000,8.2058330078125,-0.029010022059082985,-0.017324792221188545,-0.00763905793428421
1772555515360765000,8.215764892578125,-0.02680807188153267,-0.03333137184381485,-0.009670497849583626
1772555515370696200,8.2256962890625,-0.025646401569247246,-0.04549642652273178,-0.023675529286265373
1772555515380628000,8.2356279296875,-0.02625986561179161,-0.05595506727695465,-0.040638912469148636
1772555515390560000,8.24556005859375,-0.02456795983016491,-0.07882016897201538,-0.06159692257642746
1772555515400492000,8.255491943359376,-0.010580046102404594,-0.10622274875640869,-0.07647350430488586
1772555515410424000,8.265424072265626,-0.0009101089090108871,-0.1310596615076065,-0.09584373980760574
1772555515420354800,8.275354736328126,0.0019106091931462288,-0.15370580554008484,-0.1118919625878334
1772555515430286800,8.285286865234376,0.006788720842450857,-0.17188666760921478,-0.1264868676662445
1772555515440219000,8.295218994140624,0.0042361547239124775,-0.18380938470363617,-0.14858829975128174
1772555515450151000,8.30515087890625,-0.0061461785808205605,-0.18405546247959137,-0.1584574282169342
1772555515460083000,8.3150830078125,-0.021952908486127853,-0.16899976134300232,-0.16099321842193604
1772555515470014000,8.325013916015624,-0.05109348148107529,-0.13595658540725708,-0.15595664083957672
1772555515479946000,8.334946044921875,-0.08545368164777756,-0.09562801569700241,-0.12532950937747955
1772555515489877800,8.344877685546875,-0.0640256255865097,0.014842033386230469,-0.056752581149339676
1772555515499809800,8.354809814453125,-0.04052172601222992,0.169967383146286,-0.031108295544981956
1772555515509741800,8.364741943359375,-0.02385726012289524,0.1908244639635086,-0.03377092629671097
1772555515519672600,8.374672607421875,0.01098467968404293,0.12957622110843658,-0.02873043715953827
1772555515529604600,8.3846044921875,0.04564651846885681,0.020221231505274773,0.00031665991991758347
