time,seconds_elapsed,z,y,x
1772555855876338000,0.072337890625,-0.0011570090427994728,0.0008300077170133591,-0.0010771406814455986
1772555855886269200,0.082269287109375,0.0003508725203573704,0.00215892493724823,0.00032261665910482407
1772555855896201200,0.092201171875,0.0003436431288719177,0.0015974324196577072,0.0016917027533054352
1772555855906132000,0.102132080078125,-0.0007368014194071293,-0.00027769990265369415,-0.0017778640612959862
1772555855916064000,0.11206396484375,0.000768647063523531,0.0007515083998441696,-0.00015204958617687225
1772555855925995000,0.1219951171875,0.0006405487656593323,0.0002455078065395355,0.0004900386556982994
1772555855935926000,0.131926025390625,0.0011311210691928864,0.000789109617471695,0.0001459810882806778
1772555855945858000,0.141858154296875,0.00048530474305152893,-0.0001014508306980133,-0.0009890580549836159
1772555855955789000,0.1517890625,0.0038676373660564423,-0.0005146898329257965,-0.0006241388618946075
1772555855965721000,0.16172119140625,0.0016825133934617043,0.0006360616534948349,0.003236113116145134
1772555855975652000,0.171652099609375,-0.0013650516048073769,-0.0002689603716135025,0.00031686853617429733
1772555855985583000,0.1815830078125,-0.0016172532923519611,0.0014170873910188675,-0.0012464066967368126
1772555855995515100,0.19151513671875,-0.002325964393094182,0.0005639698356389999,-0.001054883934557438
1772555856005446000,0.20144580078125,-0.0010250103659927845,0.0015543978661298752,-0.00034861359745264053
1772555856015378000,0.2113779296875,0.0017308839596807957,-0.0010321736335754395,-0.0010284502059221268
1772555856025309200,0.22130908203125,-0.0008760844357311726,-0.00251129362732172,0.002791321836411953
1772555856035240200,0.231240234375,-0.0015220795758068562,-0.0007589505985379219,0.0015438301488757133
1772555856045172000,0.241171875,0.00003933161497116089,-0.002039664424955845,-0.0011693984270095825
1772555856055103000,0.25110302734375,0.000020948238670825958,0.001133223995566368,0.0029298290610313416
1772555856065035000,0.261034912109375,-0.000764151569455862,-0.0009293938055634499,-0.0008928729221224785
1772555856074966000,0.270966064453125,0.0000634598545730114,-0.0008652452379465103,-0.0011022426187992096
1772555856084897000,0.28089697265625,0.0006355065852403641,0.0024431999772787094,-0.002300664782524109
1772555856094829000,0.2908291015625,0.0009653731249272823,0.000962182879447937,-0.0002711135894060135
1772555856104760000,0.300760009765625,-0.001518556848168373,0.0002431292086839676,-0.0010133367031812668
1772555856114691000,0.310691162109375,0.0009763916023075581,-0.00036643538624048233,0.003066670149564743
1772555856124623000,0.320623046875,-0.002321400912478566,0.0006490275263786316,0.0012975316494703293
1772555856134554000,0.33055419921875,0.0007928884588181973,-0.0004562307149171829,0.0019192695617675781
1772555856144486000,0.34048583984375,0.001332444604486227,0.000052966177463531494,-0.0013332488015294075
1772555856154417200,0.350417236328125,-0.0016491198912262917,0.00017848052084445953,0.0008693411946296692
1772555856164348200,0.36034814453125,-0.0012011760845780373,0.0022954270243644714,0.00007864832878112793
1772555856174280200,0.3702802734375,0.000760737806558609,-0.0007055280730128288,-0.00037679821252822876
1772555856184211000,0.3802109375,-0.0002659107558429241,-0.0003883456811308861,-0.0011874642223119736
1772555856194143000,0.39014306640625,0.0018374789506196976,0.0010231845080852509,0.0008729584515094757
1772555856204074200,0.40007421875,0.0009381291456520557,-0.0009150635451078415,0.0003882627934217453
1772555856214005000,0.4100048828125,0.00035525206476449966,-0.00007618032395839691,0.001582624390721321
1772555856223937000,0.41993701171875,0.0004473975859582424,-0.0016019055619835854,0.0004220185801386833
1772555856233868000,0.429867919921875,-0.00006502261385321617,0.00034134648740291595,0.0004516448825597763
1772555856243800000,0.439800048828125,0.0004867846146225929,0.0012990199029445648,-0.002768916077911854
1772555856253731000,0.44973095703125,0.0007858765311539173,0.0005888063460588455,-0.0005166567862033844
1772555856263662000,0.459662109375,0.0013379496522247791,0.00038347765803337097,-0.00031425710767507553
1772555856273594000,0.469593994140625,-0.000006060115993022919,-0.00008924677968025208,0.0007235109806060791
1772555856283524900,0.47952490234375,-0.0010883687064051628,0.0005618967115879059,0.0012566754594445229
1772555856293457200,0.48945703125,0.0011584339663386345,-0.0005090003833174706,-0.0008208137005567551
1772555856303388200,0.49938818359375,-0.001940953079611063,-0.0004536062479019165,0.00030623655766248703
1772555856313319000,0.50931884765625,-0.0015577361918985844,0.0013815313577651978,0.002565552480518818
1772555856323251000,0.5192509765625,0.0003126021474599838,-0.0010818932205438614,0.002602837048470974
1772555856333182200,0.52918212890625,0.00010558776557445526,-0.0006898604333400726,-0.0008482877165079117
1772555856343114200,0.5391142578125,-0.0019362582825124264,-0.0027652615681290627,0.0018417714163661003
1772555856353045000,0.549044921875,0.002506947610527277,0.0013777706772089005,-0.0010252315551042557
1772555856362976000,0.55897607421875,0.002591370139271021,0.002245694398880005,0.0011239387094974518
1772555856372908000,0.568907958984375,0.00021497579291462898,-0.0011300155892968178,-0.0008058557286858559
1772555856382839000,0.578839111328125,-0.002138459589332342,0.0002921130508184433,-0.000673229806125164
1772555856392770000,0.58877001953125,0.000170933548361063,0.000622045248746872,0.001377093605697155
1772555856402702000,0.5987021484375,-0.000650918111205101,0.0012577418237924576,-0.000023995526134967804
1772555856412633000,0.608633056640625,0.00014045601710677147,-0.000005213543772697449,0.0006065741181373596
1772555856422564900,0.61856494140625,0.0006746863946318626,0.00007255002856254578,-0.0005795974284410477
1772555856432496000,0.62849609375,-0.00016873003914952278,0.0002398025244474411,0.0038414285518229008
1772555856442427100,0.63842724609375,0.0013591251336038113,-0.0005588792264461517,0.000645369291305542
1772555856452359000,0.64835888671875,0.00038085412234067917,0.0015612710267305374,0.0007405970245599747
1772555856462290200,0.658290283203125,-0.0020945542491972446,-0.0016177445650100708,-0.0010671569034457207
1772555856472222200,0.66822216796875,0.0013680066913366318,0.0010017603635787964,-0.0002980567514896393
1772555856482153200,0.6781533203125,0.0011869114823639393,0.0013849902898073196,0.002868441864848137
1772555856492084000,0.688083984375,-0.0015453184023499489,0.0013287682086229324,-0.002582116052508354
1772555856502016000,0.69801611328125,-0.003329636063426733,0.0003093108534812927,-0.0026902398094534874
1772555856511947300,0.707947265625,0.0015412853099405766,0.0006408747285604477,-0.0005064476281404495
1772555856521879000,0.717879150390625,-0.0008353195153176785,-0.0002502184361219406,-0.0016984790563583374
1772555856531810000,0.72781005859375,-0.00006596976891160011,-0.0018817735835909843,-0.0007978435605764389
1772555856541741000,0.737740966796875,0.0001063365489244461,0.000996837392449379,0.0004889965057373047
1772555856551673000,0.747673095703125,-0.0021430188789963722,-0.001131444238126278,0.0009508989751338959
1772555856561604000,0.75760400390625,0.0005028317682445049,0.00035779550671577454,0.00027978233993053436
1772555856571536100,0.7675361328125,-0.0005789743736386299,0.0015619788318872452,0.0007813898846507072
1772555856581467100,0.777467041015625,-0.0014463658444583416,0.0011579766869544983,0.00012891460210084915
1772555856591398000,0.78739794921875,-0.0015156879089772701,0.0013065971434116364,0.000023698434233665466
1772555856601330000,0.797329833984375,0.0008907443843781948,-0.00028810277581214905,0.0014977576211094856
1772555856611261200,0.80726123046875,-0.0003796713426709175,0.0018560253083705902,0.0012237848713994026
1772555856621193200,0.817193115234375,-0.0012433347292244434,-0.00024414435029029846,0.0023553622886538506
1772555856631124000,0.8271240234375,0.00023047765716910362,0.00008054450154304504,-0.0007421374320983887
1772555856641055200,0.83705517578125,-0.0000273166224360466,0.0002672336995601654,-0.0012292303144931793
1772555856650987300,0.8469873046875,-0.0005326103419065475,0.0011511445045471191,0.0010460615158081055
1772555856660918000,0.85691796875,-0.00006815465167164803,0.0008331630378961563,-0.0000096149742603302
1772555856670850000,0.86685009765625,0.0007361872121691704,0.0003247000277042389,-0.0011596577242016792
1772555856680781000,0.876781005859375,-0.0006611733697354794,-0.0003464166074991226,-0.00016390159726142883
1772555856690712000,0.886712158203125,0.001180334948003292,-0.0017045633867383003,0.0008942615240812302
1772555856700644000,0.89664404296875,0.00027486030012369156,-0.0012169387191534042,0.0017283633351325989
1772555856710575000,0.9065751953125,-0.0011014379560947418,0.0003256220370531082,0.0004877988249063492
1772555856720505900,0.916505859375,0.0005300147458910942,-0.00039502978324890137,-0.001514897681772709
1772555856730438000,0.92643798828125,-0.0009548338130116463,0.0003246888518333435,-0.00040711183100938797
1772555856740369200,0.936369140625,-0.0008227410726249218,0.00031004101037979126,-0.0008009932935237885
1772555856750301200,0.94630126953125,-0.003387810429558158,0.0006442535668611526,0.000718272291123867
1772555856760232000,0.95623193359375,0.0011355686001479626,0.0017558559775352478,0.000538775697350502
1772555856770163000,0.966162841796875,-0.0012619378976523876,-0.0016970662400126457,-0.00032692868262529373
1772555856780095000,0.976094970703125,0.0005593979731202126,-0.00037480704486370087,-0.0026302961632609367
1772555856790026000,0.98602587890625,-0.0009017875418066978,0.0016058161854743958,0.000496918335556984
1772555856799958000,0.9959580078125,0.0009451145306229591,0.000622311607003212,0.001099592074751854
1772555856809889000,1.005888916015625,0.000032932497560977936,0.00015611015260219574,0.0002464279532432556
1772555856819819300,1.0158193359375,-0.0004696059040725231,-0.001467086374759674,0.0015495121479034424
1772555856829751300,1.025751220703125,-0.00005641346797347069,-0.002246726304292679,0.0007487889379262924
1772555856839682000,1.03568212890625,0.00034599006175994873,0.0006145741790533066,-0.0010728128254413605
1772555856849614000,1.045614013671875,0.0008849413134157658,0.003584856167435646,0.0015567000955343246
1772555856859545300,1.05554541015625,0.000509168952703476,-0.00006873533129692078,-0.00017515290528535843
1772555856869476000,1.06547607421875,-0.002228722907602787,-0.0004050508141517639,-0.002072964794933796
1772555856879408000,1.075408203125,-0.001112325582653284,0.0026179030537605286,0.0009595770388841629
1772555856889339100,1.085339111328125,-0.001974408980458975,0.00041062384843826294,0.0010527651757001877
1772555856899271200,1.095271240234375,-0.0006566769443452358,0.00015043281018733978,-0.0008018603548407555
1772555856909202200,1.1052021484375,-0.001256389543414116,0.0016887709498405457,0.000037433579564094543
1772555856919133200,1.11513330078125,-0.0013493341393768787,-0.0021576322615146637,-0.0006589833647012711
1772555856929065200,1.125065185546875,-0.0007075564935803413,0.0007938053458929062,-0.004039041697978973
1772555856938996000,1.134995849609375,-0.001252438873052597,0.0006489288061857224,0.000012691132724285126
1772555856948928000,1.144927978515625,0.0006254645995795727,-0.0014935508370399475,0.00042463745921850204
1772555856958859300,1.154859375,0.002991150598973036,-0.0027082180604338646,-0.0009620701894164085
1772555856968790300,1.164790283203125,-0.0006206752732396126,-0.0028350884094834328,0.0015764981508255005
1772555856978722000,1.17472216796875,0.00022487854585051537,-0.0010752715170383453,0.0013056546449661255
1772555856988653000,1.184653076171875,0.0001732129603624344,0.0008078496903181076,-0.0016925325617194176
1772555856998584300,1.194584228515625,-0.0026912831235677004,0.000135933980345726,0.001872641034424305
1772555857008516000,1.20451611328125,0.0007497253827750683,0.000026015564799308777,0.0015362855046987534
1772555857018447000,1.214447021484375,-0.0011685495264828205,-0.00004296004772186279,0.0000276053324341774
1772555857028379100,1.224379150390625,-0.00044526299461722374,-0.0005834018811583519,-0.0021161697804927826
1772555857038310400,1.234310302734375,-0.0026096138171851635,0.00015003234148025513,-0.0008106883615255356
1772555857048241200,1.2442412109375,-0.0012491662055253983,-0.0008454844355583191,0.0004334375262260437
1772555857058173200,1.254173095703125,0.0006874846294522285,-0.0006508082151412964,0.0017740726470947266
1772555857068104200,1.264104248046875,-0.0016046129167079926,-0.00024119578301906586,-0.0022297287359833717
1772555857078036200,1.2740361328125,-0.0027319288346916437,-0.0009341500699520111,-0.00002889242023229599
1772555857087967200,1.28396728515625,0.002106886822730303,-0.0010323887690901756,0.0019852835685014725
1772555857097898200,1.293898193359375,-0.0022548381239175797,-0.00250085536390543,-0.0010067783296108246
1772555857107830300,1.303830322265625,0.0006509469822049141,-0.00020585395395755768,0.001019841991364956
1772555857117761000,1.313760986328125,-0.001130973920226097,0.0015853866934776306,-0.001103762537240982
1772555857127693000,1.323693115234375,-0.001763022504746914,0.002072790637612343,-0.001148127019405365
1772555857137624300,1.333624267578125,0.0012106630019843578,-0.00035840924829244614,-0.0007835403084754944
1772555857147555000,1.34355517578125,-0.0005626184865832329,0.00024094805121421814,-0.000616706907749176
1772555857157487000,1.353487060546875,0.0018062633462250233,0.0013296473771333694,-0.002078781835734844
1772555857167418400,1.36341845703125,-0.00009782286360859871,-0.00139685720205307,0.0013794386759400368
1772555857177350400,1.373350341796875,-0.00036999816074967384,-0.0018796883523464203,0.0018593408167362213
1772555857187281200,1.38328125,0.00128483260050416,0.0016027279198169708,0.001231788657605648
1772555857197212200,1.393212158203125,0.000530892051756382,0.0006690230220556259,-0.0012928880751132965
1772555857207144200,1.403144287109375,-0.000875360332429409,0.0008177701383829117,0.0006730854511260986
1772555857217075200,1.4130751953125,0.0010911175049841404,0.0008766259998083115,0.0018086573109030724
1772555857227006200,1.423006103515625,-0.0014557791873812675,0.000034557655453681946,0.0018767397850751877
1772555857236938200,1.432938232421875,-0.00004483666270971298,0.002152303233742714,-0.0023736655712127686
1772555857246869000,1.442868896484375,0.0016485899686813354,-0.0008482281118631363,-0.0016245068982243538
1772555857256801000,1.452801025390625,-0.001986891031265259,-0.001117207109928131,0.0016983188688755035
1772555857266732300,1.462732177734375,0.00008595921099185944,-0.0011713486164808273,-0.0009582974016666412
1772555857276663300,1.472663330078125,0.00036026444286108017,-0.000717812217772007,0.0010667704045772552
1772555857286595000,1.482594970703125,-0.0015120725147426128,0.0004095491021871567,-0.0005134642124176025
1772555857296526000,1.492526123046875,-0.0017514904029667377,-0.00021363049745559692,0.001492961309850216
1772555857306458000,1.5024580078125,0.00019157351925969124,0.0008201580494642258,-0.0002965424209833145
1772555857316389000,1.51238916015625,-0.0010577156208455563,-0.0008826674893498421,0.0012856414541602135
1772555857326320000,1.522320068359375,0.002839413471519947,-0.0001884307712316513,-0.0010134894400835037
1772555857336252200,1.532252197265625,0.0003938330337405205,0.0011498071253299713,0.0006440626457333565
1772555857346183400,1.542183349609375,0.0013525281101465225,-0.0014631925150752068,0.0009336313232779503
1772555857356115200,1.552115234375,-0.0007284660823643208,-0.00003174319863319397,-0.0002229791134595871
1772555857366046200,1.562046142578125,0.00019520288333296776,-0.00043009500950574875,0.0016654208302497864
1772555857375977200,1.571977294921875,0.0017230580560863018,0.0012149401009082794,-0.00045898277312517166
1772555857385909000,1.581908935546875,-0.000883457250893116,-0.001070130616426468,-0.00022519566118717194
1772555857395840300,1.59184033203125,-0.00004695868119597435,-0.0012064846232533455,0.00009811203926801682
1772555857405771300,1.601771240234375,-0.0004929658025503159,-0.00011607632040977478,0.0007527396082878113
1772555857415703300,1.611703369140625,-0.0011196075938642025,-0.00019330903887748718,0.0014755213633179665
1772555857425634000,1.621634033203125,0.00019738031551241875,-0.0014792094007134438,-0.000016730278730392456
1772555857435566000,1.631566162109375,-0.0002463022246956825,0.0005802139639854431,0.0024829134345054626
1772555857445497300,1.641497314453125,0.0004299287684261799,0.0026993732899427414,0.0012491317465901375
1772555857455428000,1.651427978515625,-0.0008585085161030293,-0.000001605600118637085,-0.0008979085832834244
1772555857465360100,1.661360107421875,-0.0005424157716333866,0.0006768088787794113,-0.0012099044397473335
1772555857475291100,1.671291015625,-0.0003346889279782772,-0.001264103688299656,0.00007906556129455566
1772555857485223200,1.68122314453125,0.0028915023431181908,-0.00020431168377399445,0.0013741673901677132
1772555857495154200,1.691154296875,-0.0003418419510126114,0.00019516237080097198,-0.0009347936138510704
1772555857505085200,1.701085205078125,0.00014809146523475647,0.00017805211246013641,0.0001275874674320221
1772555857515017200,1.711017333984375,-0.0020631311926990747,-0.00010157935321331024,-0.001559525728225708
1772555857524948200,1.7209482421875,-0.001456510741263628,-0.002193399704992771,-0.0005507878959178925
1772555857534880300,1.73088037109375,-0.000123598612844944,0.0009837523102760315,0.000211409293115139
1772555857544811300,1.740811279296875,0.00027511315420269966,-0.0032449625432491302,0.0010872520506381989
1772555857554742000,1.750741943359375,-0.001414129976183176,-0.00029311422258615494,-0.0012608570978045464
1772555857564674000,1.760674072265625,0.00187385780736804,-0.0029466720297932625,-0.0009678415954113007
1772555857574605300,1.770605224609375,-0.002085729967802763,-0.0022907359525561333,0.0017962530255317688
1772555857584536000,1.7805361328125,0.0030861804261803627,0.00015835091471672058,0.0001891348510980606
1772555857594468000,1.790468017578125,-0.0013826042413711548,-0.00007627345621585846,0.00045944564044475555
1772555857604399000,1.800399169921875,0.0007064160890877247,0.00026918016374111176,-0.0030673248693346977
1772555857614331100,1.8103310546875,-0.0010534008033573627,0.0011477582156658173,-0.000632396899163723
1772555857624262100,1.82026220703125,-0.00007289275527000427,0.0025177523493766785,0.0005543651059269905
1772555857634193200,1.830193115234375,0.0016312641091644764,-0.0012809811159968376,0.002245471812784672
1772555857644125200,1.840125244140625,-0.0003896234557032585,-0.0003366488963365555,0.003904001321643591
1772555857654056200,1.85005615234375,-0.0012737931683659554,0.0002069026231765747,0.0013063540682196617
1772555857663988200,1.85998828125,0.00006041582673788071,0.00041537918150424957,-0.0012900903820991516
1772555857673919200,1.869919189453125,0.0018926705233752728,0.000580495223402977,0.0009805206209421158
1772555857683850200,1.879850341796875,0.0021676402539014816,-0.001968197524547577,0.0016335099935531616
1772555857693782000,1.889781982421875,0.0008368585258722305,0.0020734164863824844,0.00033761560916900635
1772555857703713300,1.89971337890625,-0.0021121923346072435,-0.001288101077079773,-0.0013184547424316406
1772555857713645300,1.909645263671875,0.0006287330761551857,0.0016277935355901718,-0.0006350874900817871
1772555857723576300,1.919576416015625,0.0011642053723335266,-0.00010569393634796143,0.0013265591114759445
1772555857733507000,1.929507080078125,-0.000579100102186203,-0.00003272294998168945,-0.00009636860340833664
1772555857743439000,1.939439208984375,0.00006945524364709854,-0.0013135969638824463,-0.00030713528394699097
1772555857753370400,1.949370361328125,-0.0014781076461076736,0.000029435381293296814,-0.0014485660940408707
1772555857763301000,1.959301025390625,0.0008908058516681194,-0.00019239634275436401,0.0007784534245729446
1772555857773233200,1.969233154296875,0.0015448778867721558,0.00006992556154727936,0.00012464728206396103
1772555857783164200,1.9791640625,-0.0002283523790538311,-0.0008249673992395401,0.0017326362431049347
1772555857793096200,1.98909619140625,0.00009122677147388458,-0.0015876973047852516,0.0010444754734635353
1772555857803027200,1.999027099609375,0.0007180343382060528,0.00003288872539997101,0.0026617776602506638
1772555857812958200,2.008958251953125,0.0014765025116503239,-0.0007692566141486168,-0.0009065922349691391
1772555857822891300,2.018891357421875,0.0002880333922803402,0.0009917784482240677,-0.0009966855868697166
1772555857832822000,2.028822021484375,-0.0017229197546839714,0.0014812685549259186,-0.0021157460287213326
1772555857842754000,2.038754150390625,-0.0003092428669333458,0.0011160746216773987,-0.001964341849088669
1772555857852685300,2.048685302734375,0.0012718760408461094,-0.0013657240197062492,-0.0020628785714507103
1772555857862616300,2.0586162109375,-0.0002645612694323063,-0.0009402157738804817,0.001651219092309475
1772555857872548000,2.068548095703125,0.0007104217074811459,0.0004273168742656708,-0.0024191560223698616
1772555857882479000,2.07847900390625,-0.000005873851478099823,0.00069463811814785,-0.000005686655640602112
1772555857892411100,2.0884111328125,-0.00037365639582276344,0.00005441345274448395,0.00028113555163145065
1772555857902342100,2.098342041015625,0.00002937251701951027,0.00016254745423793793,0.0006586313247680664
1772555857912273200,2.108273193359375,-0.0013956851325929165,-0.0009107068181037903,-0.00013685505837202072
1772555857922205200,2.118205078125,0.002980533055961132,0.001053517684340477,-0.0013672392815351486
1772555857932136200,2.12813623046875,0.0017632022500038147,0.001695604994893074,0.0015422645956277847
1772555857942068200,2.138068115234375,0.0007419269531965256,-0.0005637854337692261,0.0006312886252999306
1772555857951999200,2.147999267578125,0.0012484602630138397,-0.001061529852449894,-0.0015658196061849594
1772555857961930200,2.15793017578125,-0.001734006218612194,0.0008051637560129166,-0.001636037603020668
1772555857971862000,2.167862060546875,-0.000683122780174017,-0.001502731814980507,0.001474534161388874
1772555857981793300,2.177793212890625,0.0004832283593714237,0.0005076136440038681,0.002057948149740696
1772555857991724300,2.187724365234375,-0.0009271819144487381,0.0004532858729362488,-0.0004342375323176384
1772555858001656300,2.19765625,0.00046458980068564415,-0.0022629573941230774,-0.0004173619672656059
1772555858011587000,2.207587158203125,-0.003093393286690116,0.0008883606642484665,-0.00188529584556818
1772555858021519000,2.21751904296875,-0.0005327174440026283,-0.001189480535686016,0.0014488734304904938
1772555858031450400,2.227450439453125,-0.00029276637360453606,-0.0009636441245675087,-0.000955960713326931
1772555858041381000,2.237381103515625,-0.0021869484335184097,-0.0020912764593958855,0.0016851499676704407
1772555858051313200,2.247313232421875,0.00022321240976452827,-0.0045112911611795425,-0.0013737566769123077
1772555858061244200,2.257244140625,0.00213792035356164,0.0010961201041936874,-0.00022011809051036835
1772555858071176200,2.26717626953125,-0.0005758404731750488,0.0010247472673654556,0.0008182479068636894
1772555858081107200,2.277107177734375,-0.0009175669401884079,0.0015371553599834442,0.0007562004029750824
1772555858091038200,2.2870380859375,0.0013250811025500298,0.00044073350727558136,-0.0030779531225562096
1772555858100970200,2.29697021484375,-0.0009032385423779488,0.00011668354272842407,0.0039500892162323
1772555858110901000,2.30690087890625,0.0006033116951584816,-0.0009746793657541275,0.0007620193064212799
1772555858120832300,2.316832275390625,-0.00209618522785604,-0.0000598616898059845,0.0001526474952697754
1772555858130764300,2.326764404296875,0.0008087907917797565,-0.0004396280273795128,0.0021159304305911064
1772555858140695000,2.336695068359375,0.0032215877436101437,-0.0028905076906085014,-0.0013978667557239532
1772555858150627000,2.346626953125,-0.0015406771562993526,0.0000932980328798294,0.0007078954949975014
1772555858160558300,2.356558349609375,0.002030658069998026,-0.0006776172667741776,-0.00020330306142568588
1772555858170489000,2.366489013671875,0.001246357336640358,0.00029976293444633484,0.0006584962829947472
1772555858180421000,2.376421142578125,-0.0008752429857850075,-0.001140897162258625,-0.0007246481254696846
1772555858190352100,2.38635205078125,-0.0011655273847281933,0.0018618181347846985,0.000662325881421566
1772555858200284200,2.3962841796875,-0.003118830733001232,0.0013504363596439362,-0.0010640611872076988
1772555858210215200,2.406215087890625,0.00015579210594296455,-0.0003270888701081276,-0.0014859065413475037
1772555858220146200,2.416146240234375,0.0005052424967288971,0.0033827200531959534,-0.00015745777636766434
1772555858230078200,2.426078125,-0.0014015808701515198,0.001371767371892929,0.002157095819711685
1772555858240009200,2.43600927734375,0.0025542727671563625,-0.0012261103838682175,-0.0011193519458174706
1772555858249941000,2.44594091796875,0.0004692845977842808,-0.001240757293999195,0.0017534000799059868
1772555858259872300,2.455872314453125,0.0012577981688082218,-0.0003282930701971054,-0.00023789051920175552
1772555858269803300,2.46580322265625,-0.0014812629669904709,-0.000004986301064491272,-0.0008376343175768852
1772555858279735000,2.475735107421875,-0.00031052669510245323,-0.0004920931532979012,3.995373845100403e-7
1772555858289666000,2.485666015625,0.0017070840112864971,0.0009875595569610596,0.00004966743290424347
1772555858299597300,2.495597412109375,0.00041757337749004364,-0.0007909927517175674,0.0006803404539823532
1772555858309529300,2.505529296875,0.00034433649852871895,-0.0011281482875347137,0.0003501083701848984
1772555858319460000,2.515460205078125,0.0013548736460506916,0.0007640980184078217,0.0006039077416062355
1772555858329392000,2.52539208984375,0.0005921442061662674,0.002713266760110855,0.000049171969294548035
1772555858339323400,2.535323486328125,0.00040281563997268677,-0.0012079952284693718,-0.0011159572750329971
1772555858349254100,2.545254150390625,0.0015479749999940395,0.0003507528454065323,-0.0010861298069357872
1772555858359186200,2.555186279296875,0.0020548980683088303,0.0006575658917427063,0.0017425082623958588
1772555858369117200,2.5651171875,0.0019371858797967434,-0.00025323405861854553,0.0001512700691819191
1772555858379049200,2.57504931640625,-0.002062126062810421,-0.0012151654809713364,-0.001612967811524868
1772555858388980200,2.584980224609375,-0.0010458636097609997,0.0002639535814523697,0.0018102601170539856
1772555858398911200,2.5949111328125,-0.002440583659335971,-0.00029320549219846725,-0.001325538381934166
1772555858408843300,2.60484326171875,0.000915265642106533,-0.002459420822560787,-0.0008349847048521042
1772555858418774000,2.61477392578125,0.0029792562127113342,0.0004235990345478058,-0.0005700811743736267
1772555858428706000,2.6247060546875,0.003568613901734352,0.0013144277036190033,-0.001195657067000866
1772555858438637300,2.63463720703125,0.0023968983441591263,0.0003219861537218094,0.0009750500321388245
1772555858448568000,2.644568115234375,0.0004229634068906307,-0.00042183417826890945,-0.00001857522875070572
1772555858458500000,2.6545,0.0008480926044285297,-0.000002680346369743347,-0.00020162295550107956
1772555858468431400,2.664431396484375,0.0010020234622061253,-0.001143312081694603,0.00031050294637680054
1772555858478362000,2.674362060546875,-0.0001975768245756626,-0.0005620522424578667,-0.000621347688138485
1772555858488294100,2.684294189453125,-0.00018479395657777786,0.000524250790476799,0.00006308499723672867
1772555858498225200,2.69422509765625,-0.0009128935635089874,-0.00048147886991500854,0.0002639647573232651
1772555858508157200,2.7041572265625,-0.0012212875299155712,-0.0006050495430827141,0.000528150238096714
1772555858518088200,2.714088134765625,-0.001214723102748394,0.0009138509631156921,-0.00033295154571533203
1772555858528019200,2.724019287109375,0.001680132932960987,-0.001095769926905632,0.0009514912962913513
1772555858537951200,2.733951171875,0.0002310303971171379,-0.0014785630628466606,0.0017188331112265587
1772555858547882000,2.743882080078125,-0.0008414243347942829,-0.00013499893248081207,0.0008682198822498322
1772555858557814000,2.75381396484375,-0.000421163160353899,0.00014766864478588104,0.0022744517773389816
1772555858567745300,2.763745361328125,0.0007050875574350357,0.0014667324721813202,-0.0016510477289557457
1772555858577676300,2.77367626953125,0.0005681337788701057,0.0008529685437679291,0.0007678214460611343
1772555858587608000,2.783608154296875,0.00006319815292954445,0.0001323167234659195,-0.00004204642027616501
1772555858597539000,2.7935390625,0.0003563803620636463,0.00006192363798618317,0.000231865793466568
1772555858607470300,2.80347021484375,-0.0007365806959569454,-0.0013231867924332619,-0.0010339347645640373
1772555858617402000,2.813402099609375,-0.0002000671811401844,0.0005368068814277649,0.0008235424757003784
1772555858627333000,2.8233330078125,0.0018255333416163921,0.0016595963388681412,-0.0014105839654803276
1772555858637265200,2.83326513671875,0.0019835843704640865,0.0009284242987632751,-0.0013630855828523636
1772555858647196400,2.843196533203125,0.000013910233974456787,-0.0011898549273610115,0.002652694471180439
1772555858657127200,2.853127197265625,-0.00037605036050081253,0.0007623471319675446,-0.0015206271782517433
1772555858667059200,2.86305908203125,0.0010697799734771252,0.0008590184152126312,0.000792328268289566
1772555858676990200,2.872990234375,-0.0012439521960914135,-0.0021503958851099014,0.00008275080472230911
1772555858686922000,2.882921875,-0.0008870884776115417,0.0008296817541122437,-0.0006126007065176964
1772555858696853200,2.892853271484375,0.0020219297148287296,0.00021239370107650757,0.0008410308510065079
1772555858706784300,2.9027841796875,-0.0008801165968179703,0.0006251838058233261,0.000022907741367816925
1772555858716716300,2.91271630859375,-0.001045912504196167,0.0011036545038223267,0.0002903500571846962
1772555858726647000,2.92264697265625,-0.0014816056936979294,-0.0002747979015111923,-0.0004603946581482887
1772555858736579000,2.9325791015625,0.002017655875533819,0.0007399749010801315,0.000222119502723217
1772555858746510300,2.94251025390625,0.00010736985132098198,-0.0003599105402827263,0.00023543555289506912
1772555858756441000,2.952441162109375,0.0004300992004573345,-0.0015094568952918053,0.0006400393322110176
1772555858766373000,2.962373046875,-0.0009640655480325222,0.00002212636172771454,0.00006905756890773773
1772555858776304000,2.97230419921875,-0.0006507821381092072,0.0005558282136917114,-0.0002377815544605255
1772555858786236200,2.982236083984375,0.0012613674625754356,0.0009286720305681229,-0.0015970589593052864
1772555858796167200,2.992167236328125,0.0008296915329992771,-0.003169097937643528,-0.00026877038180828094
1772555858806098200,3.00209814453125,0.0016358308494091034,-0.0013789208605885506,0.001354692503809929
1772555858816030200,3.0120302734375,0.000054774805903434753,0.00090053491294384,-0.0021576108410954475
1772555858825961000,3.0219609375,0.004066028632223606,0.003016948699951172,0.0008557559922337532
1772555858835892000,3.03189208984375,-0.001344794873148203,-0.0002867830917239189,0.00003940518945455551
1772555858845824000,3.041823974609375,-0.0009096344001591206,0.0002684853971004486,0.0007581915706396103
1772555858855754800,3.051754638671875,-0.0027267455589026213,0.0008594412356615067,-0.00017449911683797836
1772555858865686800,3.061686767578125,0.00044667720794677734,-0.00008890964090824127,-0.0009007425978779793
1772555858875618000,3.0716181640625,0.00009714486077427864,-0.0011293236166238785,-0.0002781404182314873
1772555858885548800,3.081548828125,-0.0016786507330834866,-0.0023269476369023323,-0.0003982493653893471
1772555858895480800,3.091480712890625,0.0015675611793994904,0.00007862783968448639,-0.00003722775727510452
1772555858905411800,3.101411865234375,-0.002365661319345236,0.00024108029901981354,-0.001347503624856472
1772555858915344000,3.11134375,-0.0012511666864156723,-0.0008500851690769196,-0.0013263188302516937
1772555858925275000,3.12127490234375,0.0001661675050854683,-0.0000045318156480789185,-0.0005670515820384026
1772555858935206000,3.131205810546875,-0.0004185624420642853,0.0016776081174612045,0.00005672406405210495
1772555858945138000,3.141137939453125,0.0004941029474139214,0.0012624207884073257,0.0013877712190151215
1772555858955069000,3.15106884765625,-0.000877968966960907,0.00026654452085494995,-0.003053886815905571
1772555858965000000,3.161,-0.0006547961384057999,0.0023214388638734818,0.0013019796460866928
1772555858974932000,3.170931884765625,0.002717651892453432,0.0021847281605005264,0.0018337415531277657
1772555858984863000,3.180863037109375,0.00024197762832045555,0.00033809244632720947,0.0007010987028479576
1772555858994794800,3.190794677734375,0.0003830394707620144,-0.0014124410226941109,0.0032607526518404484
1772555859004726000,3.20072607421875,0.0004935609176754951,0.0009109005331993103,0.0015515359118580818
1772555859014657000,3.210656982421875,0.002054198645055294,0.002278706058859825,0.0005307765677571297
1772555859024588800,3.2205888671875,0.0007737507112324238,0.000369485467672348,-0.00009666383266448975
1772555859034519800,3.230519775390625,0.001889670267701149,-0.0010280637070536613,0.0021859733387827873
1772555859044451800,3.240451904296875,0.0006600888445973396,-0.00043045077472925186,0.0017766449600458145
1772555859054383000,3.250383056640625,0.00083558214828372,0.0003662109375,-0.0008712764829397202
1772555859064313900,3.26031396484375,-0.0002390029840171337,0.002568112686276436,0.0017391536384820938
1772555859074246000,3.270245849609375,-0.0010268273763358593,0.0008953399956226349,0.0012119319289922714
1772555859084177000,3.280177001953125,0.0010309969075024128,0.00002635084092617035,-0.0008663991466164589
1772555859094109200,3.290109130859375,0.0003160424530506134,-0.00047013722360134125,-0.0013042809441685677
1772555859104040000,3.3000400390625,0.0028290017507970333,-0.0005825227126479149,-0.0006217127665877342
1772555859113971000,3.309970947265625,0.0021866499446332455,0.0001584421843290329,0.001246599480509758
1772555859123903000,3.319903076171875,-0.0010746573098003864,-0.002097521908581257,-0.00041681062430143356
1772555859133834000,3.329833984375,-0.00011446094140410423,0.0027175545692443848,0.00004867836833000183
1772555859143765000,3.339764892578125,-0.00015520723536610603,-0.00185402762144804,0.0015522995963692665
1772555859153697000,3.349697021484375,-0.001281549222767353,-0.0021992074325680733,0.00038930773735046387
1772555859163627800,3.359627685546875,-0.002214987063780427,0.003585444763302803,-0.001660793088376522
1772555859173559800,3.369559814453125,0.0010183746926486492,-0.0010640360414981842,-0.0010719243437051773
1772555859183491000,3.379490966796875,-0.00016619917005300522,0.0012060422450304031,0.0005994755774736404
1772555859193421800,3.389421875,-0.00032027997076511383,-0.001458173617720604,0.0018077930435538292
1772555859203353900,3.399353759765625,-0.0015594488941133022,0.0017578601837158203,-0.0016857422888278961
1772555859213284900,3.409284912109375,0.0013058907352387905,-0.002109595574438572,-0.0005594706162810326
1772555859223217000,3.419216796875,0.0018691495060920715,-0.0011820169165730476,0.0000908728688955307
1772555859233148000,3.42914794921875,-0.0009805425070226192,0.0011608246713876724,0.00032931845635175705
1772555859243079000,3.439078857421875,0.0006005759350955486,0.0008542947471141815,-0.00002488214522600174
1772555859253011000,3.449010986328125,-0.0016927653923630714,-0.00013237819075584412,-0.0013117492198944092
1772555859262942000,3.45894189453125,0.000006064772605895996,0.0005648378282785416,-0.000546090304851532
1772555859272873000,3.468873046875,0.0002588331699371338,0.0017717182636260986,0.0000307159498333931
1772555859282805000,3.478804931640625,-0.00004956079646945,-0.001245643012225628,-0.0024465564638376236
1772555859292736000,3.488736083984375,0.0012925122864544392,-0.0007598074153065681,-0.0008946768939495087
1772555859302667800,3.498667724609375,-0.0018305769190192223,-0.00042904261499643326,-0.0009908173233270645
1772555859312599000,3.50859912109375,0.00022694561630487442,-0.0012423619627952576,0.0005682492628693581
1772555859322530000,3.518530029296875,0.002450418658554554,-0.00045193638652563095,0.00006357952952384949
1772555859332461800,3.5284619140625,0.000563544686883688,-0.002524198032915592,-0.0008676545694470406
1772555859342392800,3.538392822265625,0.0028317589312791824,0.0004367046058177948,0.0010080104693770409
1772555859352324000,3.548323974609375,-0.0006410432979464531,-0.0015921713784337044,-0.00007182732224464417
1772555859362256100,3.558256103515625,0.0006420672871172428,-0.0009916285052895546,0.0003638658672571182
1772555859372187000,3.568186767578125,0.0004843655042350292,-0.001988353207707405,-0.00002601463347673416
1772555859382119000,3.578118896484375,0.0003906222991645336,0.0019975993782281876,0.00015002023428678513
1772555859392050000,3.5880498046875,0.000653441995382309,-0.00028679147362709045,-0.00020860694348812103
1772555859401981000,3.59798095703125,-0.0000863843597471714,0.0013664979487657547,0.0013695824891328812
1772555859411913000,3.607912841796875,-0.0021988223306834698,-0.000015636906027793884,-0.0009741131216287613
1772555859421844000,3.617843994140625,0.001271009910851717,0.00032231956720352173,0.0011889059096574783
1772555859431776000,3.62777587890625,-0.0002972269430756569,0.0013147611171007156,-0.000686032697558403
1772555859441707000,3.63770703125,-0.003101269481703639,0.0008111577481031418,-0.000022105872631072998
1772555859451638000,3.647637939453125,0.003122755791991949,0.00021916255354881287,0.0009878072887659073
1772555859461570000,3.657570068359375,-0.0012426981702446938,-0.00012864544987678528,-0.002220235764980316
1772555859471500800,3.667500732421875,-0.0007497156038880348,-0.000939403660595417,0.00023858994245529175
1772555859481432800,3.677432861328125,0.0006668195128440857,0.0021978002041578293,0.0002788035199046135
1772555859491364000,3.687364013671875,0.000693292822688818,-0.0008159847930073738,0.001048864796757698
1772555859501294800,3.697294921875,-0.00009420420974493027,-0.0012298403307795525,-0.0013687526807188988
1772555859511227000,3.707226806640625,0.00007783062756061554,-0.0006783092394471169,0.0006067482754588127
1772555859521158000,3.717157958984375,0.0005313670262694359,-0.0035063205286860466,-0.00043534673750400543
1772555859531089000,3.7270888671875,0.00026783859357237816,0.0010723788291215897,-0.000293743796646595
1772555859541021000,3.73702099609375,-0.00017504533752799034,-0.0007889037951827049,-0.0002772323787212372
1772555859550952000,3.746951904296875,-0.0004262481816112995,-0.0012789778411388397,0.0016577308997511864
1772555859560884000,3.756884033203125,0.0013452866114675999,0.0012579504400491714,0.0004047136753797531
1772555859570814700,3.766814697265625,0.0003102310001850128,0.001363556832075119,0.002640766091644764
1772555859580746000,3.77674609375,0.00048067327588796616,-0.00016962550580501556,0.00046496279537677765
1772555859590678000,3.786677978515625,-0.0008615464903414249,0.00048005394637584686,-0.000359436497092247
1772555859600608800,3.79660888671875,0.0005517932586371899,-0.0007066512480378151,0.0005918452516198158
1772555859610540800,3.806540771484375,-0.0021228203549981117,-0.00014923512935638428,-0.0013477988541126251
1772555859620472000,3.81647216796875,0.0005169049836695194,0.0019546616822481155,-0.003002953715622425
1772555859630403000,3.826403076171875,-0.0011564143933355808,-0.0006744517013430595,-0.0011488841846585274
1772555859640334800,3.8363349609375,-0.0025026421062648296,0.002391379326581955,-0.00038801878690719604
1772555859650265900,3.846265869140625,0.00008006533607840538,-0.0003986973315477371,-0.00013050995767116547
1772555859660197000,3.856197021484375,0.001540010329335928,-0.0020655691623687744,0.00023221317678689957
1772555859670129000,3.86612890625,-0.002198092406615615,0.00034692324697971344,-0.0012311339378356934
1772555859680060000,3.876059814453125,-0.0011173817329108715,-0.00030182115733623505,0.0014477400109171867
1772555859689992000,3.885991943359375,0.003337438218295574,0.0014217514544725418,0.0014534341171383858
1772555859699923000,3.8959228515625,-0.0002527693286538124,0.0008395854383707047,0.00013437028974294662
1772555859709854000,3.90585400390625,-0.0032673815730959177,-0.00020665302872657776,-0.0011260127648711205
1772555859719786000,3.915785888671875,-0.0009554913267493248,0.0005531460046768188,-0.0017995266243815422
1772555859729717000,3.925717041015625,0.0010166531428694725,-0.0023406948894262314,0.00007749255746603012
1772555859739649000,3.93564892578125,0.00034207431599497795,-0.002743365243077278,0.00024500489234924316
1772555859749580000,3.945580078125,0.001193842850625515,-0.0007116403430700302,0.00022783130407333374
1772555859759511000,3.955510986328125,0.0020433911122381687,-0.001522839069366455,0.0007002754136919975
1772555859769443000,3.965443115234375,0.001061997376382351,-0.000459534116089344,-0.001024847850203514
1772555859779373800,3.975373779296875,0.001258272211998701,0.0016739238053560257,0.0005093999207019806
1772555859789305000,3.98530517578125,0.0017407098785042763,0.000053338706493377686,-0.0010125460103154182
1772555859799237000,3.995237060546875,-0.0030551105737686157,0.0010957010090351105,-0.000033301301300525665
1772555859809168000,4.00516796875,-0.0005722576752305031,0.00045975297689437866,0.0010817497968673706
1772555859819100000,4.015099853515625,-0.000022847671061754227,-0.0019655879586935043,-0.00006127916276454926
1772555859829030400,4.025030517578125,0.0007258621044456959,0.00034669414162635803,-0.002116474322974682
1772555859838961400,4.03496142578125,0.0010907151736319065,-0.0000913962721824646,0.0005589369684457779
1772555859848893400,4.0448935546875,0.0036455104127526283,-0.001193048432469368,0.0007241331040859222
1772555859858824200,4.05482421875,0.00001642061397433281,0.0002088397741317749,-0.0011821575462818146
1772555859868756200,4.064756103515625,0.00042074453085660934,-0.0017584487795829773,-0.0006411699578166008
1772555859878687500,4.0746875,0.000996253453195095,0.001347862184047699,-0.0014931149780750275
1772555859888618200,4.0846181640625,-0.0009047663770616055,-0.002259340137243271,-0.0002072937786579132
1772555859898550300,4.09455029296875,0.001090207602828741,0.0011582933366298676,-0.0002315286546945572
1772555859908481300,4.104481201171875,0.00015879934653639793,-0.0005135582759976387,-0.000540655106306076
1772555859918412300,4.114412353515625,0.00020087696611881256,0.00017460249364376068,-0.0019590547308325768
1772555859928344300,4.12434423828125,0.0022271708585321903,-0.001116677187383175,0.0004800567403435707
1772555859938275300,4.134275390625,0.0007824059575796127,-0.000864742323756218,-0.00016389600932598114
1772555859948207400,4.144207275390625,-0.00027269963175058365,-0.002418610267341137,-0.00011812523007392883
1772555859958138000,4.15413818359375,-0.0004391469992697239,-0.0015083421021699905,0.00273225549608469
1772555859968069400,4.1640693359375,0.0017873356118798256,-0.002368875779211521,0.0008923029527068138
1772555859978001400,4.17400146484375,0.0014025084674358368,-0.0014021480455994606,0.0007948316633701324
1772555859987932200,4.18393212890625,0.0005979025736451149,-0.0023857345804572105,-0.00029258057475090027
1772555859997864200,4.1938642578125,0.0023100492544472218,-0.0008245892822742462,-0.0006049694493412971
1772555860007795500,4.20379541015625,-0.002209915779531002,-0.0026666587218642235,0.0001348322257399559
1772555860017726500,4.2137265625,0.0002271430566906929,-0.00036222580820322037,0.0008909041061997414
1772555860027658200,4.223658203125,-0.001974111422896385,0.002315003424882889,-0.00228975061327219
1772555860037589200,4.23358935546875,0.0020813504233956337,-0.00019049830734729767,0.0017595859244465828
1772555860047520500,4.2435205078125,0.0007621771655976772,-0.00040756817907094955,-0.0011465298011898994
1772555860057452300,4.253452392578125,0.001656999345868826,-0.00020996108651161194,-0.00026875175535678864
1772555860067383300,4.26338330078125,-0.0010519195348024368,0.0004743468016386032,-0.0010843891650438309
1772555860077315300,4.2733154296875,-0.00044924626126885414,-0.00093073770403862,0.001056525856256485
1772555860087246300,4.283246337890625,-0.00003818422555923462,-0.0019078180193901062,-0.0013121645897626877
1772555860097177300,4.29317724609375,-0.0008778786286711693,0.0004416219890117645,-0.0013289423659443855
1772555860107109400,4.303109375,0.0010026977397501469,-0.0020506512373685837,-0.00044956523925065994
1772555860117040400,4.313040283203125,-0.001713726669549942,-0.0021659666672348976,0.0010159723460674286
1772555860126972200,4.32297216796875,-0.0021079161670058966,-0.0013953130692243576,-0.00035504717379808426
1772555860136903200,4.332903076171875,0.0037662177346646786,-0.001276269555091858,-0.001375303603708744
1772555860146834400,4.34283447265625,-0.0013704746961593628,0.00006055459380149841,-0.0013012280687689781
1772555860156766500,4.352766357421875,0.0008599227294325829,0.0015553869307041168,0.003130271565169096
1772555860166697200,4.362697265625,-0.00075943348929286,0.0003985986113548279,0.0014662165194749832
1772555860176628200,4.372628173828125,-0.0007977830246090889,-0.0009513581171631813,0.0011977693066000938
1772555860186560500,4.382560546875,-0.0002199462614953518,0.0006332695484161377,0.000588100403547287
1772555860196491300,4.3924912109375,-0.0012157023884356022,0.0004817359149456024,-0.00024706684052944183
1772555860206423300,4.40242333984375,0.00042229704558849335,-0.0012091249227523804,0.0007918523624539375
1772555860216354300,4.412354248046875,-0.00043417559936642647,0.0007158070802688599,0.00021847430616617203
1772555860226285300,4.422285400390625,-0.0009456020779907703,-0.0014389120042324066,0.00017861835658550262
1772555860236217300,4.43221728515625,-0.0017802370712161064,0.0021957699209451675,0.0011352254077792168
1772555860246148400,4.4421484375,-0.0022284798324108124,-0.0015069590881466866,0.00009025726467370987
1772555860256080400,4.452080322265625,-0.00010247807949781418,0.0014326386153697968,0.0007368726655840874
1772555860266011100,4.46201123046875,0.0010192240588366985,-0.002304959110915661,-0.00012842752039432526
1772555860275942400,4.4719423828125,-0.0013802843168377876,-0.0015422292053699493,-0.001283174380660057
1772555860285874400,4.48187451171875,-0.003357475157827139,0.0004110261797904968,0.0010791271924972534
1772555860295805200,4.49180517578125,0.0008178288117051125,0.0010493863373994827,-0.0017246482893824577
1772555860305736200,4.501736083984375,-0.002213595900684595,0.0009502768516540527,-0.0004921592772006989
1772555860315668200,4.511668212890625,0.001027737744152546,0.00004160590469837189,0.0011592665687203407
1772555860325599500,4.521599609375,-0.00005594966933131218,0.0005096234381198883,-0.0010564522817730904
1772555860335531300,4.53153125,-0.0004602177068591118,0.00038365647196769714,-0.000700121745467186
1772555860345462300,4.541462158203125,0.000006590038537979126,-0.0003480389714241028,0.0010002125054597855
1772555860355393500,4.5513935546875,0.00021032197400927544,0.0020469408482313156,-0.0012299185618758202
1772555860365325300,4.5613251953125,-0.0029900355730205774,0.0012165512889623642,-0.00215871911495924
1772555860375256300,4.57125634765625,0.0014617042616009712,-0.00041543319821357727,-0.0003392482176423073
1772555860385188400,4.581188232421875,-0.0005634129047393799,0.0014888551086187363,0.0004962459206581116
1772555860395119400,4.591119384765625,-0.0008475719951093197,-0.0015820357948541641,-0.0005599632859230042
1772555860405050400,4.60105029296875,-0.002984050428494811,-0.001519518904387951,0.001809811219573021
1772555860414982400,4.610982421875,-0.0037300018593668938,-0.000942678190767765,-0.0020626913756132126
1772555860424913400,4.620913330078125,0.001197474543005228,-0.001867653802037239,0.0015998156741261482
1772555860434844200,4.63084423828125,0.0006592497229576111,0.0004666075110435486,-0.0025232909247279167
1772555860444776200,4.640776123046875,-0.0012111994437873363,-0.00007867999374866486,-0.0001661013811826706
1772555860454707500,4.65070751953125,-0.0017688656225800514,-0.0013087932020425797,-0.0008832905441522598
1772555860464639500,4.660639404296875,-0.000029440969228744507,0.00013828836381435394,-0.0011356696486473083
1772555860474570200,4.6705703125,-0.0013985717669129372,-0.0009552054107189178,-0.0009063715115189552
1772555860484501200,4.680501220703125,-0.00027523748576641083,-0.00013926997780799866,0.0017294883728027344
1772555860494433300,4.690433349609375,-0.0007857652381062508,-0.0018985550850629807,0.0027287062257528305
1772555860504364300,4.7003642578125,0.0014299084432423115,-0.0006008297204971313,0.00001780688762664795
1772555860514296300,4.71029638671875,-0.001939256675541401,-0.001771821640431881,0.0007586982101202011
1772555860524227300,4.720227294921875,0.0005585635080933571,-0.00007032230496406555,0.000601939857006073
1772555860534158300,4.730158447265625,-0.0009503834880888462,-0.00029749050736427307,-0.00009234622120857239
1772555860544090400,4.74009033203125,0.0005395784974098206,-0.0013097766786813736,0.000006235204637050629
1772555860554021400,4.750021484375,0.000634919386357069,0.003699894994497299,0.0003766808658838272
1772555860563952000,4.7599521484375,0.0007159621454775333,0.001042582094669342,0.002838222309947014
1772555860573884200,4.76988427734375,0.001074956264346838,-0.00007221661508083344,-0.001370903104543686
1772555860583815400,4.7798154296875,0.0021162163466215134,-0.001825755462050438,0.004998304881155491
1772555860593747500,4.78974755859375,-0.0008425558917224407,0.0007148999720811844,0.0021455269306898117
1772555860603678200,4.79967822265625,0.0007711467333137989,0.000007076188921928406,-0.001790110021829605
1772555860613609200,4.809609130859375,-0.0022717814426869154,0.000022523105144500732,-0.0009786440059542656
1772555860623541200,4.819541259765625,-0.0005097491666674614,-0.0006921403110027313,-0.00007981806993484497
1772555860633472300,4.82947216796875,-0.001096975989639759,0.0005968287587165833,0.00028476864099502563
1772555860643404300,4.839404296875,-0.0008281185291707516,-0.0003027264028787613,-0.0004349648952484131
1772555860653335300,4.849335205078125,-0.0011282567866146564,-0.0007493374869227409,0.0015837112441658974
1772555860663266300,4.859266357421875,-0.0007685208693146706,-0.001402825117111206,0.00014408491551876068
1772555860673198300,4.8691982421875,-0.0003027338534593582,-0.00036126282066106796,-0.00034007709473371506
1772555860683129300,4.87912939453125,0.0009288964793086052,-0.00028552114963531494,-0.002213510684669018
1772555860693060400,4.889060302734375,-0.0005086776800453663,-0.000012014061212539673,0.000529012642800808
1772555860702992100,4.8989921875,-0.0020596396643668413,-0.0013904310762882233,-0.000389833003282547
1772555860712923400,4.90892333984375,0.0018109986558556557,-0.0009203832596540451,0.00032336078584194183
1772555860722855400,4.91885546875,-0.00034558074548840523,0.0012568384408950806,-0.00199070293456316
1772555860732786400,4.928786376953125,-0.0010489216074347496,-0.002516860142350197,0.0011571533977985382
1772555860742717200,4.93871728515625,0.0017869467847049236,-0.001308150589466095,0.002344103530049324
1772555860752649200,4.948649169921875,0.00012833019718527794,0.00032010674476623535,0.0007233032956719398
1772555860762580500,4.95858056640625,-0.0009330781176686287,-0.0010777069255709648,0.00176343135535717
1772555860772511200,4.96851123046875,-0.00016555516049265862,0.004994833841919899,0.0011085597798228264
1772555860782443300,4.978443359375,0.0017917314544320107,-0.0032860729843378067,-0.0011624423786997795
1772555860792374300,4.988374267578125,0.00031607411801815033,-0.0003424808382987976,0.00026154983788728714
1772555860802306300,4.998306396484375,-0.002153722569346428,-0.0013621998950839043,-0.0020380886271595955
1772555860812237300,5.0082373046875,0.0008479263633489609,0.00055660679936409,-0.003124125301837921
1772555860822168300,5.018168212890625,0.000024712178856134415,0.0015684105455875397,-0.0011057183146476746
1772555860832100600,5.0281005859375,0.0001437556929886341,0.0024307407438755035,0.0017750225961208344
1772555860842031600,5.038031494140625,0.00012560049071907997,-0.0006398428231477737,0.00251669529825449
1772555860851963600,5.047963623046875,0.0013762209564447403,0.0024156011641025543,0.0005763163790106773
1772555860861895000,5.05789501953125,0.0017369636334478855,-0.0009487438946962357,0.00005782861262559891
1772555860871825700,5.06782568359375,0.0005683684721589088,0.0002917572855949402,0.0010908683761954308
1772555860881757700,5.0777578125,-0.002234813291579485,-0.0006978381425142288,0.00023172050714492798
1772555860891688700,5.087688720703125,0.0016707121394574642,-0.001494123600423336,-0.0022194525226950645
1772555860901619700,5.09761962890625,0.0017928560264408588,0.0019633639603853226,-0.0011904733255505562
1772555860911551700,5.1075517578125,0.0005512903444468975,-0.0011903522536158562,0.0015155645087361336
1772555860921482800,5.117482666015625,0.0012255758047103882,0.0016041789203882217,0.0011067548766732216
1772555860931414800,5.127414794921875,-0.0004114694893360138,-0.0011279582977294922,-0.0007832907140254974
1772555860941345800,5.137345703125,-0.0020775741431862116,0.0007011331617832184,-0.000376812182366848
1772555860951276800,5.14727685546875,-0.0006461250595748425,0.0009056627750396729,-0.0003911927342414856
1772555860961208800,5.157208740234375,0.000012048520147800446,-0.0002656206488609314,0.0005109589546918869
1772555860971139600,5.1671396484375,0.0008216495625674725,0.0011059064418077469,-0.00036122649908065796
1772555860981071600,5.177071533203125,-0.0004948345012962818,-0.00246279314160347,-0.0013660211116075516
1772555860991003000,5.1870029296875,0.0005392706952989101,-0.00030749663710594177,-0.0006709359586238861
1772555861000933600,5.19693359375,-0.0009945533238351345,0.0010170619934797287,-0.001226215623319149
1772555861010865700,5.20686572265625,0.0014419727958738804,-0.0008266447111964226,0.00001881178468465805
1772555861020796700,5.216796630859375,-0.002008391311392188,-0.00021996907889842987,0.0009403824806213379
1772555861030727700,5.226727783203125,-0.002603341592475772,-0.0011299708858132362,-0.0009869476780295372
1772555861040659700,5.23665966796875,-0.0018205479718744755,0.001607632264494896,0.00005385652184486389
1772555861050590700,5.2465908203125,0.0008335583843290806,-0.0002379380166530609,-0.0008982233703136444
1772555861060522800,5.256522705078125,-0.001271881628781557,-0.000001957640051841736,0.0001383163034915924
1772555861070453800,5.266453857421875,0.0010195020586252213,-0.001467762514948845,0.0005710795521736145
1772555861080384800,5.276384765625,-0.0014194967225193977,0.0005784314125776291,-0.0010621175169944763
1772555861090316800,5.28631689453125,0.0005384595133364201,-0.0012876465916633606,0.0014250082895159721
1772555861100247600,5.29624755859375,0.0003099413588643074,-0.000990019179880619,0.001597028225660324
1772555861110179600,5.3061796875,-0.000024551525712013245,-0.0012518083676695824,0.0012870365753769875
1772555861120110800,5.31611083984375,-0.0013066870160400867,-0.0024012206122279167,0.0007646223530173302
1772555861130041900,5.326041748046875,-0.00003982149064540863,-0.0001497846096754074,0.0015121717005968094
1772555861139973600,5.3359736328125,0.0006697210483253002,0.0010934248566627502,-0.0005845632404088974
1772555861149904600,5.345904541015625,0.000032160431146621704,0.003775227814912796,0.002731338143348694
1772555861159836000,5.3558359375,-0.0012153489515185356,0.00016036257147789001,0.00006222352385520935
1772555861169767700,5.365767578125,0.0007258295081555843,0.001205919310450554,-0.0018685674294829369
1772555861179698700,5.37569873046875,0.00005881302058696747,-0.0014439988881349564,-0.0014442149549722672
1772555861189630700,5.385630615234375,-0.0007545161060988903,-0.0011419961228966713,-0.0024452973157167435
1772555861199561700,5.395561767578125,0.0006860499270260334,0.0009867195039987564,-0.0008712019771337509
1772555861209492700,5.40549267578125,-0.0009243637323379517,-0.0019824374467134476,0.0007490655407309532
1772555861219424800,5.4154248046875,0.0002146875485777855,-0.0013193590566515923,-0.003404282033443451
1772555861229355800,5.425355712890625,0.000566490925848484,0.002841297537088394,-0.00776307750493288
1772555861239287600,5.43528759765625,0.0014628367498517036,0.0017268601804971695,-0.003791283816099167
1772555861249218800,5.44521875,0.00035416288301348686,-0.004345945082604885,-0.0033545251935720444
1772555861259149800,5.45514990234375,0.0014541614800691605,0.0006467364728450775,-0.00064849853515625
1772555861269081900,5.465081787109375,0.0028975950554013252,0.00415332056581974,0.0008018594235181808
1772555861279012600,5.4750126953125,-0.0006508436053991318,-0.002813206985592842,-0.0021719802170991898
1772555861288943900,5.48494384765625,-0.0011680293828248978,0.0017298795282840729,0.0007428498938679695
1772555861298876000,5.4948759765625,-0.0028498098254203796,-0.0007123900577425957,-0.0012213103473186493
1772555861308806700,5.504806640625,-0.0013938597403466702,0.0001118592917919159,0.0023366734385490417
1772555861318738700,5.51473876953125,-0.00030723027884960175,0.0030742399394512177,-0.0021116072311997414
1772555861328669700,5.524669677734375,-0.0014337478205561638,-0.0014158496633172035,0.0002452898770570755
1772555861338600700,5.5346005859375,-0.0011877059005200863,-0.000431000255048275,0.0015938067808747292
1772555861348532700,5.54453271484375,-0.0028899982571601868,-0.001478155143558979,0.0016499990597367287
1772555861358463700,5.554463623046875,-0.0015052971430122852,-0.0004065791144967079,0.00041375961154699326
1772555861368394500,5.56439453125,-0.000459473580121994,-0.0009216340258717537,0.0003559691831469536
1772555861378326500,5.574326416015625,0.0003795730881392956,-0.0028745755553245544,0.0023743584752082825
1772555861388257800,5.5842578125,-0.0011773109436035156,-0.0009057009592652321,0.00020148605108261108
1772555861398189800,5.59418994140625,0.001037644688040018,-0.003177415579557419,0.0005410145968198776
1772555861408120600,5.60412060546875,0.002291460521519184,0.00030519999563694,-0.0004105325788259506
1772555861418051800,5.6140517578125,0.0006116786971688271,-0.00031113438308238983,-0.0011953935027122498
1772555861427984000,5.62398388671875,0.0016742800362408161,0.0009946133941411972,-0.0013328129425644875
1772555861437915000,5.633914794921875,0.0006757131777703762,0.0004320070147514343,-0.0011638691648840904
1772555861447846700,5.6438466796875,0.00101393461227417,-0.0012092981487512589,0.0005205795168876648
1772555861457777700,5.653777587890625,-0.0003134720027446747,-0.0006666658446192741,-0.00038490723818540573
1772555861467709000,5.663708984375,0.00047908490523695946,0.00004892610013484955,-0.0005638720467686653
1772555861477640700,5.673640625,-0.0010793046094477177,-0.0013084476813673973,-0.001179688610136509
1772555861487571700,5.68357177734375,0.0010493597947061062,-0.0006165588274598122,0.000895179808139801
1772555861497502700,5.693502685546875,0.000668178778141737,-0.000722997821867466,-0.0019988371059298515
1772555861507434800,5.703434814453125,-0.0006143995560705662,0.0009848885238170624,-0.0008488837629556656
1772555861517365800,5.71336572265625,-0.0003482927568256855,-0.0010522166267037392,-0.00044537242501974106
1772555861527297800,5.7232978515625,-0.00021966220811009407,-0.0015600807964801788,-0.0005473708733916283
1772555861537228800,5.733228759765625,-0.00103750079870224,0.0011276192963123322,0.0016238000243902206
1772555861547159600,5.74315966796875,0.0004224441945552826,-0.000230325385928154,0.0006062062457203865
1772555861557091800,5.753091796875,-0.0020089149475097656,0.001620640978217125,0.00045879650861024857
1772555861567022800,5.76302294921875,0.00034478679299354553,0.0009660366922616959,-0.003444598987698555
1772555861576955000,5.772954833984375,0.0009902333840727806,-0.0007879463955760002,0.00028547458350658417
1772555861586885600,5.7828857421875,-0.0011647962965071201,-0.00005078315734863281,0.0015491442754864693
1772555861596817000,5.79281689453125,-0.0007081548683345318,-0.0010276325047016144,0.001388847827911377
1772555861606749000,5.8027490234375,0.0011536609381437302,-0.0014444170519709587,0.0022096335887908936
1772555861616679700,5.8126796875,0.0005609714426100254,-0.00033753830939531326,0.0018227677792310715
1772555861626610700,5.822610595703125,0.0002728174440562725,-0.0008813561871647835,-0.0021322928369045258
1772555861636542700,5.832542724609375,-0.00010068528354167938,-0.0004288703203201294,0.0001240679994225502
1772555861646473700,5.8424736328125,0.0023398357443511486,-0.0003700144588947296,0.000670282170176506
1772555861656405800,5.85240576171875,-0.0003588837571442127,0.0002867989242076874,0.00033607520163059235
1772555861666336800,5.862336669921875,-0.003050274448469281,0.00041995570063591003,0.0011195763945579529
1772555861676267500,5.872267578125,-0.000015700701624155045,-0.0009465375915169716,0.0008819364011287689
1772555861686199600,5.882199462890625,0.0027614436112344265,0.00009156204760074615,-0.0010544480755925179
1772555861696130800,5.892130859375,-0.0011255382560193539,-0.00238734669983387,-0.0022826772183179855
1772555861706061800,5.902061767578125,0.0003546467050909996,0.00026809051632881165,0.0005240282043814659
1772555861715993600,5.91199365234375,-0.0014323517680168152,0.0008082650601863861,-0.0000662822276353836
1772555861725924600,5.921924560546875,-0.002268318086862564,-0.000831974670290947,-0.0010090414434671402
1772555861735857000,5.93185693359375,0.0004787188954651356,0.00016245804727077484,-0.0012972140684723854
1772555861745787600,5.94178759765625,0.00007152184844017029,-0.0015065446496009827,-0.0007675113156437874
1772555861755718700,5.95171875,-0.00003567291423678398,-0.0003019031137228012,0.001120060682296753
1772555861765650700,5.961650634765625,0.00044103292748332024,0.0010962560772895813,-0.001953492872416973
1772555861775582000,5.97158203125,-0.0018649818375706673,-0.00012934766709804535,-0.002095639705657959
1772555861785513700,5.981513671875,-0.0014143753796815872,0.00020754337310791016,0.00023409444838762283
1772555861795444700,5.99144482421875,-0.0018735160119831562,-0.00003204122185707092,-0.001981627196073532
1772555861805375700,6.001375732421875,0.001021872740238905,0.001272108405828476,0.00029803812503814697
1772555861815307500,6.0113076171875,0.0010317214764654636,0.00004702247679233551,-0.00029407814145088196
1772555861825239000,6.021239013671875,-0.0032354616560041904,-0.00024166516959667206,-0.00034574326127767563
1772555861835170000,6.031170166015625,-0.0003152778372168541,0.000027511268854141235,-0.0009667109698057175
1772555861845101800,6.041101806640625,-0.001124878879636526,0.0004922337830066681,0.0003318469971418381
1772555861855032800,6.05103271484375,-0.0007981765083968639,0.0009305588901042938,0.0012812521308660507
1772555861864964900,6.06096484375,-0.001078074797987938,0.00011536478996276855,0.0002777734771370888
1772555861874896100,6.070896240234375,0.001786534208804369,0.00028568506240844727,0.003067334182560444
1772555861884827000,6.080826904296875,-0.001947217620909214,0.0009235106408596039,-0.0010634949430823326
1772555861894759000,6.090759033203125,0.0016151792369782925,0.0014337189495563507,0.0012059090659022331
1772555861904690000,6.10068994140625,0.0007664295844733715,-0.000032085925340652466,0.0007901890203356743
1772555861914622000,6.1106220703125,0.00004935404285788536,0.00040120817720890045,-0.00030098576098680496
1772555861924553000,6.120552978515625,-0.001986099872738123,-0.00038149580359458923,0.0020545804873108864
1772555861934484000,6.13048388671875,0.0000972268171608448,-0.0000990554690361023,0.0019311551004648209
1772555861944416000,6.140416015625,-0.0002857353538274765,-0.0009030643850564957,-0.001877431757748127
1772555861954347000,6.150346923828125,0.0011517838574945927,0.00022984296083450317,-0.00146511010825634
1772555861964278000,6.160278076171875,0.000838330015540123,-0.0012697819620370865,0.00003638025373220444
1772555861974210000,6.1702099609375,-0.0001910966821014881,-0.00019256025552749634,0.00007016491144895554
1772555861984140800,6.180140869140625,-0.00042145978659391403,-0.00013370439410209656,0.0011447509750723839
1772555861994072800,6.19007275390625,0.0011517074890434742,-0.001115991733968258,0.0006411029025912285
1772555862004004000,6.200004150390625,-0.00048187561333179474,0.0009162668138742447,0.0003337748348712921
1772555862013934800,6.209934814453125,0.0006885654293000698,0.000057056546211242676,-0.00010117329657077789
1772555862023867000,6.219866943359375,0.00014501437544822693,0.0011822432279586792,-0.0018649846315383911
1772555862033798000,6.2297978515625,-0.0015579573810100555,0.0007215756922960281,-0.0012009833008050919
1772555862043729000,6.23972900390625,0.0005632503889501095,0.0011388938874006271,0.00011222157627344131
1772555862053661000,6.249660888671875,-0.00037031713873147964,0.0008050128817558289,-0.0032138489186763763
1772555862063592000,6.259592041015625,-0.0037826253101229668,0.0005826391279697418,-0.0013187434524297714
1772555862073524000,6.26952392578125,0.0008993153460323811,0.0003917347639799118,-0.00045840535312891006
1772555862083454700,6.279454833984375,0.00008864887058734894,0.00016802921891212463,0.00007449276745319366
1772555862093386000,6.289385986328125,0.001891542226076126,-0.0011493014171719551,-0.000232047401368618
1772555862103318000,6.299318115234375,0.0010763490572571754,-0.0010393131524324417,0.00037541985511779785
1772555862113248800,6.309248779296875,-0.0007009669207036495,0.0017847418785095215,-0.0010964283719658852
1772555862123180800,6.319180908203125,-0.0025787618942558765,0.0004917774349451065,-0.004098077304661274
1772555862133112000,6.329112060546875,0.002004927024245262,0.001370362937450409,0.0010639345273375511
1772555862143043000,6.33904296875,0.0015753591433167458,0.0014673024415969849,-0.001878858543932438
1772555862152974800,6.348974853515625,0.001994615886360407,-0.000494588166475296,0.00005779974162578583
1772555862162905900,6.35890576171875,0.002321119885891676,-0.0004618316888809204,0.0021838005632162094
1772555862172837000,6.368837158203125,0.0009755771607160568,-0.00037715863436460495,0.0002896692603826523
1772555862182769000,6.378768798828125,-0.0005014119669795036,-0.0002828827127814293,-0.0008293911814689636
1772555862192700000,6.388699951171875,0.0009094257839024067,-0.00016035698354244232,0.0013002855703234673
1772555862202632000,6.3986318359375,0.0013813376426696777,-0.0006075026467442513,0.000257125124335289
1772555862212563000,6.40856298828125,0.000433565117418766,-0.0011148853227496147,0.0004296712577342987
1772555862222494000,6.418493896484375,-0.00023408932611346245,-0.0011479081586003304,-0.0005865916609764099
1772555862232426000,6.428426025390625,0.0001994175836443901,0.00012134574353694916,-0.0002487804740667343
1772555862242357000,6.43835693359375,-0.001130565069615841,-0.0004320591688156128,0.0004742676392197609
1772555862252289000,6.4482890625,-0.0009999144822359085,-0.00018856488168239594,0.00048723723739385605
1772555862262220000,6.458219970703125,0.0011234241537749767,-0.0003920299932360649,-0.00027096550911664963
1772555862272151000,6.468151123046875,-0.0009084916673600674,0.00010871514678001404,-0.0007728412747383118
1772555862282083000,6.4780830078125,-0.00020967796444892883,0.002754032611846924,-0.0007736403495073318
1772555862292013800,6.488013916015625,0.0020369989797472954,0.0010980702936649323,0.0006842473521828651
1772555862301945000,6.497945068359375,-0.00153003865852952,0.0019529461860656738,-0.00028514396399259567
1772555862311877000,6.507877197265625,-0.00034931721165776253,0.0002599041908979416,0.001873520202934742
1772555862321808000,6.517807861328125,0.0017194258980453014,0.0004623048007488251,0.0025491639971733093
1772555862331740000,6.527739990234375,-0.00031363125890493393,-0.00012511759996414185,0.005096185486763716
1772555862341671000,6.5376708984375,0.002588947769254446,0.0014930181205272675,-0.0016120504587888718
1772555862351602000,6.547601806640625,0.0004090755246579647,-0.00048404838889837265,0.0019919024780392647
1772555862361534000,6.557533935546875,0.002267163246870041,-0.00074024498462677,-0.001124795526266098
1772555862371465000,6.56746484375,0.0005988879129290581,-0.00074045080691576,-0.00029481295496225357
1772555862381397000,6.57739697265625,-0.002236047061160207,0.0025565437972545624,0.0000804271548986435
1772555862391327700,6.58732763671875,-0.0004075723700225353,0.00018017925322055817,-0.0009383754804730415
1772555862401259000,6.597259033203125,-0.0002789413556456566,-0.0033029690384864807,0.0012201163917779922
1772555862411191000,6.60719091796875,-0.0023622014559805393,-0.0004018787294626236,-0.0022926190868020058
1772555862421121800,6.617121826171875,0.001833076123148203,-0.00019841268658638,-0.001019895076751709
1772555862431052800,6.627052734375,-0.0011217733845114708,-0.00015011988580226898,-0.0012330692261457443
1772555862440985000,6.636985107421875,-0.000017094425857067108,-0.00027182698249816895,-0.000292973592877388
1772555862450916000,6.646916015625,0.0006496021524071693,-0.0009524375200271606,-0.00004120636731386185
1772555862460847900,6.656847900390625,0.001009128987789154,0.0005778148770332336,-0.00010112766176462173
1772555862470779000,6.66677880859375,0.0019828444346785545,-0.00122833251953125,0.0013335635885596275
1772555862480710100,6.676710205078125,-0.00016259867697954178,0.0006454680114984512,0.0014033392071723938
1772555862490642000,6.686641845703125,-0.0008476274088025093,-0.0011686794459819794,0.0017391154542565346
1772555862500573000,6.696572998046875,0.0004802248440682888,-0.001324474811553955,0.000041882507503032684
1772555862510505000,6.7065048828125,-0.0007169237360358238,0.0015400946140289307,-0.0010843370109796524
1772555862520436000,6.71643603515625,0.0018570218235254288,0.0004460681229829788,-0.00003744848072528839
1772555862530367000,6.726366943359375,0.0006188703700900078,-0.0004622647538781166,0.001344575546681881
1772555862540299000,6.736299072265625,-0.003299172269180417,-0.0012399079278111458,-0.0015867659822106361
1772555862550230000,6.74622998046875,0.000357059296220541,0.00012348033487796783,0.0006031990051269531
1772555862560160800,6.756160888671875,-0.0016877157613635063,-0.0014653615653514862,0.0017291828989982605
1772555862570092800,6.7660927734375,0.0006127483211457729,0.0008720904588699341,0.0025638816878199577
1772555862580024000,6.776024169921875,-0.0001470516435801983,0.00026622042059898376,-0.0019616279751062393
1772555862589956000,6.7859560546875,-0.00028828252106904984,-0.002336575649678707,0.001875177025794983
1772555862599886800,6.795886962890625,0.0008645998314023018,0.0015407204627990723,0.0008567851036787033
1772555862609817900,6.80581787109375,0.001546214334666729,-0.0018488578498363495,0.00018907338380813599
1772555862619750100,6.815750244140625,-0.0009853867813944817,-0.0010568341240286827,-0.001676204614341259
1772555862629681000,6.825680908203125,0.0004418059252202511,0.0004118252545595169,-0.0022096335887908936
1772555862639612000,6.83561181640625,-0.002180874813348055,-0.000947984866797924,-0.00010973121970891953
1772555862649544000,6.8455439453125,-0.0008942484855651855,0.0017727557569742203,-0.0006615668535232544
1772555862659475000,6.855474853515625,0.0022914251312613487,0.0007042959332466125,-0.0006378646939992905
1772555862669407000,6.865406982421875,0.0022105323150753975,0.0005892794579267502,0.0020340895280241966
1772555862679338000,6.875337890625,-0.0010100281797349453,-0.00013936124742031097,-0.001255180686712265
1772555862689268700,6.885268798828125,-0.0022255040239542723,0.0008276477456092834,-0.0018411176279187202
1772555862699200800,6.89520068359375,-0.00021455110982060432,-0.00022909604012966156,0.002103290520608425
1772555862709132000,6.905132080078125,0.0005405466072261333,-0.0007160985842347145,-0.0011547347530722618
1772555862719064000,6.91506396484375,-0.0002767774276435375,0.0004335884004831314,0.0016269376501441002
1772555862728994800,6.924994873046875,0.00018251128494739532,-0.0014658058062195778,-0.0012591397389769554
1772555862738925800,6.93492578125,0.0004767905920743942,0.0010799095034599304,-0.0026024384424090385
1772555862748857900,6.94485791015625,-0.003052311483770609,0.002096012234687805,0.000767008401453495
1772555862758788900,6.954788818359375,0.0005922242999076843,-0.0008446509018540382,0.0016439873725175858
1772555862768720000,6.964719970703125,-0.0006146770901978016,-0.0008841957896947861,0.0008833194151520729
1772555862778652000,6.97465185546875,0.000525954645127058,-0.0006208084523677826,0.00020581111311912537
1772555862788583200,6.984583251953125,0.0022805817425251007,-0.00019258446991443634,-0.00037889741361141205
1772555862798515000,6.994514892578125,-0.0005543529987335205,0.001842336729168892,-0.0017839819192886353
1772555862808446000,7.004446044921875,-0.0007183137349784374,0.000003203749656677246,-0.0012561660259962082
1772555862818377000,7.014376953125,-0.00014253798872232437,0.0003174562007188797,-0.0012380564585328102
1772555862828308500,7.02430859375,0.00040067220106720924,-0.0007016612216830254,0.0013645989820361137
1772555862838239700,7.03423974609375,-0.0000986703671514988,-0.0012398865073919296,-0.0013334490358829498
1772555862848170800,7.044170654296875,0.00035771867260336876,-0.0015406766906380653,0.001305699348449707
1772555862858102800,7.054102783203125,-0.0009698672220110893,-0.002460532821714878,0.0008479021489620209
1772555862868033500,7.064033447265625,0.003877605777233839,-0.0005388287827372551,-0.001103716902434826
1772555862877965600,7.073965576171875,-0.0016388660296797752,-0.0008301790803670883,0.0009293397888541222
1772555862887896800,7.083896728515625,0.0011323378421366215,-0.000750967301428318,0.000005591660737991333
1772555862897827600,7.09382763671875,0.001760310959070921,-0.00019649788737297058,-0.00014860555529594421
1772555862907759600,7.103759521484375,-0.002219183137640357,-0.0007012458518147469,-0.0015200329944491386
1772555862917691000,7.11369091796875,0.00037553440779447556,-0.0025268429890275,0.0017620474100112915
1772555862927623000,7.123622802734375,-0.0004388163797557354,0.00022615119814872742,0.00012864172458648682
1772555862937553700,7.1335537109375,-0.0011208518408238888,0.0006322823464870453,-0.0011054668575525284
1772555862947484700,7.143484619140625,-0.001871760468930006,-0.0003621019423007965,0.0012900661677122116
1772555862957416700,7.153416748046875,0.0017682481557130814,-0.0014247028157114983,-0.001469501294195652
1772555862967347700,7.16334765625,0.0007978626526892185,0.000534791499376297,-0.0012505650520324707
1772555862977278700,7.17327880859375,-0.0010695457458496094,-0.0016418099403381348,0.002539645880460739
1772555862987210800,7.183210693359375,0.0008168783970177174,-0.00024016015231609344,-0.0001311618834733963
1772555862997141500,7.1931416015625,0.0008680112659931183,0.0010408200323581696,0.0012550130486488342
1772555863007073500,7.203073486328125,-0.0029767362866550684,0.0022849664092063904,-0.0021248245611786842
1772555863017004800,7.2130048828125,0.0009109461680054665,0.0005874671041965485,0.0013692434877157211
1772555863026935600,7.222935546875,0.0005263318307697773,0.0003886297345161438,-0.0005335109308362007
1772555863036867600,7.23286767578125,0.0013116984628140926,0.0006653331220149994,0.0005354816094040871
1772555863046798600,7.242798583984375,0.0012489245273172855,-0.0014847349375486374,0.002025248482823372
1772555863056730600,7.252730712890625,0.0004411875270307064,0.001474570482969284,-0.000471998006105423
1772555863066661600,7.26266162109375,0.0005895989015698433,-0.0006819572299718857,-0.00013069622218608856
1772555863076592600,7.272592529296875,-0.0021787569858133793,-0.000599931925535202,-0.0021048979833722115
1772555863086524700,7.282524658203125,-0.0009573912248015404,-0.0009924154728651047,-0.0005892617627978325
1772555863096455700,7.29245556640625,-0.0019984208047389984,-0.0000033173710107803345,0.00024723727256059647
1772555863106386700,7.30238671875,0.00021851994097232819,0.0011643767356872559,-0.0004209643229842186
1772555863116318700,7.312318603515625,-0.00162145821377635,-0.0002708006650209427,-0.00015065353363752365
1772555863126249700,7.322249755859375,-0.0005707545205950737,-0.0014176750555634499,-0.0009599858894944191
1772555863136181500,7.332181396484375,-0.0011340128257870674,-0.00023443251848220825,-0.0025208638980984688
1772555863146112800,7.34211279296875,-0.0001282799057662487,0.00013801641762256622,-0.0006874194368720055
1772555863156043800,7.352043701171875,-0.00007794611155986786,0.0015644058585166931,-0.0000605117529630661
1772555863165975800,7.361975830078125,0.00013650860637426376,0.00040733255445957184,0.001632331870496273
1772555863175906600,7.371906494140625,0.001620954368263483,0.000056860968470573425,-0.00000737607479095459
1772555863185837800,7.381837890625,0.0029934472404420376,-0.0018479470163583755,-0.001753821037709713
1772555863195769900,7.391769775390625,-0.0015746727585792542,0.0016578380018472672,-0.0016132062301039696
1772555863205700600,7.40170068359375,0.0008370555005967617,-0.0009173918515443802,-0.0020419880747795105
1772555863215632600,7.411632568359375,0.0003033578395843506,0.0011351071298122406,0.0007415469735860825
1772555863225563600,7.421563720703125,-0.001270681619644165,0.0015088096261024475,0.0008010966703295708
1772555863235494700,7.43149462890625,-0.003204136621206999,-0.0008510174229741096,-0.0005049174651503563
1772555863245426700,7.4414267578125,-0.000016119331121444702,-0.00012041442096233368,0.0015570735558867455
1772555863255357700,7.451357666015625,-0.00013090157881379128,-0.0009894035756587982,0.0003701029345393181
1772555863265289700,7.461289794921875,-0.0019135987386107445,0.0008358713239431381,-0.0006291475147008896
1772555863275220700,7.471220703125,0.0003865733742713928,-0.0013431273400783539,0.0004401113837957382
1772555863285151700,7.48115185546875,0.000479899812489748,0.0005990341305732727,0.00013897567987442017
1772555863295083800,7.491083740234375,-0.0010455590672791004,0.00007865391671657562,0.0017469925805926323
1772555863305014500,7.5010146484375,-0.000195222906768322,0.0005966853350400925,-0.0007910411804914474
1772555863314945800,7.51094580078125,0.0007065236568450928,-0.00003847852349281311,-0.0001777149736881256
1772555863324877800,7.5208779296875,0.0008063260465860367,0.0009946785867214203,0.0007884176447987556
1772555863334808600,7.53080859375,0.0013429527170956135,0.0001680329442024231,-0.0009833825752139091
1772555863344740600,7.54074072265625,0.0001480276696383953,0.0007993262261152267,0.000028201378881931305
1772555863354671600,7.550671630859375,-0.0005848738364875317,0.0008603110909461975,-0.0005377205088734627
1772555863364603000,7.560602783203125,0.0008372138254344463,0.0010623186826705933,-0.0010834075510501862
1772555863374534700,7.57053466796875,-0.00024269800633192062,0.0010143816471099854,-0.0005286708474159241
1772555863384465700,7.580465576171875,-0.0007358333095908165,0.001282133162021637,0.00013973098248243332
1772555863394396700,7.590396728515625,-0.0009259828366339207,0.000014467164874076843,-0.001792391762137413
1772555863404328700,7.60032861328125,0.00032298872247338295,0.000589326024055481,-0.0019702818244695663
1772555863414259700,7.610259765625,0.0001626666635274887,0.0014790873974561691,-0.001811557449400425
1772555863424191700,7.620191650390625,0.0004019816406071186,0.0008770991116762161,0.00024186260998249054
1772555863434122800,7.630122802734375,0.00001928536221385002,-0.0003471560776233673,0.001707133837044239
1772555863444053800,7.6400537109375,0.0017261938191950321,0.0005618873983621597,-0.0010901549831032753
1772555863453985800,7.64998583984375,-0.0012839771807193756,0.000638054683804512,-0.00027815718203783035
1772555863463916800,7.659916748046875,0.0020199446007609367,0.0003557242453098297,0.0019339146092534065
1772555863473847600,7.66984765625,0.000966132152825594,-0.001421402208507061,0.001268124207854271
1772555863483779600,7.679779541015625,0.0001156143844127655,0.0035828500986099243,0.0005283132195472717
1772555863493710800,7.6897109375,0.0014501241967082024,0.00038599222898483276,0.0034655132330954075
1772555863503643000,7.699642822265625,-0.0009548678062856197,0.001268601045012474,0.0004686405882239342
1772555863513573600,7.70957373046875,-0.0005199736915528774,0.000035824254155158997,-0.0007460275664925575
1772555863523504600,7.719504638671875,0.00024610431864857674,0.000013906508684158325,0.0020299311727285385
1772555863533436700,7.729436767578125,0.0020125792361795902,0.0002834182232618332,0.0013132747262716293
1772555863543367700,7.73936767578125,0.0014430712908506393,0.0007913187146186829,0.00140464399009943
1772555863553299700,7.7492998046875,-0.0009750793687999249,0.0006272681057453156,0.0007447125390172005
1772555863563230700,7.759230712890625,-0.00031191203743219376,0.0007888320833444595,0.0008708415552973747
1772555863573161700,7.76916162109375,0.0001834360882639885,0.001224791631102562,0.0019275834783911705
1772555863583093800,7.77909375,0.0003983103670179844,-0.00034342706203460693,0.0001491587609052658
1772555863593024800,7.789024658203125,-0.0010512485168874264,0.0010989420115947723,0.0008817939087748528
1772555863602955500,7.79895556640625,0.002380513120442629,0.0005947239696979523,-0.0006522862240672112
1772555863612887600,7.808887451171875,-0.0004618787206709385,-0.0013387305662035942,0.003975489176809788
1772555863622818800,7.81881884765625,0.00039383070543408394,0.00045517459511756897,0.0015719756484031677
1772555863632750800,7.828750732421875,-0.00002588331699371338,-0.0025392835959792137,0.00041536521166563034
1772555863642681600,7.838681640625,-0.00036063743755221367,0.0011321287602186203,0.0010211169719696045
1772555863652612600,7.848612548828125,-0.0017936844378709793,0.00022771954536437988,-0.0002127261832356453
1772555863662544600,7.858544677734375,-0.00007003266364336014,0.0013059228658676147,-0.0007422249764204025
1772555863672475600,7.8684755859375,-0.0014295759610831738,-0.0008554980158805847,0.0028248131275177
1772555863682406700,7.87840673828125,0.0008212421089410782,-0.0010830871760845184,-0.000979812815785408
1772555863692338700,7.888338623046875,0.0013232477940618992,-0.00041916128247976303,0.0020335540175437927
1772555863702269700,7.898269775390625,-0.0015791752375662327,0.0003874674439430237,-0.0006949780508875847
1772555863712201500,7.908201416015625,-0.00034080538898706436,0.00036616250872612,0.0007375366985797882
1772555863722132700,7.9181328125,0.0013682194985449314,0.0007611624896526337,0.001089712604880333
1772555863732063700,7.928063720703125,-0.0008544544689357281,0.0021478701382875443,-0.0012035360559821129
1772555863741995500,7.93799560546875,0.000042531173676252365,0.0012749023735523224,0.0009749289602041245
1772555863751926800,7.9479267578125,-0.0000070035457611083984,0.00012334994971752167,0.0007229940965771675
1772555863761858800,7.95785888671875,-0.0020717582665383816,0.0006356164813041687,-0.0005143294110894203
1772555863771789800,7.967789794921875,-0.0006709354929625988,0.002189571037888527,-0.0020427173003554344
1772555863781720600,7.977720458984375,-0.000018444843590259552,0.0005287975072860718,0.00013998150825500488
1772555863791652600,7.987652587890625,-0.0004565347917377949,0.00012665987014770508,-0.00022087618708610535
1772555863801583900,7.997583984375,-0.00014874106273055077,0.0010712016373872757,0.002042899839580059
1772555863811514600,8.0075146484375,0.002506962977349758,0.0009870454668998718,0.0005139792338013649
1772555863821446700,8.01744677734375,0.0002144300378859043,-0.001372271217405796,-0.0009103985503315926
1772555863831377700,8.027377685546876,-0.00016160821542143822,-0.0007272530347108841,0.002553042024374008
1772555863841309700,8.037309814453126,0.0001903553493320942,0.0010971464216709137,0.0016625961288809776
1772555863851240700,8.04724072265625,-0.0004570586606860161,-0.0013428423553705215,-0.0012604892253875732
1772555863861171700,8.057171630859376,-0.0007825870998203754,0.0006433483213186264,-0.0006675366312265396
1772555863871103700,8.067103759765626,-0.002785018179565668,0.00018368661403656006,-0.0014694146811962128
1772555863881034500,8.077034423828126,-0.0018669944256544113,-0.0014160899445414543,0.0007225796580314636
1772555863890965800,8.0869658203125,0.0006398390978574753,-0.00150956679135561,0.00012336857616901398
1772555863900897800,8.096897705078124,0.00017471471801400185,-0.0006050523370504379,-0.0009146276861429214
1772555863910828500,8.10682861328125,-0.00038641318678855896,0.0001550130546092987,0.0020329589024186134
1772555863920760600,8.116760498046874,0.0008153771050274372,0.00038776174187660217,0.0008324161171913147
1772555863930691800,8.12669189453125,-0.0002671978436410427,-0.0013992181047797203,0.0008103111758828163
1772555863940622800,8.136622802734376,-0.0007561459206044674,-0.0016119005158543587,0.0007747486233711243
1772555863950554600,8.1465546875,0.0014534788206219673,0.0007258225232362747,-0.0029733842238783836
1772555863960485600,8.156485595703124,0.000896926037967205,-0.0006332099437713623,-0.0014108214527368546
1772555863970417700,8.166417724609374,0.0020442157983779907,-0.000271553173661232,-0.00018470175564289093
1772555863980348700,8.1763486328125,-0.0030660780612379313,-0.00028636492788791656,-0.0028042346239089966
1772555863990279700,8.18627978515625,-0.0017731133848428726,0.00107637420296669,0.0017803972586989403
1772555864000211700,8.196211669921874,0.001458113081753254,-0.0005886638537049294,0.0005711205303668976
1772555864010142700,8.206142822265624,0.0008751470595598221,0.0007253400981426239,0.0019085602834820747
1772555864020073700,8.21607373046875,0.000555975828319788,0.00025347061455249786,-0.00012380629777908325
1772555864030005800,8.226005859375,-0.0017916006036102772,-0.0009372290223836899,-0.0008058417588472366
1772555864039936800,8.235936767578124,0.0005911118350923061,-0.0015033707022666931,0.0007948735728859901
1772555864049868500,8.24586865234375,-0.00042808009311556816,0.0001291465014219284,-0.0009974343702197075
1772555864059799600,8.255799560546874,0.00022701313719153404,0.00009951740503311157,-0.00036324094980955124
1772555864069730800,8.265730712890624,-0.0016196230426430702,0.0013543982058763504,0.0003355722874403
1772555864079662800,8.275662841796875,0.0018911892548203468,0.0021531637758016586,-0.00009296182543039322
1772555864089593600,8.285593505859374,0.00006639119237661362,0.002046104520559311,0.0009512640535831451
1772555864099524900,8.29552490234375,0.0005518519319593906,0.0006111990660429001,0.00024622026830911636
1772555864109457000,8.305456787109375,-0.0000798497349023819,-0.00146553386002779,0.0002869674935936928
1772555864119387600,8.3153876953125,-0.00015977676957845688,0.0008340459316968918,-0.00021490547806024551
1772555864129319700,8.325319580078125,0.0006753904744982719,0.0006228573620319366,-0.003042117692530155
1772555864139250700,8.335250732421875,-0.00032296963036060333,-0.0008439132943749428,-0.00004428252577781677
1772555864149181700,8.345181640625,-0.0018460312858223915,-0.001333402469754219,-0.00006132666021585464
1772555864159113700,8.35511376953125,0.0011242423206567764,0.001430479809641838,0.0023597944527864456
1772555864169044700,8.365044677734375,0.0005420753732323647,0.00019983388483524323,0.0009523136541247368
1772555864178976800,8.374976806640625,0.0027461256831884384,-0.001154981553554535,0.000039616599678993225
1772555864188907500,8.384907470703125,-0.0009450158104300499,0.0007470473647117615,0.00041245855391025543
1772555864198838800,8.3948388671875,-0.0002584303729236126,-0.0013583460822701454,0.0016703121364116669
1772555864208770800,8.404770751953125,0.0021019289270043373,-0.0003753742203116417,0.0001584356650710106
1772555864218701600,8.41470166015625,-0.002066030167043209,-0.0021998323500156403,0.0005357107147574425
1772555864228632600,8.424632568359375,0.0012775687500834465,-0.0012573394924402237,0.0008475668728351593
1772555864238564600,8.434564697265625,0.0011393181048333645,2.514570951461792e-7,0.0024771150201559067
1772555864248495600,8.44449560546875,-0.0009336862713098526,-0.0000351686030626297,0.0015681777149438858
1772555864258427600,8.454427734375,0.0003005196340382099,-0.0002960842102766037,0.0013522394001483917
1772555864268358700,8.464358642578125,-0.0006771264597773552,0.00006104446947574615,-0.0001937253400683403
1772555864278290000,8.4742900390625,0.0006028120405972004,-0.0003791777417063713,-0.0011795805767178535
1772555864288221700,8.4842216796875,-0.0003889491781592369,-0.0012281937524676323,-0.0012059463188052177
1772555864298152700,8.494152587890625,-0.003055860986933112,-0.0024135829880833626,-0.0013144426047801971
1772555864308083700,8.504083740234375,-0.00008137663826346397,0.0009803492575883865,0.002771912142634392
1772555864318015500,8.514015380859375,0.0018199337646365166,0.0010170936584472656,0.001353258267045021
1772555864327946800,8.52394677734375,-0.00142299709841609,-0.0007951874285936356,-0.0009035039693117142
1772555864337878800,8.533878662109375,0.00037624407559633255,-0.0005137445405125618,-0.002133021131157875
1772555864347809800,8.543809814453125,-0.0017782533541321754,-0.0013369275256991386,0.0005410583689808846
1772555864357740500,8.553740478515625,0.0012671933509409428,-0.001297484152019024,0.002075880765914917
1772555864367672600,8.563672607421875,-0.0004055383615195751,0.0009749904274940491,-0.0019899681210517883
1772555864377603800,8.573603759765625,-0.00086259376257658,0.0007068291306495667,0.0008625974878668785
1772555864387534600,8.58353466796875,-0.0008008084259927273,-0.001109180971980095,-0.00012277252972126007
1772555864397466600,8.593466552734375,-0.0003070347011089325,0.000525154173374176,-0.0010471437126398087
1772555864407397600,8.603397705078125,-0.0005762805230915546,0.0003983881324529648,-0.0009736400097608566
1772555864417329700,8.61332958984375,0.00018911249935626984,-0.000818316824734211,0.001972622238099575
1772555864427260700,8.6232607421875,-0.001740880310535431,0.007390877231955528,0.002556387335062027
1772555864437191700,8.633191650390625,0.0020607970654964447,0.01890224777162075,0.0055821966379880905
1772555864447123700,8.643123779296875,0.000602716114372015,0.01486995629966259,0.003850609064102173
1772555864457054700,8.6530546875,-0.0009712823666632175,0.011236071586608887,0.003979532979428768
1772555864466986800,8.66298681640625,-0.000869283452630043,0.01324622705578804,0.004927884787321091
1772555864476917800,8.672917724609375,0.00040708016604185104,0.017978057265281677,0.004618355538696051
1772555864486848500,8.6828486328125,-0.002991379937157035,0.02238824963569641,0.006182163488119841
1772555864496780500,8.692780517578125,0.0002342788502573967,0.007022863253951073,-0.000304296612739563
1772555864506711800,8.7027119140625,-0.0011646798811852932,-0.0066844262182712555,-0.0003184117376804352
1772555864516642800,8.712642822265625,0.00012436462566256523,-0.0187852643430233,-0.005389025434851646
1772555864526574600,8.72257470703125,0.0019004270434379578,-0.04827018827199936,-0.013009928166866302
1772555864536505600,8.732505615234375,0.0027510621584951878,-0.04291153699159622,-0.009209933690726757
1772555864546437600,8.742437744140625,0.002952663693577051,0.003588322550058365,0.0023148953914642334
1772555864556368600,8.75236865234375,-0.0012447582557797432,0.021740663796663284,0.0025538550689816475
1772555864566299600,8.762299560546875,0.0006676577031612396,-0.019943132996559143,-0.00459433626383543
