time,seconds_elapsed,z,y,x
1772555549049015300,0.068015380859375,-0.32326850295066833,0.12011726200580597,-0.1135886162519455
1772555549058947300,0.077947265625,-0.4768010675907135,0.20547157526016235,0.06596330553293228
1772555549068879400,0.08787939453125,-0.5207926630973816,0.2259988933801651,0.21106213331222534
1772555549078811400,0.097811279296875,-0.575520396232605,0.3461199700832367,0.15856963396072388
1772555549088742400,0.107742431640625,-0.6150738000869751,0.35328471660614014,0.06960076093673706
1772555549098674200,0.117674072265625,-0.6445283889770508,0.33805808424949646,0.031104769557714462
1772555549108606500,0.1276064453125,-0.6703433990478516,0.35693907737731934,0.030025741085410118
1772555549118537500,0.137537353515625,-0.6963768601417542,0.39266112446784973,0.04308241978287697
1772555549128469500,0.147469482421875,-0.6963072419166565,0.4285203516483307,0.08479949831962585
1772555549138401500,0.157401611328125,-0.6599396467208862,0.4481568932533264,0.15660445392131805
1772555549148332300,0.167332275390625,-0.7141525745391846,0.40774497389793396,0.0928121954202652
1772555549158264300,0.177264404296875,-0.767327070236206,0.12418252229690552,-0.07714701443910599
1772555549168196400,0.1871962890625,-0.8065374493598938,-0.2558908760547638,-0.2209618240594864
1772555549178128400,0.19712841796875,-0.8095406889915466,-0.6057945489883423,-0.2617039084434509
1772555549188059400,0.207059326171875,-0.8045421242713928,-0.775359034538269,-0.1983449012041092
1772555549197991400,0.216991455078125,-0.7947582006454468,-0.7075501680374146,-0.0625590980052948
1772555549207923500,0.22692333984375,-0.7650190591812134,-0.41641056537628174,0.0902581438422203
1772555549217854500,0.2368544921875,-0.7222819328308105,0.022382767871022224,0.2524883449077606
1772555549227786200,0.2467861328125,-0.671596109867096,0.48164603114128113,0.42195984721183777
1772555549237718300,0.25671826171875,-0.5973082780838013,0.9005956649780273,0.6054654717445374
1772555549247650300,0.266650390625,-0.5313429236412048,1.2487223148345947,0.7909841537475586
1772555549257581600,0.27658154296875,-0.4746916890144348,1.5098918676376343,0.9560186266899109
1772555549267513600,0.286513671875,-0.4290350079536438,1.6743072271347046,1.0845485925674438
1772555549277445400,0.2964453125,-0.38762366771698,1.732041358947754,1.2070775032043457
1772555549287376400,0.30637646484375,-0.34705108404159546,1.6510189771652222,1.3398176431655884
1772555549297308400,0.316308349609375,-0.3050687313079834,1.3694536685943604,1.48240065574646
1772555549307240400,0.326240478515625,-0.26105454564094543,0.8185893297195435,1.6315538883209229
1772555549317172200,0.336172119140625,-0.2335779219865799,0.11226494610309601,1.7158602476119995
1772555549327103500,0.346103515625,-0.25187650322914124,-0.42343762516975403,1.726560354232788
1772555549337035500,0.356035400390625,-0.29545700550079346,-0.07230302691459656,1.809081792831421
1772555549346967600,0.365967529296875,-0.3357749879360199,0.7104284763336182,2.048818826675415
1772555549356898300,0.375898193359375,-0.3412616550922394,-0.6846023797988892,1.715519905090332
1772555549366830300,0.385830322265625,-0.4047152101993561,-0.39411354064941406,-0.022635383531451225
1772555549376762400,0.395762451171875,-0.19034992158412933,-0.7526692748069763,-0.6806535124778748
1772555549386693400,0.405693359375,0.17335070669651031,-0.19468069076538086,-0.3755218982696533
1772555549396625400,0.41562548828125,0.33122745156288147,0.28484275937080383,0.32172828912734985
1772555549406557400,0.425557373046875,0.11677026748657227,-0.6802635192871094,0.2065829634666443
1772555549416489500,0.435489501953125,0.04863222315907478,-0.8060629963874817,-0.18339356780052185
1772555549426420500,0.44542041015625,0.11433235555887222,-1.7456603050231934,-0.1844453513622284
1772555549436352500,0.4553525390625,0.21281418204307556,-1.8131732940673828,0.20697034895420074
1772555549446284300,0.4652841796875,0.20652073621749878,-1.1207705736160278,-0.24100340902805328
1772555549456215300,0.47521533203125,0.08376685529947281,-0.043022871017456055,0.12198198586702347
1772555549466147300,0.485147216796875,0.03476168215274811,0.21203607320785522,-0.11300887912511826
1772555549476079400,0.495079345703125,-0.020186254754662514,0.606340229511261,0.037359051406383514
1772555549486011400,0.505011474609375,-0.06314250826835632,0.48017457127571106,-0.020689604803919792
1772555549495942400,0.5149423828125,-0.017628556117415428,0.2337682694196701,-0.011229258030653
1772555549505874400,0.52487451171875,-0.0007731840014457703,-0.2814789414405823,0.02171386405825615
1772555549515806500,0.534806396484375,0.03364763781428337,-1.0397496223449707,-0.0006319209933280945
1772555549525737700,0.54473779296875,0.07367029041051865,-2.0858750343322754,0.03791550546884537
1772555549535669800,0.554669677734375,0.22278013825416565,-1.6313354969024658,-0.2247784435749054
1772555549545601800,0.564601806640625,0.2889222502708435,0.22215308248996735,0.11672813445329666
1772555549555533800,0.574533935546875,0.18372368812561035,0.20496423542499542,-0.11438816785812378
1772555549565464800,0.58446484375,0.2970469295978546,-0.11864422261714935,-0.024727677926421165
1772555549575396900,0.59439697265625,0.3696476221084595,-0.389238178730011,-0.08584562689065933
1772555549585329000,0.604328857421875,0.3988076150417328,-0.44816625118255615,-0.06648425757884979
1772555549595260000,0.614260009765625,0.42053526639938354,-0.360718697309494,-0.05864284560084343
1772555549605191700,0.624191650390625,0.3880774974822998,-0.3333323299884796,-0.03575791418552399
1772555549615123700,0.634123779296875,0.35286250710487366,-0.48232290148735046,-0.06797390431165695
1772555549625054700,0.6440546875,0.3170461356639862,-0.5814062356948853,-0.03785165771842003
1772555549634986800,0.65398681640625,0.27413779497146606,-0.633429229259491,-0.031807348132133484
1772555549644919000,0.6639189453125,0.1966235190629959,-0.7460343241691589,-0.0088825523853302
1772555549654850800,0.673850830078125,0.112577885389328,-0.9424222111701965,-0.003574073314666748
1772555549664781800,0.68378173828125,0.025955917313694954,-1.3131945133209229,0.030300650745630264
1772555549674713900,0.6937138671875,0.003106528427451849,-1.9605581760406494,0.04235411435365677
1772555549684646000,0.70364599609375,0.020595870912075043,-3.029465913772583,0.04565586522221565
1772555549694576600,0.71357666015625,0.03224480524659157,-3.5555615425109863,0.15228085219860077
1772555549704508700,0.7235087890625,0.01639854535460472,-4.117630958557129,0.03153331205248833
1772555549714440700,0.733440673828125,0.09106665849685669,-4.7968363761901855,-0.018798038363456726
1772555549724372700,0.743372802734375,0.07160209864377975,0.5632390379905701,0.19919010996818542
1772555549734303700,0.7533037109375,-0.06504123657941818,1.3062385320663452,-0.14649006724357605
1772555549744235800,0.76323583984375,-0.008449198678135872,0.4066801965236664,-0.16985154151916504
1772555549754167800,0.773167724609375,0.025027800351381302,-0.5058971643447876,0.1667799949645996
1772555549764098800,0.783098876953125,-0.018588386476039886,-0.1812615990638733,0.025866826996207237
1772555549774030800,0.79303076171875,-0.007703247480094433,0.07561840116977692,-0.0021437685936689377
1772555549783962600,0.802962646484375,0.0021749273873865604,0.0574292317032814,0.023852184414863586
1772555549793894000,0.812893798828125,0.00337787764146924,-0.20094481110572815,0.016062704846262932
1772555549803826000,0.822825927734375,0.005214163102209568,-0.16585814952850342,-0.00422783475369215
1772555549813758000,0.832758056640625,0.0043270643800497055,-0.12298738956451416,-0.00419800728559494
1772555549823689700,0.842689697265625,0.0026903850957751274,-0.06258739531040192,0.00337403966113925
1772555549833620700,0.852620849609375,-0.00027957186102867126,0.010138476267457008,-0.0008286945521831512
1772555549843552800,0.862552734375,-0.004598136059939861,-0.1844545304775238,0.011189919896423817
1772555549853484800,0.87248486328125,0.003927174955606461,-0.29436585307121277,-0.003550676628947258
1772555549863415800,0.882415771484375,0.00046600401401519775,0.034042853862047195,0.0018112193793058395
1772555549873347800,0.892347900390625,-0.002541503868997097,0.17036128044128418,0.012775719165802002
1772555549883280000,0.90227978515625,-0.00042336108162999153,-0.003908587619662285,-0.0010713506489992142
1772555549893212000,0.9122119140625,0.00019475864246487617,-0.12652558088302612,-0.0047563668340444565
1772555549903143000,0.922142822265625,0.000765098724514246,-0.004407820291817188,0.004555031657218933
1772555549913074700,0.93207470703125,-0.00023411912843585014,0.0849207267165184,0.0022165095433592796
1772555549923006700,0.9420068359375,-0.0011924547143280506,-0.010245139710605145,0.002502763643860817
1772555549932938000,0.95193798828125,-0.0009572976268827915,-0.049986161291599274,-0.0016464414075016975
1772555549942870000,0.9618701171875,-0.0010677105747163296,0.005398957058787346,-0.0024865902960300446
1772555549952801800,0.9718017578125,0.00013976683840155602,0.03040071204304695,0.0028125671669840813
1772555549962732800,0.98173291015625,8.800998330116272e-8,-0.004008329473435879,-0.004443783313035965
1772555549972664800,0.991664794921875,-0.00015783729031682014,-0.02924923598766327,0.0020641833543777466
1772555549982596900,1.001596923828125,0.0002260534092783928,0.012079497799277306,-0.0015488909557461739
1772555549992529000,1.01152880859375,0.0004087458364665508,0.013958090916275978,-0.0010119983926415443
1772555550002459600,1.021459716796875,0.0011090836487710476,-0.013051813468337059,0.0034461375325918198
1772555550012391700,1.0313916015625,-0.0005926764570176601,-0.0017815819010138512,-0.0031624967232346535
1772555550022324000,1.041323974609375,-0.000281257089227438,0.0016175806522369385,0.0014734873548150063
1772555550032254700,1.051254638671875,-0.0017305496148765087,0.00632471963763237,0.00007000192999839783
1772555550042186800,1.061186767578125,-0.0023577455431222916,-0.004068579524755478,-0.0030463868752121925
1772555550052118800,1.071118896484375,-0.0006437352858483791,-0.0063964491710066795,0.0005534077063202858
1772555550062050800,1.08105078125,0.0016174153424799442,0.00819721631705761,-0.00021320302039384842
1772555550071981800,1.09098193359375,0.0009124763309955597,-0.0009062662720680237,0.0018198536708950996
1772555550081913600,1.10091357421875,-0.0010561216622591019,0.0014689937233924866,-0.00029431190341711044
1772555550091845600,1.110845703125,-0.00015410920605063438,0.00025619007647037506,-0.0010250834748148918
1772555550101777000,1.12077685546875,0.00033763982355594635,-0.0015665404498577118,0.0015393104404211044
1772555550111709000,1.130708984375,-0.0014027361758053303,0.003988547250628471,-0.0018476983532309532
1772555550121641000,1.140640869140625,0.00007329694926738739,-0.0028199339285492897,0.0006184671074151993
1772555550131571700,1.15057177734375,-0.0012489622458815575,0.0023002605885267258,-0.0010497374460101128
1772555550141503700,1.160503662109375,0.00004101870581507683,0.0025401320308446884,-0.0018244897946715355
1772555550151435800,1.170435791015625,0.0001771063543856144,-0.0026394492015242577,0.0032509625889360905
1772555550161367800,1.180367919921875,0.00022917520254850388,0.005240375176072121,0.0006761839613318443
1772555550171298800,1.190298828125,0.0001327688805758953,-0.0016361735761165619,-0.0016697943210601807
1772555550181230800,1.20023095703125,-0.0006882371380925179,0.0009196139872074127,0.001804674044251442
1772555550191163000,1.210162841796875,-0.001184650231152773,0.0006524994969367981,-0.00019243080168962479
1772555550201094000,1.220093994140625,-0.0001923292875289917,-0.0009393654763698578,0.0006532762199640274
1772555550211025700,1.230025634765625,-0.0008163079619407654,0.004091078415513039,0.0018229372799396515
1772555550220957700,1.239957763671875,-0.00036748824641108513,-0.0036186473444104195,-0.0017289239913225174
1772555550230889000,1.249888916015625,0.000899377278983593,0.0011862274259328842,-0.0006428873166441917
1772555550240821000,1.259821044921875,-0.002094070892781019,0.0002646949142217636,-0.0005118986591696739
1772555550250753000,1.2697529296875,0.00016908347606658936,-0.004407553933560848,0.000859629362821579
1772555550260684800,1.279684814453125,-0.0019818912260234356,0.002481715753674507,-0.001514345407485962
1772555550270615800,1.28961572265625,-0.0006058360449969769,-0.0006440356373786926,0.0014087408781051636
1772555550280547800,1.2995478515625,0.0026310672983527184,0.0014054346829652786,0.00045448727905750275
1772555550290479900,1.30947998046875,-0.0009330408647656441,0.002344200387597084,-0.0032262681052088737
1772555550300410600,1.31941064453125,0.00013764575123786926,-0.003427433781325817,0.0016020908951759338
1772555550310343000,1.329343017578125,-0.0003025750629603863,0.0035061053931713104,-0.001405150629580021
1772555550320275000,1.33927490234375,0.00001306505873799324,-0.0035362793132662773,0.0007531149312853813
1772555550330207000,1.34920703125,0.0007598153315484524,-0.004320845939218998,0.0000058319419622421265
1772555550340137700,1.3591376953125,0.001032431609928608,0.0018866080790758133,-0.0006193351000547409
1772555550350069800,1.36906982421875,0.0012742462567985058,-0.0013701720163226128,-0.001199638471007347
1772555550360001800,1.379001708984375,0.0009504281915724277,0.0011396370828151703,-0.00044413935393095016
1772555550369932800,1.388932861328125,-0.0013204491697251797,-0.0012188581749796867,-0.0021565519273281097
1772555550379864800,1.39886474609375,0.0011057504452764988,-0.0005741678178310394,-0.001622355543076992
1772555550389796600,1.408796630859375,-0.0005062608979642391,0.0031318869441747665,0.0007843431085348129
1772555550399727900,1.418727783203125,-0.0015861070714890957,-0.002570006065070629,-0.00013900455087423325
1772555550409660000,1.428659912109375,-0.00027529895305633545,0.0006404351443052292,-0.0018373019993305206
1772555550419592000,1.438592041015625,-0.0011047329753637314,-0.0015831785276532173,-0.0010047340765595436
1772555550429523700,1.448523681640625,0.0009677386842668056,-0.0021690744906663895,0.0010903747752308846
1772555550439454700,1.458454833984375,0.0025023878552019596,0.0006073340773582458,-0.0016322126612067223
1772555550449386800,1.46838671875,0.0004333779215812683,-0.0007609976455569267,0.0015609171241521835
1772555550459318800,1.47831884765625,-0.0003639189526438713,0.0035968106240034103,0.0012363158166408539
1772555550469249800,1.488249755859375,0.0008233184926211834,-0.00012122839689254761,-0.0002063177525997162
1772555550479181800,1.498181884765625,0.003085994627326727,-0.0016234386712312698,-0.000007873401045799255
1772555550489113900,1.50811376953125,-0.0009755920618772507,0.0014458540827035904,-0.0006542224436998367
1772555550499044900,1.518044921875,-0.00033450545743107796,0.0010961182415485382,-0.00110645592212677
1772555550508976600,1.5279765625,-0.0010644779540598392,0.000637788325548172,-0.00007634516805410385
1772555550518908700,1.53790869140625,0.0007436424493789673,0.00015019625425338745,0.0018846867606043816
1772555550528841200,1.54784130859375,-0.001784762367606163,0.0003786962479352951,-0.0002349233254790306
1772555550538772200,1.557772216796875,-0.0007634470239281654,0.0011034812778234482,-0.0010718833655118942
1772555550548704300,1.567704345703125,-0.0005535897798836231,-0.002529868856072426,-0.0012812083587050438
1772555550558636300,1.57763623046875,0.0013451087288558483,0.00039901211857795715,-0.00203830748796463
1772555550568567000,1.587567138671875,-0.001478640828281641,-0.00044840574264526367,-0.0005248328670859337
1772555550578499000,1.5974990234375,-0.0005836016498506069,-0.00008563511073589325,0.0006242096424102783
1772555550588431000,1.60743115234375,-0.0006621647626161575,0.002069395035505295,0.00043192971497774124
1772555550598362000,1.617362060546875,-0.0009370311163365841,-0.0015324372798204422,-0.001138690859079361
1772555550608294100,1.627294189453125,0.0011831116862595081,0.0010830536484718323,0.0009058183059096336
1772555550618226200,1.63722607421875,0.00207816855981946,-0.0014741476625204086,0.00007297098636627197
1772555550628158200,1.647158203125,-0.00008005695417523384,0.0016287006437778473,0.0022250711917877197
1772555550638089200,1.657089111328125,0.0001497785560786724,0.00047594867646694183,-0.00048583559691905975
1772555550648021200,1.667021240234375,-0.0008169491775333881,-0.0005562929436564445,0.00038981158286333084
1772555550657953300,1.676953369140625,-0.00008868332952260971,0.00008031167089939117,0.000052578747272491455
1772555550667884000,1.686884033203125,-0.0021901836153119802,-0.0011692428961396217,-0.002316303551197052
1772555550677816000,1.696816162109375,-0.00020484626293182373,-0.0025457842275500298,0.0007456885650753975
1772555550687748000,1.706748046875,-0.001712727826088667,0.0008385609835386276,0.0016112159937620163
1772555550697680100,1.71668017578125,-0.00010337959975004196,0.000990094617009163,0.000832773745059967
1772555550707611100,1.726611083984375,0.000042028725147247314,0.00038768723607063293,-0.0012652650475502014
1772555550717543200,1.736543212890625,-0.0009019314311444759,-0.0024923188611865044,0.0011396054178476334
1772555550727475200,1.74647509765625,-0.00009952066466212273,-0.0004432825371623039,0.00008552614599466324
1772555550737406200,1.75640625,0.0006804438307881355,0.00029828399419784546,0.001633625477552414
1772555550747338000,1.766337890625,0.0017033638432621956,0.0002735164016485214,-0.0001525571569800377
1772555550757270000,1.77627001953125,0.000053040217608213425,0.0011190976947546005,0.0017362413927912712
1772555550767201300,1.786201171875,-0.0017693606205284595,0.00004983879625797272,0.0017130719497799873
1772555550777133300,1.79613330078125,-0.001983782509341836,-0.0025499677285552025,0.0005832742899656296
1772555550787065000,1.806065185546875,-0.0008575315587222576,-0.00013261660933494568,-0.00011926796287298203
1772555550796997000,1.8159970703125,0.0006611272692680359,-0.0035640234127640724,-0.00047628767788410187
1772555550806928100,1.82592822265625,0.0005577965639531612,-0.0014649191871285439,-0.0020984187722206116
1772555550816860200,1.835860107421875,0.0010452414862811565,-0.0014363117516040802,-0.002742786891758442
1772555550826792200,1.845792236328125,-0.0012844917364418507,0.00036158785223960876,-0.0013499530032277107
1772555550836723200,1.85572314453125,-0.00019808486104011536,-0.002040284685790539,-0.0004525845870375633
1772555550846655200,1.8656552734375,0.000821639783680439,-0.00020190514624118805,0.0011711446568369865
1772555550856587300,1.875587158203125,0.0019227215088903904,-0.0007966523990035057,0.0008995402604341507
1772555550866518300,1.885518310546875,0.0006997976452112198,-0.000604637898504734,-0.00021366123110055923
1772555550876450000,1.895449951171875,0.0005368250422179699,-0.0008177077397704124,0.000383010134100914
1772555550886382000,1.905382080078125,-0.0012501557357609272,0.0003791172057390213,-0.0012345938012003899
1772555550896314000,1.915314208984375,-0.002132659312337637,-0.0018464848399162292,-0.0010915156453847885
1772555550906245000,1.9252451171875,-0.00038456032052636147,0.0013293344527482986,0.002107740379869938
1772555550916177200,1.93517724609375,0.0003395313397049904,-0.0006534354761242867,-0.0006227586418390274
1772555550926109200,1.945109130859375,-0.0012674201279878616,-0.0036082128062844276,0.0007527638226747513
1772555550936040200,1.955040283203125,0.000324503518640995,-0.0004020519554615021,0.0010206755250692368
1772555550945972200,1.96497216796875,0.0006179837509989738,0.000013135373592376709,-0.0005686990916728973
1772555550955904300,1.974904296875,-0.0020720779430121183,-0.0006971945986151695,-0.0011179428547620773
1772555550965835000,1.9848349609375,-0.0008499533869326115,0.000055149197578430176,0.0016592014580965042
1772555550975767000,1.99476708984375,-0.00006601866334676743,0.00035478919744491577,-0.00019414443522691727
1772555550985699000,2.004698974609375,0.0004493030719459057,0.0019622724503278732,-0.0009374329820275307
1772555550995631000,2.014631103515625,0.001233554445207119,-0.0014622369781136513,0.0012710150331258774
1772555551005562000,2.02456201171875,0.0018846974708139896,0.0006712209433317184,-0.001010781154036522
1772555551015494100,2.034494140625,-0.0015370678156614304,0.001523369923233986,0.0002561211585998535
1772555551025426200,2.04442626953125,0.0004387316294014454,-0.00015229173004627228,-0.0007801149040460587
1772555551035357200,2.054357177734375,-0.00182706443592906,-0.00018979795277118683,0.0002821804955601692
1772555551045289000,2.0642890625,0.0012022815644741058,-0.0023179296404123306,0.0005623456090688705
1772555551055221000,2.074220947265625,-0.0028166084084659815,-0.002078932709991932,-0.0010863002389669418
1772555551065152300,2.08415234375,-0.0008751638233661652,0.0018199346959590912,0.0003597959876060486
1772555551075084300,2.094084228515625,0.0006006308831274509,-0.000288425013422966,-0.00024344585835933685
1772555551085016300,2.104016357421875,-0.00010191090404987335,0.0019947029650211334,-0.000719352625310421
1772555551094948000,2.113947998046875,0.0008973004296422005,0.0012153349816799164,-0.0010851994156837463
1772555551104879000,2.123879150390625,-0.0010007345117628574,0.0005040038377046585,-0.0003997012972831726
1772555551114811100,2.13381103515625,-0.00042660534381866455,0.0007205680012702942,-0.0004064701497554779
1772555551124743200,2.1437431640625,-0.0014825486578047276,0.0000638328492641449,-0.00090022012591362
1772555551134674200,2.153674072265625,-0.0010999348014593124,-0.0007739830762147903,-0.002308690920472145
1772555551144606200,2.163606201171875,-0.0010517314076423645,0.0016191322356462479,-0.0031784800812602043
1772555551154538200,2.173538330078125,0.00006600655615329742,0.0004581175744533539,-0.0007673231884837151
1772555551164469200,2.18346923828125,-0.0015750331804156303,-0.000030837953090667725,0.0009275125339627266
1772555551174401000,2.193401123046875,0.0007046470418572426,-0.0020435359328985214,-0.002060089260339737
1772555551184333000,2.2033330078125,0.0008311471901834011,0.0011804867535829544,0.0005492763593792915
1772555551194265000,2.21326513671875,-0.0005729491822421551,-0.0009029591456055641,0.0008119624108076096
1772555551204196000,2.223196044921875,0.0014997893013060093,0.001949818804860115,0.0012713577598333359
1772555551214128000,2.233128173828125,0.0002480284310877323,-0.001137973740696907,-0.00044318288564682007
1772555551224060200,2.24306005859375,0.0015425910241901875,0.00034993328154087067,0.0004897229373455048
1772555551233991200,2.2529912109375,0.0019083451479673386,0.0011092312633991241,-0.003148539923131466
1772555551243923200,2.262923095703125,-0.001696509774774313,0.0007302630692720413,-0.0016276082023978233
1772555551253855200,2.272855224609375,-0.0006057531572878361,-0.0003601592034101486,0.00009945686906576157
1772555551263786000,2.282785888671875,0.00040464987978339195,0.0013176314532756805,-0.0010986989364027977
1772555551273718000,2.292718017578125,-0.002013403456658125,-0.0009539416059851646,0.00009771808981895447
1772555551283650000,2.302650146484375,0.0008082157000899315,0.0016176067292690277,0.0005059810355305672
1772555551293582000,2.31258203125,-0.0020447594579309225,-0.0026459842920303345,-0.0026639876887202263
1772555551303513000,2.32251318359375,0.0006562182679772377,-0.0010470226407051086,-0.0009584994986653328
1772555551313445000,2.332445068359375,-0.0005856784991919994,0.0012436266988515854,-0.0007842974737286568
1772555551323377200,2.342377197265625,-0.00037928344681859016,0.0011671949177980423,0.0008226539939641953
1772555551333308200,2.35230810546875,0.002985670231282711,0.001357298344373703,-0.00009442772716283798
1772555551343240200,2.362240234375,-0.0008921590633690357,-0.00038014911115169525,0.0009167743846774101
1772555551353172000,2.372171875,0.0008893175981938839,0.0006868243217468262,0.0009898645803332329
1772555551363103200,2.382103271484375,0.00015029031783342361,0.0010516773909330368,0.0012332769110798836
1772555551373035300,2.39203515625,-0.00021251430734992027,-0.001776052638888359,0.0019529378041625023
1772555551382967300,2.40196728515625,0.0012908405624330044,0.0021715518087148666,-0.0011078333482146263
1772555551392898000,2.41189794921875,-0.002336431061848998,-0.0004489542916417122,0.0010947594419121742
1772555551402830000,2.421830078125,0.0006183460354804993,0.0019417647272348404,0.0008737165480852127
1772555551412762000,2.43176220703125,0.0010593244805932045,0.00004330836236476898,0.002509155310690403
1772555551422694100,2.441694091796875,-0.002163366647437215,-0.0005393913015723228,-0.0010464312508702278
1772555551432625200,2.451625244140625,0.0010700365528464317,-0.0003197416663169861,-0.0005737561732530594
1772555551442557200,2.46155712890625,0.0030714021995663643,0.0005487147718667984,0.0011943159624934196
1772555551452489200,2.4714892578125,0.0009827879257500172,-0.0015223948284983635,-0.00010595470666885376
1772555551462420200,2.481420166015625,0.0010589542798697948,0.0023359917104244232,0.0007784804329276085
1772555551472352300,2.491352294921875,-0.00018172338604927063,-0.00008923932909965515,0.0006502373144030571
1772555551482284000,2.501283935546875,0.0008076406084001064,-0.00012039951980113983,-0.001984161324799061
1772555551492215000,2.511215087890625,-0.0009367018938064575,-0.0005868114531040192,-0.00008304324001073837
1772555551502147000,2.52114697265625,-0.0028230189345777035,0.0035434849560260773,0.0008469326421618462
1772555551512079400,2.531079345703125,-0.0003737444058060646,0.0021642036736011505,0.000581599771976471
1772555551522011400,2.541011474609375,0.00019111204892396927,0.0015594009310007095,-0.00031934771686792374
1772555551531942400,2.5509423828125,-0.0009205946698784828,0.00039396993815898895,-0.0007988670840859413
1772555551541874400,2.56087451171875,-0.0008835769258439541,-0.000038528814911842346,-0.0009386828169226646
1772555551551806500,2.570806396484375,0.0009356853552162647,0.002220243215560913,0.00045629870146512985
1772555551561737200,2.5807373046875,0.00024566054344177246,0.0004071630537509918,0.0018571214750409126
1772555551571669200,2.590669189453125,-0.001514381729066372,0.001331571489572525,0.0005755480378866196
1772555551581601300,2.600601318359375,-0.0007463260553777218,0.0002442020922899246,0.0010330798104405403
1772555551591532500,2.610532470703125,-0.00033321045339107513,-0.0001910179853439331,0.0009600725024938583
1772555551601464600,2.620464599609375,-0.0006357459351420403,0.0019826553761959076,0.0004516756162047386
1772555551611396400,2.630396240234375,-0.0008394774049520493,-0.0014938358217477798,-0.0008700517937541008
1772555551621328400,2.640328369140625,-0.000952395610511303,-0.002090916968882084,0.00115208700299263
1772555551631259400,2.65025927734375,-0.0019988527055829763,-0.000622214749455452,-0.0012297267094254494
1772555551641191400,2.66019140625,0.0019423593766987324,-0.0007575033232569695,-0.0030625145882368088
1772555551651123200,2.670123291015625,0.0009737559594213963,0.000021750107407569885,0.0005552694201469421
1772555551661054500,2.680054443359375,0.0027732537128031254,-0.00026560574769973755,0.001047687605023384
1772555551670986500,2.689986572265625,0.0015703272074460983,-0.001318243332207203,0.000005911104381084442
1772555551680918500,2.69991845703125,-0.0002912222407758236,0.00029536522924900055,0.00020458362996578217
1772555551690849300,2.709849365234375,0.0006072339601814747,0.002132043242454529,-0.00048423465341329575
1772555551700781300,2.71978125,0.0006445180624723434,-0.00004056282341480255,0.0007805004715919495
1772555551710713300,2.72971337890625,-0.00202700006775558,0.001840660348534584,-0.00021380465477705002
1772555551720645400,2.739645263671875,0.0016620107926428318,-0.0002299472689628601,-0.0008596209809184074
1772555551730576600,2.74957666015625,0.0012296810746192932,0.000053377822041511536,-0.001085604541003704
1772555551740508400,2.75950830078125,-0.0006680875085294247,-0.0005706017836928368,-0.0019327560439705849
1772555551750440400,2.7694404296875,-0.001934027299284935,-0.000059334561228752136,0.0018455041572451591
1772555551760371500,2.779371337890625,0.000060413964092731476,0.001417389139533043,0.0005799699574708939
1772555551770303500,2.789303466796875,0.0012403219006955624,-0.001217602752149105,0.0019736364483833313
1772555551780235300,2.7992353515625,-0.0004710252396762371,-0.0008202586323022842,-0.0003417162224650383
1772555551790166300,2.809166259765625,-0.0007199286483228207,0.0010189488530158997,-0.0003817817196249962
1772555551800098300,2.819098388671875,0.001003136858344078,0.001451980322599411,-0.003330433741211891
1772555551810030300,2.8290302734375,-0.0030336284544318914,-0.00030908919870853424,-0.0011777617037296295
1772555551819962600,2.838962646484375,0.0030839191749691963,0.0005921255797147751,0.0005128132179379463
1772555551829893400,2.848893310546875,0.00015257159247994423,-0.001775551587343216,-0.001415776088833809
1772555551839825400,2.858825439453125,0.00014564767479896545,0.0004841405898332596,0.0007813321426510811
1772555551849757400,2.86875732421875,-0.0010880045592784882,0.0023322496563196182,-0.00026448722928762436
1772555551859688200,2.878688232421875,-0.0007537775672972202,-0.0015088282525539398,0.0028210515156388283
1772555551869620200,2.8886201171875,0.0015810648910701275,-0.004631965421140194,0.0005851732566952705
1772555551879552300,2.89855224609375,0.0009847832843661308,-0.00046731438487768173,0.0009598797187209129
1772555551889483500,2.9084833984375,-0.0030652170535176992,0.0010835081338882446,-0.0013363352045416832
1772555551899415600,2.91841552734375,0.00021659629419445992,0.0005793720483779907,-0.000163213349878788
1772555551909347300,2.928347412109375,0.0015085847117006779,-0.0024743666872382164,0.0008166851475834846
1772555551919278300,2.9382783203125,0.001965050585567951,0.0025153309106826782,0.000673939473927021
1772555551929210400,2.94821044921875,0.0016454360447824001,0.0003746524453163147,0.0014301938936114311
1772555551939142400,2.958142333984375,-0.00011278269812464714,0.000021783635020256042,-0.0010460130870342255
1772555551949074400,2.968074462890625,0.0016909567639231682,0.002248939126729965,0.0016938913613557816
1772555551959005400,2.97800537109375,0.0001596393994987011,-0.001097588799893856,0.002374595031142235
1772555551968937500,2.9879375,-0.000513717532157898,-0.0007198434323072433,0.002371586859226227
1772555551978869500,2.997869384765625,-0.001950759207829833,0.000005602836608886719,0.0019209804013371468
1772555551988800300,3.00780029296875,-0.0007801358588039875,-0.0011832667514681816,-0.0010142382234334946
1772555551998732300,3.017732177734375,0.0006875321269035339,-0.0017784824594855309,0.0006502373144030571
1772555552008664300,3.027664306640625,0.0014959517866373062,0.0007001068443059921,0.0007133465260267258
1772555552018595600,3.037595703125,-0.0019648259039968252,-0.0012136399745941162,0.0004470311105251312
1772555552028527600,3.047527587890625,0.0009444449096918106,-0.00030786730349063873,-0.0012392010539770126
1772555552038459400,3.05745947265625,-0.001246271189302206,0.0007169172167778015,0.0011350065469741821
1772555552048391400,3.067391357421875,-0.0019230530597269535,0.00007922761142253876,-0.0009547704830765724
1772555552058322400,3.077322509765625,0.0005816500633955002,0.0006579328328371048,-0.0006248047575354576
1772555552068254500,3.08725439453125,-0.0009724232368171215,0.0013386234641075134,-0.0005798051133751869
1772555552078186500,3.0971865234375,-0.0014661732129752636,0.0005260929465293884,-0.0006879298016428947
1772555552088117200,3.1071171875,-0.00007788743823766708,0.0006850380450487137,-0.000017303042113780975
1772555552098049300,3.11704931640625,-0.001442491076886654,0.0008048806339502335,0.000973924994468689
1772555552107981600,3.126981689453125,-0.0007046940736472607,0.0026906952261924744,0.000300026498734951
1772555552117912300,3.136912353515625,-0.001741729211062193,-0.000590052455663681,-0.0015673814341425896
1772555552127844400,3.14684423828125,-0.000716786365956068,0.00017347559332847595,0.0010449392721056938
1772555552137776400,3.1567763671875,0.0003932192921638489,-0.001704053021967411,-0.002058441750705242
1772555552147708400,3.16670849609375,-0.00046209385618567467,0.0009944457560777664,-0.002681814134120941
1772555552157639400,3.176639404296875,0.0008234139531850815,-0.0003512483090162277,0.00003194715827703476
1772555552167571200,3.1865712890625,-0.0017582904547452927,0.0008828639984130859,0.0007066410034894943
1772555552177503200,3.196503173828125,-0.0007846388034522533,-0.00015896372497081757,0.00010343454778194427
1772555552187434500,3.2064345703125,0.0009424570016562939,0.0012978501617908478,0.0008050641044974327
1772555552197366500,3.216366455078125,-0.00021468615159392357,0.0012709517031908035,0.00011370796710252762
1772555552207298300,3.22629833984375,0.0006958106532692909,0.001042218878865242,-0.004471184685826302
1772555552217229300,3.236229248046875,-0.0002770419232547283,0.0008376874029636383,0.0019225329160690308
1772555552227161300,3.246161376953125,-0.0003024064935743809,-0.0011646328493952751,0.0004653390496969223
1772555552237093400,3.25609326171875,0.0007277042604982853,-0.00010948814451694489,0.0005827844142913818
1772555552247025400,3.266025390625,0.0025687036104500294,-0.0025058845058083534,0.0005476633086800575
1772555552256956400,3.275956298828125,0.0014355285093188286,0.0016718171536922455,-0.0012145498767495155
1772555552266888400,3.285888427734375,-0.00293096830137074,0.00029777735471725464,0.0006793541833758354
1772555552276820500,3.295820556640625,0.000701583456248045,-0.00026840902864933014,-0.0009560929611325264
1772555552286751500,3.30575146484375,-0.0006215246394276619,-0.001081285998225212,-0.001868569292128086
1772555552296683300,3.315683349609375,-0.0004390981048345566,0.0023001302033662796,-0.001824093982577324
1772555552306615300,3.325615234375,-0.000995483249425888,0.0017213039100170135,0.001088983379304409
1772555552316546600,3.335546630859375,-0.0005632522515952587,-0.0008792737498879433,-0.0005957325920462608
1772555552326478600,3.345478515625,-0.0009713736362755299,-0.00016703270375728607,-0.001831473782658577
1772555552336410400,3.355410400390625,-0.0015026740729808807,0.0017834659665822983,-0.00042292848229408264
1772555552346341400,3.36534130859375,0.00003659585490822792,-0.0005129696801304817,-0.0005940981209278107
1772555552356273400,3.3752734375,-0.0014702207408845425,0.00039623305201530457,-0.0005043493583798409
1772555552366205400,3.385205322265625,-0.0005006259307265282,0.0010976381599903107,0.0006422791630029678
1772555552376137500,3.395137451171875,-0.0016870643012225628,0.001127464696764946,-0.00018010474741458893
1772555552386068200,3.405068115234375,-0.0012429873459041119,0.002612696960568428,-0.00261676125228405
1772555552396000500,3.41500048828125,0.0009378748945891857,0.0012888386845588684,0.0011790422722697258
1772555552405932500,3.4249326171875,-0.001628166064620018,0.0006634239107370377,-0.003212817944586277
1772555552415863600,3.434863525390625,-0.0018622581847012043,0.0019444059580564499,0.001711101271212101
1772555552425795300,3.44479541015625,0.0009401165880262852,0.000037400051951408386,-0.00032073725014925003
1772555552435727400,3.454727294921875,-0.0003810776397585869,0.0005125068128108978,0.001403925009071827
1772555552445658400,3.464658447265625,0.0004941574297845364,0.0000010989606380462646,0.0008632941171526909
1772555552455590400,3.47459033203125,-0.0003178403712809086,-0.00033925287425518036,-0.00045896507799625397
1772555552465522200,3.484522216796875,0.0013760491274297237,0.0006954465061426163,-0.003377753309905529
1772555552475454200,3.4944541015625,0.0007946807891130447,0.00012393109500408173,-0.0007774429395794868
1772555552485385500,3.504385498046875,0.0011965315788984299,0.0013792850077152252,-0.00044194888323545456
1772555552495317500,3.5143173828125,-0.0016855411231517792,0.0013470612466335297,-0.001793503761291504
1772555552505249500,3.52424951171875,0.001749115064740181,0.0002909954637289047,0.0027720965445041656
1772555552515180300,3.53418017578125,0.0026410073041915894,-0.0011937161907553673,0.0018149567767977715
1772555552525112000,3.544112060546875,0.001090328674763441,0.0004396513104438782,-0.00018983520567417145
1772555552535044000,3.554044189453125,0.00109831802546978,0.0005491077899932861,0.0006277561187744141
1772555552544975000,3.56397509765625,0.0005792295560240746,-0.0009753471240401268,0.00016465410590171814
1772555552554907100,3.5739072265625,-0.001105752307921648,0.0014505255967378616,0.00001791398972272873
1772555552564839200,3.583839111328125,0.00015417439863085747,-0.0005133096128702164,0.000363033264875412
1772555552574771200,3.593771240234375,0.0015131854452192783,-0.0002368725836277008,0.0010400088503956795
1772555552584702200,3.6037021484375,-0.00035103922709822655,-0.0014599421992897987,0.000005185604095458984
1772555552594634000,3.613634033203125,-0.0009561097249388695,-0.001696164719760418,0.0014765821397304535
1772555552604566000,3.62356591796875,-0.0010322188027203083,-0.00034834258258342743,0.0012837843969464302
1772555552614497300,3.633497314453125,-0.0012101181782782078,0.0013792496174573898,-0.0009162528440356255
1772555552624429300,3.64342919921875,0.00022877659648656845,-0.0012771720066666603,0.001293916255235672
1772555552634361300,3.653361328125,0.0008527552708983421,-0.001383165828883648,0.00067952461540699
1772555552644292000,3.6632919921875,0.0012001036666333675,0.001131175085902214,0.0017746444791555405
1772555552654224100,3.67322412109375,-0.0010055266320705414,0.0011945590376853943,0.0001884661614894867
1772555552664156200,3.68315625,0.00042514270171523094,0.0011320672929286957,-0.0007052375003695488
1772555552674087200,3.693087158203125,0.0007460536435246468,0.00009822845458984375,-0.0008690217509865761
1772555552684019200,3.703019287109375,0.0018525593914091587,0.001519637182354927,-0.000773891806602478
1772555552693951200,3.712951171875,-0.0004100622609257698,-0.0005083605647087097,-0.0018221121281385422
1772555552703883300,3.72288330078125,0.0007128617726266384,0.00025691837072372437,-0.00037223659455776215
1772555552713814300,3.732814208984375,-0.0016054199077188969,-0.00038303807377815247,-0.0003690402954816818
1772555552723746000,3.74274609375,-0.0009076744318008423,-0.00054974015802145,-0.0018749963492155075
1772555552733678000,3.752677978515625,0.0019019609317183495,-0.0010437564924359322,-0.0018286574631929398
1772555552743609000,3.762609130859375,-0.0014679888263344765,-0.003078409470617771,0.0001341039314866066
1772555552753541000,3.772541015625,0.0004327092319726944,0.002124607563018799,0.0001769810914993286
1772555552763473200,3.78247314453125,0.001895400695502758,0.00043551623821258545,-0.001328171230852604
1772555552773404200,3.792404052734375,0.0003608870320022106,-0.00007581152021884918,0.00022897869348526
1772555552783336200,3.802336181640625,-0.0002971123903989792,0.0009466670453548431,0.00006998423486948013
1772555552793268200,3.812268310546875,-0.0007293433882296085,-0.001597982831299305,-0.0009542675688862801
1772555552803199000,3.822198974609375,-0.0004173354245722294,0.0001334603875875473,0.000767105259001255
1772555552813131000,3.832131103515625,-0.0000032139942049980164,-0.0015025204047560692,0.0018033413216471672
1772555552823063000,3.84206298828125,-0.00035073887556791306,0.0012407749891281128,-0.00032347720116376877
1772555552832995000,3.8519951171875,0.00003222376108169556,0.00021306239068508148,0.00042806658893823624
1772555552842926300,3.86192626953125,-0.0012194202281534672,0.0018157847225666046,-0.001669691875576973
1772555552852858000,3.871858154296875,-0.0017573786899447441,0.002127109095454216,-0.001479010097682476
1772555552862790100,3.8817900390625,-0.0015427465550601482,-0.0006057508289813995,0.00021287426352500916
1772555552872721200,3.89172119140625,0.00017872080206871033,0.0014305021613836288,-0.00014239177107810974
1772555552882653200,3.901653076171875,-0.0008318247273564339,0.0005999598652124405,-0.00017572473734617233
1772555552892585000,3.9115849609375,-0.000784154050052166,0.000507015734910965,0.001999812200665474
1772555552902516200,3.92151611328125,0.0018142713233828545,-0.0006484417244791985,-0.0006085289642214775
1772555552912448300,3.9314482421875,-0.000037690624594688416,-0.0010415241122245789,-0.0008506104350090027
1772555552922380300,3.94138037109375,-0.0025337592232972383,-0.0003830213099718094,-0.0011423155665397644
1772555552932312300,3.951312255859375,-0.002118039643391967,0.0010737273842096329,-0.000792110338807106
1772555552942243000,3.9612431640625,-0.0017159832641482353,0.0016688331961631775,-0.0011074226349592209
1772555552952175000,3.971175048828125,-0.000034197233617305756,-0.0004012426361441612,0.000115235336124897
1772555552962107100,3.981107177734375,0.0029746070504188538,0.0005353260785341263,0.001037134788930416
1772555552972038100,3.9910380859375,-0.0005210582166910172,-0.002350475639104843,-0.0020049940794706345
1772555552981970200,4.00097021484375,0.0001727873459458351,0.0008904077112674713,0.0006534457206726074
1772555552991902200,4.010902099609375,-0.0010810289531946182,0.0016230437904596329,-0.001660575158894062
1772555553001833200,4.020833251953125,0.0003286250866949558,-0.00018130987882614136,0.0023453831672668457
1772555553011765200,4.03076513671875,0.0027789995074272156,-0.002554718405008316,-0.0016189981251955032
1772555553021697000,4.040697021484375,0.0030906004831194878,0.0005995072424411774,-0.0010683480650186539
1772555553031628000,4.0506279296875,0.0007118652574717999,0.001591268926858902,0.00013113953173160553
1772555553041560000,4.06056005859375,-0.0013061692006886005,-0.0014440277591347694,-0.002120702527463436
1772555553051492000,4.0704921875,-0.0016065738163888454,0.001434849575161934,0.001851668581366539
1772555553061424000,4.080424072265625,-0.00048385048285126686,-0.002351103350520134,0.0004936587065458298
1772555553071355100,4.090355224609375,-0.0012231441214680672,-0.00035506393760442734,-0.00009356904774904251
1772555553081287200,4.100287109375,0.000344960018992424,-0.0001626182347536087,-0.00043902546167373657
1772555553091219200,4.11021923828125,0.00011299876496195793,-0.0012742215767502785,0.0008054701611399651
1772555553101150000,4.12014990234375,-0.0015801582485437393,-0.000346476212143898,-0.0015137707814574242
1772555553111082000,4.13008203125,0.00047447066754102707,0.0007097329944372177,-0.002179826609790325
1772555553121014000,4.140013916015625,0.0010429434478282928,0.0025971252471208572,0.0016490332782268524
1772555553130945300,4.1499453125,0.0017619971185922623,0.0005179960280656815,-0.00016191601753234863
1772555553140877300,4.159877197265625,-0.0005580983124673367,0.001075269654393196,0.0018582912161946297
1772555553150809000,4.16980908203125,-0.00028033042326569557,0.000212937593460083,-0.0020797252655029297
1772555553160741000,4.1797412109375,0.002276151906698942,0.0005678329616785049,-0.0019048312678933144
1772555553170672000,4.189672119140625,0.0022804136388003826,-0.0003584139049053192,0.0007985429838299751
1772555553180604200,4.199604248046875,-0.0009303633123636246,-0.000504431314766407,-0.0018055159598588943
1772555553190536200,4.2095361328125,-0.00006670039147138596,0.0003009084612131119,0.00043446850031614304
1772555553200467200,4.21946728515625,0.0006729904562234879,-0.002566501498222351,-0.0001346152275800705
1772555553210399200,4.229399169921875,0.0026083094999194145,-0.0009140102192759514,-0.0015775160863995552
1772555553220331300,4.239331298828125,-0.0003134803846478462,0.0016264673322439194,0.0027209073305130005
1772555553230262000,4.249261962890625,0.0003254120238125324,-0.0006590578705072403,0.0022103795781731606
1772555553240194000,4.259194091796875,-0.0009142509661614895,0.0012848824262619019,0.00015804637223482132
1772555553250126000,4.2691259765625,-0.001074040774255991,-0.00015482120215892792,0.001040617935359478
1772555553260057000,4.27905712890625,0.0004960689693689346,-0.0004505245015025139,-0.0013398416340351105
1772555553269989400,4.2889892578125,-0.0008576158434152603,-0.00036557018756866455,-0.0012698005884885788
1772555553279921200,4.298921142578125,-0.0010377392172813416,0.002342766150832176,-0.0008002286776900291
1772555553289853200,4.308853271484375,-0.0007754177786409855,0.000493733212351799,-0.0012473734095692635
1772555553299784200,4.3187841796875,-0.0003104754723608494,-0.00018367357552051544,0.0014167213812470436
1772555553309716200,4.32871630859375,-0.0013022366911172867,-0.0012942124158143997,-0.0018752124160528183
1772555553319648300,4.338648193359375,0.0007872190326452255,0.0016206074506044388,-0.0018036840483546257
1772555553329579000,4.3485791015625,0.0007438096217811108,-0.00068675447255373,-0.000013774260878562927
1772555553339511000,4.358510986328125,-0.00039154617115855217,-0.00081658735871315,0.0012636687606573105
1772555553349443000,4.368443115234375,-0.0003449409268796444,0.000833241268992424,-0.0000711074098944664
1772555553359374000,4.3783740234375,0.0018006055615842342,0.0012812688946723938,0.0005044452846050262
1772555553369306000,4.38830615234375,0.0006692949682474136,0.0004303883761167526,-0.000060677528381347656
1772555553379238100,4.398238037109375,-0.0016607576981186867,-0.00033910199999809265,-0.0007192380726337433
1772555553389169200,4.408169189453125,0.0006303596310317516,-0.001123935915529728,0.0003273840993642807
1772555553399101200,4.41810107421875,-0.0016971253789961338,0.0006253737956285477,-0.0009583365172147751
1772555553409033000,4.428032958984375,0.00021555693820118904,-0.0009714579209685326,-0.0004952121526002884
1772555553418965000,4.437965087890625,0.0013809958472847939,-0.002113538794219494,0.0000332370400428772
1772555553428896300,4.447896240234375,-0.0014158557169139385,0.00029981695115566254,0.0025912029668688774
1772555553438828300,4.457828369140625,0.0007364884950220585,-0.0012087766081094742,-0.00244230218231678
1772555553448760000,4.467760009765625,0.0009583295322954655,0.00212709978222847,0.00028504151850938797
1772555553458691000,4.477691162109375,0.001472183968871832,-0.0018845731392502785,-0.0018387502059340477
1772555553468623000,4.487623046875,0.00126578938215971,-0.0021799178794026375,0.00033252499997615814
1772555553478555100,4.49755517578125,0.002019166946411133,0.0005026943981647491,0.0011894749477505684
1772555553488486100,4.507486083984375,0.0008079609833657742,0.0013067033141851425,-0.0009852619841694832
1772555553498418200,4.517418212890625,-0.0007930067367851734,0.0007495079189538956,-0.001981372945010662
1772555553508350200,4.52735009765625,-0.0004606442525982857,0.0008227452635765076,-0.0012761680409312248
1772555553518282200,4.5372822265625,-0.001045322511345148,0.0016573090106248856,-0.0008893785998225212
1772555553528212500,4.54721240234375,0.0002324623055756092,0.000998442992568016,0.000005709938704967499
1772555553538144500,4.55714453125,-0.0021812014747411013,0.00039190053939819336,-0.00033272430300712585
1772555553548076500,4.56707666015625,0.0030489806085824966,0.0021077748388051987,-0.0004789317026734352
1772555553558007800,4.5770078125,0.00008434755727648735,-0.0008683297783136368,0.00007768720388412476
1772555553567939800,4.58693994140625,-0.0004751826636493206,-0.001350628212094307,-0.0004072748124599457
1772555553577871600,4.59687158203125,0.0009337887167930603,-0.00020284578204154968,-0.0011117951944470406
1772555553587802600,4.606802734375,-0.00048221414908766747,-0.0013924799859523773,-0.00016663968563079834
1772555553597734700,4.616734619140625,0.0011850697919726372,0.0004984159022569656,0.0004925057291984558
1772555553607666700,4.626666748046875,-0.0009646336548030376,0.00008323043584823608,0.0027705729007720947
1772555553617597700,4.63659765625,-0.0005426439456641674,0.00030463747680187225,-0.0004341583698987961
1772555553627529700,4.64652978515625,-0.0011852649040520191,0.0016644466668367386,-0.0010189888998866081
1772555553637461800,4.656461669921875,-0.003230507718399167,-0.0018289946019649506,0.0005217967554926872
1772555553647393800,4.666393798828125,-0.0009582987986505032,0.000775577500462532,-0.0019818414002656937
1772555553657324500,4.676324462890625,0.0007902155630290508,-0.001085713505744934,0.00032530538737773895
1772555553667256600,4.686256591796875,0.00027196435257792473,-0.0005773166194558144,0.0012733908370137215
1772555553677188600,4.696188720703125,0.0006409883499145508,-0.0006998851895332336,-0.001226348802447319
1772555553687119600,4.70611962890625,0.0022679129615426064,0.0006721746176481247,0.000029332004487514496
1772555553697051600,4.7160517578125,-0.001589176245033741,0.0016379300504922867,0.001117786392569542
1772555553706983700,4.725983642578125,0.0012441608123481274,0.0010030325502157211,0.0004988675937056541
1772555553716914700,4.735914794921875,0.001259030308574438,-0.0017455825582146645,-0.003196761943399906
1772555553726846700,4.7458466796875,0.0006198715418577194,0.00023048371076583862,0.0007532378658652306
1772555553736778800,4.75577880859375,-0.0027587092481553555,0.0006049498915672302,-0.0005095871165394783
1772555553746709500,4.76570947265625,-0.0016447086818516254,-0.001150340773165226,0.001622539944946766
1772555553756641500,4.7756416015625,0.0005331495776772499,-0.00038767512887716293,0.0014809500426054
1772555553766573600,4.785573486328125,0.00005910685285925865,-0.002030313014984131,0.0026623280718922615
1772555553776504800,4.7955048828125,0.0020356462337076664,-0.00011629611253738403,-0.0021118288859725
1772555553786436600,4.8054365234375,0.0005959407426416874,-0.0014433488249778748,-0.0006340406835079193
1772555553796368600,4.81536865234375,-0.00005642510950565338,0.0006940215826034546,0.0005081947892904282
1772555553806300700,4.82530078125,0.002750546671450138,-0.0008050715550780296,-0.0017163436859846115
1772555553816231700,4.835231689453125,0.0005744230002164841,0.00016414374113082886,-0.0010986989364027977
1772555553826163500,4.84516357421875,-0.003266387851908803,0.0013883989304304123,-0.001966622658073902
1772555553836095500,4.855095458984375,0.0018930621445178986,0.0003160014748573303,-0.002732757478952408
1772555553846026800,4.86502685546875,-0.0018020737916231155,-0.0006661731749773026,-0.001289323903620243
1772555553855958800,4.874958740234375,0.0019487706013023853,-0.00010592304170131683,0.0019278228282928467
1772555553865890800,4.884890869140625,-0.0010752486996352673,-0.0008763754740357399,-0.0005441224202513695
1772555553875821600,4.894821533203125,0.00030378997325897217,0.0003304816782474518,0.0010507507249712944
1772555553885753600,4.904753662109375,-0.00012524519115686417,0.000261504203081131,0.0025684861466288567
1772555553895685600,4.914685546875,-0.0010766619816422462,-0.0001703258603811264,0.0019255084916949272
1772555553905616600,4.92461669921875,0.001174507662653923,-0.0011836597695946693,0.0010325508192181587
1772555553915548700,4.934548583984375,-0.0006978269666433334,-0.001191161572933197,0.00047891680151224136
1772555553925480700,4.944480712890625,0.0009685130789875984,0.0020038336515426636,0.0016112932935357094
1772555553935412700,4.954412841796875,-0.003143821842968464,0.0036592818796634674,0.002328428439795971
1772555553945343700,4.96434375,-0.003367793746292591,0.0012864060699939728,0.0007763383910059929
1772555553955275500,4.974275634765625,-0.0006216219626367092,-0.0003589298576116562,-0.0004037497565150261
1772555553965207600,4.98420751953125,0.0001767934300005436,0.0007484126836061478,-0.0024482589215040207
1772555553975138600,4.994138671875,-0.00015069963410496712,-0.002385629341006279,-0.0013387734070420265
1772555553985070600,5.004070556640625,0.0018432089127600193,-0.00029584672302007675,-0.0000729728490114212
1772555553995002600,5.014002685546875,0.0019715013913810253,-0.00034600868821144104,-0.000712178647518158
1772555554004933600,5.02393359375,0.0007544364780187607,0.001376524567604065,0.00004362594336271286
1772555554014865700,5.03386572265625,0.0007147686555981636,-0.0010538315400481224,-0.0005860310047864914
1772555554024797700,5.043797607421875,-0.00030602095648646355,0.0003880038857460022,-0.001995641738176346
1772555554034728700,5.053728759765625,0.00016418006271123886,0.0005685463547706604,0.001003740355372429
1772555554044660500,5.063660400390625,0.00007682805880904198,0.00008305162191390991,0.0012093372642993927
1772555554054592500,5.073592529296875,-0.0019286870956420898,-0.0003569629043340683,0.0003849109634757042
1772555554064524500,5.083524658203125,0.001797074917703867,-0.001295727677643299,0.00018623936921358109
1772555554074455800,5.093455810546875,-0.00010223174467682838,0.00033928826451301575,-0.0021856101229786873
1772555554084387600,5.1033876953125,0.0009238841012120247,0.000688694417476654,0.0015793005004525185
1772555554094319600,5.113319580078125,-0.0005246512591838837,-0.001683281734585762,0.0010509537532925606
1772555554104250600,5.123250732421875,-0.0010250592604279518,-0.0000995006412267685,0.0010296488180756569
1772555554114182700,5.1331826171875,-0.0004064226523041725,-0.00018803775310516357,0.0012439293786883354
1772555554124114700,5.14311474609375,0.00044339196756482124,0.0016695167869329453,-0.0018626479431986809
1772555554134045700,5.153045654296875,-0.001862160861492157,0.0001869983971118927,-0.0006437962874770164
1772555554143977700,5.162977783203125,0.0028391177766025066,-0.0016183583065867424,0.001345318742096424
1772555554153909800,5.17290966796875,-0.0013707452453672886,-0.00024612806737422943,-0.0003832206130027771
1772555554163840500,5.182840576171875,0.0006729643791913986,-0.00043361540883779526,0.0020378585904836655
1772555554173772500,5.1927724609375,-0.0008999304845929146,-0.001002429984509945,-0.0014653820544481277
1772555554183704600,5.20270458984375,-0.0005795522592961788,0.0009427424520254135,-0.00017641205340623856
1772555554193636600,5.21263671875,-0.00034578656777739525,0.0005125701427459717,-0.001113681122660637
1772555554203567600,5.222567626953125,0.00008511310443282127,0.0004641003906726837,-0.00026999134570360184
1772555554213499600,5.232499755859375,-0.0004250435158610344,0.0010436959564685822,0.002808152697980404
1772555554223431700,5.242431640625,-0.0008902978152036667,0.0011547505855560303,-0.0011636856943368912
1772555554233362700,5.25236279296875,-0.0003986302763223648,0.0016088392585515976,0.001593954861164093
1772555554243294700,5.262294677734375,0.000027209054678678513,0.0007097553461790085,0.0031143538653850555
1772555554253226800,5.272226806640625,0.0020370972342789173,0.0016900207847356796,-0.0012725479900836945
1772555554263157500,5.282157470703125,-0.0019256859086453915,0.0003059767186641693,0.0017309645190835
1772555554273089500,5.292089599609375,0.0009558838792145252,0.0024497006088495255,-0.0011702058836817741
1772555554283021600,5.302021484375,-0.0010593300685286522,-0.00009468384087085724,-0.00123598612844944
1772555554292952600,5.31195263671875,0.00002320343628525734,0.0013626348227262497,-0.0015580449253320694
1772555554302884600,5.321884521484375,0.0028552087023854256,-0.0023831017315387726,0.00235147587954998
1772555554312816600,5.331816650390625,-0.0013413936831057072,0.0005606990307569504,0.0004319390282034874
1772555554322748700,5.341748779296875,-0.000022596679627895355,-0.0018214983865618706,-0.0033225854858756065
1772555554332679700,5.3516796875,0.0007170853205025196,-0.0007790662348270416,-0.001953568309545517
1772555554342611500,5.361611572265625,0.0001815236173570156,0.0013189725577831268,-0.00005579926073551178
1772555554352543500,5.37154345703125,0.0016545956023037434,-0.0002769501879811287,0.0019528828561306
1772555554362474800,5.381474853515625,0.0009259548969566822,0.00001679547131061554,-0.0016708802431821823
1772555554372406800,5.39140673828125,0.0002028532326221466,0.000743277370929718,0.0001963851973414421
1772555554382338800,5.4013388671875,-0.00005627237260341644,0.0003411397337913513,-0.0009383875876665115
1772555554392269600,5.41126953125,-0.0004512662999331951,-0.001080160029232502,0.0012500276789069176
1772555554402201600,5.42120166015625,-0.000739686656743288,-0.0019326386973261833,-0.004459257237613201
1772555554412133600,5.431133544921875,-0.001758607104420662,0.00016210414469242096,-0.002481452189385891
1772555554422064600,5.441064697265625,-0.0005162423476576805,-0.0013489741832017899,-0.0003463961184024811
1772555554431996700,5.45099658203125,-0.0015312493778765202,-0.0006471965461969376,-0.0018074577674269676
1772555554441928700,5.4609287109375,0.00034654559567570686,0.002731822431087494,-0.0016500642523169518
1772555554451859700,5.470859619140625,0.0014037094078958035,0.0011738017201423645,-0.0018145348876714706
1772555554461791700,5.480791748046875,-0.00022454746067523956,0.0005093440413475037,0.0015884526073932648
1772555554471723500,5.4907236328125,-0.00268021528609097,-0.0008439477533102036,-0.0009146919474005699
1772555554481655600,5.500655517578125,0.0020442320965230465,-0.0000918712466955185,-0.001359972171485424
1772555554491586600,5.510586669921875,-0.0007150047458708286,-0.0023936843499541283,0.0005306778475642204
1772555554501518800,5.520518798828125,0.001479439903050661,-0.001940147951245308,-0.0008778683841228485
1772555554511450600,5.53045068359375,0.0030644265934824944,-0.0030319085344672203,0.0015410548076033592
1772555554521381600,5.540381591796875,-0.0011825161054730415,0.0010523144155740738,-0.0005987957119941711
1772555554531314200,5.550314208984375,0.001066452357918024,-0.0016708914190530777,-0.00017960835248231888
1772555554541246200,5.56024609375,-0.002022548345848918,-0.0014815405011177063,0.001605507917702198
1772555554551177200,5.57017724609375,0.0016363980248570442,0.002462441101670265,0.00044228695333004
1772555554561109200,5.580109130859375,-0.0008715009316802025,0.0005337800830602646,0.0005309702828526497
1772555554571041000,5.590041015625,0.0007064417004585266,0.0017929542809724808,-0.00009383726865053177
1772555554580972300,5.59997216796875,0.001888086088001728,0.0003929305821657181,-0.00006720516830682755
1772555554590904300,5.609904296875,-0.0004374734126031399,0.0015605166554450989,0.0003603436052799225
1772555554600836400,5.61983642578125,0.0007159416563808918,0.0007501170039176941,-0.0009264964610338211
1772555554610768100,5.62976806640625,-0.00232174270786345,0.0026180148124694824,-0.0012063253670930862
1772555554620699100,5.63969921875,0.001525193452835083,-0.0007841736078262329,0.0009399158880114555
1772555554630631200,5.649631103515625,-0.00020323041826486588,-0.0008719479665160179,0.0006498675793409348
1772555554640563200,5.659563232421875,-0.0002809949219226837,-0.0014858059585094452,0.001488231122493744
1772555554650494200,5.669494140625,-0.0027831767220050097,-0.0004795501008629799,0.00038196705281734467
1772555554660426200,5.67942626953125,0.0015263506211340427,0.0001588091254234314,0.0004533398896455765
1772555554670358300,5.689358154296875,0.0026612412184476852,-0.000880763866007328,-0.0015176227316260338
1772555554680289300,5.699289306640625,0.0012795934453606606,-0.0001574493944644928,-0.0004891091957688332
1772555554690221000,5.709220947265625,-0.0010162540711462498,0.0009158197790384293,0.00003817118704319
1772555554700153000,5.719153076171875,0.0018895212560892105,0.00022153370082378387,0.0008522989228367805
1772555554710084000,5.729083984375,0.00041859783232212067,-0.0013072984293103218,-0.0009653186425566673
1772555554720016100,5.73901611328125,-0.00010684365406632423,0.0016746427863836288,-0.0001575825735926628
1772555554729948200,5.7489482421875,-0.00004075607284903526,0.0005813781172037125,0.00018939562141895294
1772555554739879200,5.758879150390625,0.00024872925132513046,-0.0009139860048890114,-0.0010870574042201042
1772555554749811200,5.768811279296875,-0.000811444129794836,-0.001737251877784729,-0.000738845206797123
1772555554759743200,5.7787431640625,-0.0014410153962671757,-0.0007822420448064804,0.0004446636885404587
1772555554769675300,5.78867529296875,0.0018786010332405567,0.00195869617164135,0.00035439152270555496
1772555554779606000,5.79860595703125,0.0008000209927558899,0.0003898274153470993,-0.0007665334269404411
1772555554789538000,5.8085380859375,0.0006812023930251598,0.0004190504550933838,0.00022275280207395554
1772555554799470000,5.818469970703125,0.002578705083578825,0.0022158846259117126,-0.0004110792651772499
1772555554809401300,5.8284013671875,0.0009535457938909531,0.0006612185388803482,0.0010972674936056137
1772555554819333000,5.8383330078125,0.0017343848012387753,-0.002377181313931942,-0.00020288769155740738
1772555554829265200,5.84826513671875,-0.0010918243788182735,-0.00040630903095006943,0.001653643324971199
1772555554839196200,5.858196044921875,-0.0006345594301819801,0.0005633477121591568,0.0008216723799705505
1772555554849128200,5.868128173828125,-0.00032070232555270195,0.00022990070283412933,0.00027949921786785126
1772555554859060200,5.878060302734375,-0.0021228634286671877,0.0003992784768342972,0.002311225049197674
1772555554868991200,5.8879912109375,0.0019533364102244377,0.0009176395833492279,0.0007645906880497932
1772555554878923300,5.89792333984375,-0.0008911858312785625,-0.001273609697818756,-0.001350492238998413
1772555554888855300,5.907855224609375,-0.001677944790571928,0.0022304952144622803,0.001154123805463314
1772555554898787300,5.917787353515625,0.00016496237367391586,-0.0003618253394961357,-0.0034411605447530746
1772555554908718000,5.927718017578125,-0.0006726025603711605,0.00009780935943126678,0.0005600787699222565
1772555554918650000,5.937650146484375,0.0002917279489338398,0.00041419267654418945,0.0012109549716114998
1772555554928582100,5.94758203125,-0.0003201705403625965,-0.0017119357362389565,0.001690870150923729
1772555554938513200,5.95751318359375,0.001953902654349804,0.00026759132742881775,0.002702604979276657
1772555554948445200,5.967445068359375,-0.000584120862185955,-0.0012959269806742668,0.001006278209388256
1772555554958377200,5.977377197265625,0.0005224226042628288,0.0017664413899183273,0.002190852537751198
1772555554968308200,5.98730810546875,0.000589610543102026,-0.0005474574863910675,-0.0008238404989242554
1772555554978240300,5.997240234375,-0.0018604975193738937,-0.0012779626995325089,-0.000598004087805748
1772555554988172300,6.00717236328125,-0.00002958672121167183,0.000557364895939827,0.0005426127463579178
1772555554998103000,6.01710302734375,-5.583278834819794e-7,-0.00019284803420305252,-0.0015061572194099426
1772555555008035000,6.02703515625,-0.0004698229022324085,-0.0031345877796411514,-0.0006850752979516983
1772555555017967000,6.036967041015625,-0.0002831351011991501,-0.001916457898914814,-0.002338632009923458
1772555555027899400,6.0468994140625,-0.0008053113706409931,-0.002846269868314266,-0.001784391701221466
1772555555037830100,6.056830078125,0.0008964487351477146,0.0005418043583631516,0.000954669900238514
1772555555047762200,6.06676220703125,0.0021209544502198696,0.0013735871762037277,-0.0013759685680270195
1772555555057694200,6.076694091796875,-0.00023301364853978157,0.00031897611916065216,0.001653376966714859
1772555555067625200,6.086625244140625,0.000665747094899416,0.0014698654413223267,-0.00021472759544849396
1772555555077557000,6.096556884765625,-0.0015819608233869076,0.0013926345854997635,-0.00042964424937963486
1772555555087489000,6.106489013671875,-0.000371620524674654,-0.0012766309082508087,-0.001144247129559517
1772555555097420300,6.116420166015625,0.001554910559207201,-0.00027128681540489197,0.00395357608795166
1772555555107352300,6.126352294921875,0.00010363804176449776,-0.0018075807020068169,0.0011880071833729744
1772555555117284400,6.136284423828125,0.0010218960233032703,0.0004896614700555801,-0.0006740754470229149
1772555555127215000,6.146215087890625,0.0008493922650814056,-0.0004049912095069885,0.0014060940593481064
1772555555137147100,6.156147216796875,0.0003409949131309986,-0.002043900080025196,0.0013927780091762543
1772555555147079200,6.1660791015625,0.0015383739955723286,0.0002819802612066269,0.0018206248059868813
1772555555157010200,6.17601025390625,0.0004123896360397339,0.0007363166660070419,0.00043178629130125046
1772555555166942200,6.185942138671875,-0.0009448262862861156,-0.001171087846159935,-0.0023518558591604233
1772555555176874200,6.195874267578125,0.002894120290875435,-0.000031521543860435486,-0.0031579947099089622
1772555555186805200,6.20580517578125,0.0009881793521344662,0.001648208126425743,0.0006869146600365639
1772555555196737300,6.2157373046875,0.0011325227096676826,0.0008836127817630768,-0.0006609112024307251
1772555555206669000,6.2256689453125,-0.001418303232640028,-0.0008766185492277145,-0.0018225079402327538
1772555555216601000,6.23560107421875,-0.0014571850188076496,-0.00022494327276945114,-0.00011861789971590042
1772555555226532000,6.245531982421875,0.0017154891975224018,-0.001789105124771595,-0.00011747516691684723
1772555555236464400,6.25546435546875,-0.003559434087947011,0.00039548613131046295,-0.0010847356170415878
1772555555246396400,6.265396484375,0.0008484558202326298,-0.0011976957321166992,0.0004471633583307266
1772555555256327200,6.2753271484375,0.0006162282079458237,0.00006783939898014069,-0.00028360728174448013
1772555555266259200,6.28525927734375,-0.001675998792052269,-0.0005146628245711327,-0.003080025315284729
1772555555276191200,6.295191162109375,-0.0018075588159263134,-0.0011197328567504883,0.00016157422214746475
1772555555286122000,6.3051220703125,0.0019307564944028854,-0.0004514157772064209,-0.0005706092342734337
1772555555296054000,6.315053955078125,0.0006625591777265072,-0.0007582120597362518,0.0011276882141828537
1772555555305986000,6.324986083984375,0.0009169853292405605,0.0013180281966924667,0.000013843178749084473
1772555555315917300,6.334917236328125,0.0003404105082154274,-0.0002574985846877098,0.00006684008985757828
1772555555325849300,6.344849365234375,0.0008841166272759438,0.0007533952593803406,0.00047159381210803986
1772555555335781000,6.354781005859375,-0.0016107326373457909,0.0004002600908279419,-0.0011313632130622864
1772555555345712000,6.364712158203125,-0.0002785976976156235,-0.0009734742343425751,-0.0012180265039205551
1772555555355644200,6.37464404296875,0.00005482975393533707,-0.0013812044635415077,-0.00024384167045354843
1772555555365576200,6.384576171875,-0.0010243440046906471,0.0012387894093990326,-0.0024072136729955673
1772555555375508200,6.39450830078125,0.00111071253195405,-0.0006110416725277901,0.000638110563158989
1772555555385439200,6.404439208984375,0.0026597026735544205,-0.0016259104013442993,-0.00006369035691022873
1772555555395371300,6.414371337890625,0.00010945973917841911,0.0011821258813142776,-0.0019870251417160034
1772555555405303300,6.42430322265625,0.0001813243143260479,0.0013105515390634537,0.00017116963863372803
1772555555415234000,6.434234130859375,-0.00043599633499979973,-0.0002620453014969826,-0.0009138025343418121
1772555555425166000,6.444166015625,-0.0006511388346552849,0.001820417121052742,-0.0021483981981873512
1772555555435098000,6.45409814453125,0.0010231905616819859,-0.0011519379913806915,0.0006295451894402504
1772555555445029400,6.464029296875,0.0021401727572083473,-0.00040675606578588486,0.0017626956105232239
1772555555454961400,6.47396142578125,0.002217404544353485,0.0006744880229234695,0.0011299289762973785
1772555555464893200,6.48389306640625,-0.0009062471799552441,0.0017589721828699112,0.0011087292805314064
1772555555474824200,6.49382421875,-0.0002673547714948654,-0.00047675054520368576,0.00003467593342065811
1772555555484756200,6.503756103515625,-0.0005977512337267399,-0.0016634995117783546,-0.002271447330713272
1772555555494688300,6.513688232421875,-0.002073941519483924,0.0034772008657455444,0.0004308624193072319
1772555555504619000,6.523618896484375,0.0013344455510377884,0.0003170408308506012,-0.0006053335964679718
1772555555514551000,6.533551025390625,0.000978115014731884,-0.0009652711451053619,-0.001003475859761238
1772555555524483300,6.5434833984375,0.0010630409233272076,0.0012024473398923874,0.0018372973427176476
1772555555534415000,6.5534150390625,0.0020233765244483948,-0.0001821313053369522,0.0006457995623350143
1772555555544346000,6.56334619140625,0.0027694986201822758,0.0009161345660686493,-0.0027561504393815994
1772555555554278100,6.573278076171875,0.00030208006501197815,-0.0003882814198732376,0.0015318049117922783
1772555555564210000,6.5832099609375,-0.001751053612679243,0.0021406542509794235,0.0006636083126068115
1772555555574141000,6.593140869140625,-0.0002953698858618736,0.00029588304460048676,0.0011107530444860458
1772555555584073000,6.603072998046875,0.0009329682216048241,-0.0012676762416958809,-0.001766708679497242
1772555555594005000,6.6130048828125,0.0021790610626339912,0.0006359517574310303,-0.0001499038189649582
1772555555603936000,6.62293603515625,0.0005333935841917992,0.0005777459591627121,-0.0016797175630927086
1772555555613868000,6.632867919921875,0.0005208766087889671,0.0015452727675437927,0.002103835344314575
1772555555623800000,6.642800048828125,-0.0013271630741655827,-0.0020496537908911705,-0.001448988914489746
1772555555633731000,6.65273095703125,0.00043531693518161774,0.0027464330196380615,-0.0013041133061051369
1772555555643662800,6.662662841796875,0.000597857404500246,0.0003658253699541092,-0.0008865892887115479
1772555555653595000,6.672594970703125,0.001454862765967846,0.0015504006296396255,0.0013374164700508118
1772555555663526100,6.682526123046875,0.0007949015125632286,0.0018011927604675293,0.0003862166777253151
1772555555673458200,6.692458251953125,-0.0013079307973384857,0.0011007804423570633,0.00012123212218284607
1772555555683390200,6.70239013671875,0.0009644743986427784,-0.0005911234766244888,-0.0000748923048377037
1772555555693322000,6.712322021484375,-0.0007873526774346828,-0.0024859625846147537,0.0005722558125853539
1772555555703253000,6.7222529296875,0.000049206893891096115,-0.00040822289884090424,-0.00020757224410772324
1772555555713185000,6.73218505859375,-0.0009116614237427711,0.00031668879091739655,-0.0017948169261217117
1772555555723117000,6.742116943359375,0.0021393042989075184,-0.000273093581199646,0.0007265005260705948
1772555555733048000,6.752048095703125,0.000003715045750141144,0.001550372689962387,0.0010961471125483513
1772555555742980000,6.76197998046875,-0.0005911742337048054,0.0007953085005283356,-0.0011817840859293938
1772555555752912100,6.771912109375,-0.0016013113781809807,-0.0021046074107289314,-0.0008699279278516769
1772555555762843100,6.781843017578125,0.0010781371966004372,0.00114540196955204,0.002372479997575283
1772555555772775000,6.79177490234375,0.0005252650007605553,0.0013123825192451477,0.000476042740046978
1772555555782707000,6.80170703125,0.0010147970169782639,0.0015800055116415024,-0.0018661897629499435
1772555555792638000,6.811637939453125,0.0011495533399283886,-0.00001309812068939209,0.0009064273908734322
1772555555802570000,6.821570068359375,0.0016388464719057083,-0.00060234684497118,0.0005129389464855194
1772555555812502000,6.831501953125,0.0010345750488340855,0.0002341531217098236,-0.00011503417044878006
1772555555822433000,6.84143310546875,-0.0010969326831400394,-0.0011613601818680763,-0.0012247562408447266
1772555555832365000,6.851364990234375,-0.0003296760842204094,-0.0017760181799530983,-0.0014814846217632294
1772555555842297000,6.861297119140625,-0.0010059601627290249,0.003022177144885063,-0.0021899016574025154
1772555555852229000,6.87122900390625,0.00046570226550102234,0.0003515593707561493,-0.00038294680416584015
1772555555862160000,6.881159912109375,0.0005882615223526955,0.0006067771464586258,0.00012686662375926971
1772555555872092000,6.891091796875,0.0019030640833079815,0.00018972530961036682,0.00023898575454950333
1772555555882024000,6.90102392578125,-0.0007774806581437588,-0.0007521994411945343,0.002548101358115673
1772555555891955200,6.910955078125,-0.00006641680374741554,-0.0012190518900752068,-0.0001864330843091011
1772555555901887000,6.920886962890625,0.0030298582278192043,-0.0002509988844394684,0.0000797836109995842
1772555555911819000,6.930819091796875,-0.0011390545405447483,0.0006225183606147766,0.00047419779002666473
1772555555921750000,6.94075,0.0021759457886219025,0.00024832040071487427,0.000277138315141201
1772555555931682000,6.95068212890625,0.0011346498504281044,0.00008293800055980682,0.00009630993008613586
1772555555941613800,6.96061376953125,-0.00008195312693715096,0.00008887797594070435,-0.0000015022233128547668
1772555555951545000,6.970545166015625,0.0019982419908046722,0.0014681294560432434,0.001219024881720543
1772555555961477000,6.98047705078125,-0.0007808064110577106,0.0003481842577457428,0.0007918514311313629
1772555555971409200,6.9904091796875,0.0007822024635970592,0.0011087823659181595,0.002909064292907715
1772555555981340000,7.00033984375,0.00017316779121756554,-0.002552513964474201,-0.001166350208222866
1772555555991272000,7.01027197265625,-0.0011453633196651936,-0.0005511483177542686,0.0004419330507516861
1772555556001204000,7.020203857421875,0.0018986864015460014,-0.00048786401748657227,0.0005714176222681999
1772555556011135000,7.030135009765625,-0.0007128091529011726,0.0007212106138467789,0.0005740812048316002
1772555556021067000,7.04006689453125,0.0007682954892516136,-0.0005202572792768478,0.0011678487062454224
1772555556030999000,7.0499990234375,0.00006602006033062935,-0.0008526202291250229,-0.0006849132478237152
1772555556040931000,7.05993115234375,0.00032510049641132355,0.0014406926929950714,0.0003345487639307976
1772555556050862000,7.069862060546875,0.0005858242511749268,-0.0007116738706827164,0.0011896900832653046
1772555556060794000,7.079794189453125,0.0008256495930254459,0.0004877261817455292,-0.00019053183495998383
1772555556070726000,7.089725830078125,0.0018962402828037739,-0.00350941251963377,0.0003341101109981537
1772555556080657000,7.099656982421875,-0.00017653405666351318,-0.0012711510062217712,-0.0018859747797250748
1772555556090589000,7.1095888671875,0.00035103829577565193,-0.0017417315393686295,-0.0016316426917910576
1772555556100521000,7.11952099609375,0.0012600473128259182,-0.000019196420907974243,-0.000845625065267086
1772555556110452000,7.129451904296875,-0.00020069628953933716,-0.0005140127614140511,0.0015038158744573593
1772555556120384000,7.139384033203125,-0.00039960257709026337,-0.0006043976172804832,-0.0010591475293040276
1772555556130316000,7.14931591796875,0.0016531622968614101,0.00007044710218906403,-0.0008199959993362427
1772555556140247000,7.1592470703125,-0.002659532008692622,0.0011823177337646484,-0.001114637590944767
1772555556150178800,7.1691787109375,0.0018353513441979885,0.0005317069590091705,0.00015329290181398392
1772555556160110800,7.17911083984375,0.0016646655276417732,0.0010333731770515442,0.0011774906888604164
1772555556170042000,7.1890419921875,0.0006803609430789948,-0.0011155325919389725,-0.0012363987043499947
1772555556179974100,7.19897412109375,0.0003127441741526127,0.0010004229843616486,-0.0011593084782361984
1772555556189906200,7.20890625,-0.0016910182312130928,0.0025871358811855316,-0.0007587689906358719
1772555556199838000,7.218837890625,-0.0012147515080869198,-0.000033542513847351074,0.0012971656396985054
1772555556209769000,7.22876904296875,-0.0017356658354401588,-0.0013720476999878883,-0.0006613228470087051
1772555556219701000,7.238700927734375,-0.0006196568720042706,-0.0003727450966835022,-0.002206789329648018
1772555556229633000,7.248633056640625,0.0011201859451830387,0.0028643272817134857,0.0004433225840330124
1772555556239564000,7.25856396484375,-0.0026717374566942453,0.0012649651616811752,-0.00008539017289876938
1772555556249496000,7.26849609375,0.0009163394570350647,-0.002208063378930092,-0.000559966079890728
1772555556259428000,7.278427978515625,0.0007902355864644051,0.0014374740421772003,0.0004773493856191635
1772555556269359000,7.288359130859375,-0.0016489536501467228,-0.00016574934124946594,0.0002951892092823982
1772555556279291000,7.298290771484375,-0.001448233611881733,-0.0001686587929725647,-0.0014542331919074059
1772555556289223000,7.308222900390625,0.0023678098805248737,-0.001330329105257988,0.0007833540439605713
1772555556299154000,7.31815380859375,-0.00036603258922696114,-0.00027168169617652893,-0.0005468819290399551
1772555556309086200,7.328086181640625,-0.0011029290035367012,-0.0025643976405262947,-0.0009439587593078613
1772555556319018200,7.338018310546875,0.0015366612933576107,-0.002801950089633465,0.0015427330508828163
1772555556328949000,7.347948974609375,0.0023489254526793957,0.0003773309290409088,0.0016276882961392403
1772555556338881000,7.357881103515625,0.002046134788542986,-0.0024937065318226814,-0.00018351618200540543
1772555556348813000,7.36781298828125,-0.0014234315603971481,0.0013132821768522263,-0.000009612180292606354
1772555556358743800,7.377743896484375,-0.0006853430531919003,0.001138037070631981,-0.00035605672746896744
1772555556368675800,7.38767578125,0.0007018977776169777,0.00042271241545677185,0.00041865650564432144
1772555556378607900,7.39760791015625,0.001534787006676197,-0.0011763814836740494,0.002634751610457897
1772555556388539100,7.4075390625,-0.0029827330727130175,0.0003975462168455124,-0.002325918525457382
1772555556398471200,7.41747119140625,0.00040475092828273773,0.0009341593831777573,0.00042437855154275894
1772555556408403000,7.42740283203125,0.002454852219671011,-0.0014107534661889076,0.0009940285235643387
1772555556418335000,7.4373349609375,-0.0005487450398504734,0.00165635347366333,0.0004666009917855263
1772555556428266000,7.447265869140625,-0.0008922931738197803,0.0023527704179286957,-0.0033766068518161774
1772555556438198000,7.457197998046875,0.00202186219394207,-0.003797002136707306,-0.0020169001072645187
1772555556448130000,7.467130126953125,-0.00059522595256567,0.00022463686764240265,-0.0017710896208882332
1772555556458061000,7.47706103515625,-0.0008045295253396034,0.00010363385081291199,0.00007551722228527069
1772555556467993000,7.4869931640625,0.0019422550685703754,-0.00004310533404350281,0.0038012792356312275
1772555556477925000,7.496925048828125,-0.0005195583216845989,0.000056589022278785706,0.0008062915876507759
1772555556487855900,7.50685595703125,-0.000757644884288311,0.00009786710143089294,-0.0012296950444579124
1772555556497788000,7.516787841796875,0.0003933529369533062,0.000932738184928894,-0.001005859114229679
1772555556507720000,7.526719970703125,-0.0010551405139267445,-0.00006887689232826233,-0.0017411578446626663
1772555556517651200,7.536651123046875,0.0019193245097994804,-0.0011362535879015923,0.002148594707250595
1772555556527583200,7.546583251953125,0.0013821646571159363,0.0003567151725292206,-0.0004093712195754051
1772555556537515300,7.556515380859375,0.0008333022706210613,-0.0009322995319962502,0.0010363031178712845
1772555556547446300,7.5664462890625,0.001462873537093401,0.0005018133670091629,-0.00011498108506202698
1772555556557378300,7.57637841796875,0.0009014480747282505,0.0005715042352676392,0.0005202870815992355
1772555556567310000,7.58631005859375,-0.0019270952325314283,0.0002410057932138443,-0.000765487551689148
1772555556577241000,7.596240966796875,-0.00006475672125816345,0.0006961897015571594,-0.0003120163455605507
1772555556587173000,7.606173095703125,-0.0004935259930789471,-0.003066057339310646,-0.0007828632369637489
1772555556597105200,7.616105224609375,0.0015422930009663105,-0.00048652850091457367,-0.0012522386386990547
1772555556607037200,7.626037109375,-0.0013483022339642048,0.0017449334263801575,-0.0015822043642401695
1772555556616968200,7.63596826171875,0.0005539213307201862,0.00036764703691005707,0.0018269401043653488
1772555556626900200,7.645900146484375,-0.0025963319931179285,0.0024507716298103333,-0.00002395734190940857
1772555556636832300,7.655832275390625,0.0005302485078573227,0.00004299357533454895,-0.0019660796970129013
1772555556646763000,7.665762939453125,0.00009029405191540718,-0.000646764412522316,-0.00021371990442276
1772555556656695000,7.675695068359375,-0.0017289002425968647,-0.0015898523852229118,0.0016677388921380043
1772555556666627000,7.685626953125,-0.0016897516325116158,-0.00010647252202033997,-0.002164549194276333
1772555556676558300,7.695558349609375,-0.0020375645253807306,0.0012493561953306198,0.0007489258423447609
1772555556686490400,7.705490478515625,-0.0018522082827985287,-0.0019853180274367332,-0.0017917295917868614
1772555556696422100,7.715422119140625,-0.0007125535048544407,0.0010662507265806198,0.00030685681849718094
1772555556706353200,7.725353271484375,-0.0002707354724407196,0.001463327556848526,-0.0003389604389667511
1772555556716285200,7.73528515625,0.0018891780637204647,0.0005864929407835007,0.0011051781475543976
1772555556726217200,7.74521728515625,0.0006465474143624306,0.0004392191767692566,-0.001456783153116703
1772555556736148200,7.755148193359375,0.00015671970322728157,-0.0004669046029448509,-0.0001575583592057228
1772555556746080300,7.765080322265625,0.0006062611937522888,0.00043803639709949493,-0.000664358027279377
1772555556756012300,7.77501220703125,-0.00041970331221818924,-0.0008381512016057968,-0.0015135183930397034
1772555556765943300,7.784943359375,0.00037152180448174477,-0.0005896780639886856,0.0005618836730718613
1772555556775875000,7.794875,-0.00006195949390530586,-0.0011021485552191734,-0.0014351783320307732
1772555556785807000,7.80480712890625,-0.00044998200610280037,-0.0010691257193684578,0.0004655197262763977
1772555556795738000,7.814738037109375,0.0004889704287052155,-0.00033475086092948914,0.0009985463693737984
1772555556805670100,7.824670166015625,0.0014722095802426338,-0.0008343597874045372,-0.002865167334675789
1772555556815602200,7.834602294921875,-0.000395885668694973,-0.002627491019666195,0.00042927544564008713
1772555556825534200,7.8445341796875,0.0020630103535950184,-0.0004053497686982155,0.0001041041687130928
1772555556835465200,7.85446533203125,-0.00043135974556207657,0.001239405944943428,0.00040336139500141144
1772555556845397200,7.864397216796875,-0.0000507943332195282,0.0003959834575653076,0.001309102401137352
1772555556855329300,7.874329345703125,0.00008327886462211609,0.001128166913986206,0.0009351540356874466
1772555556865260000,7.884260009765625,0.0014699865132570267,0.002383315935730934,0.0019040117040276527
1772555556875192000,7.894192138671875,0.0005332906730473042,-0.0013134665787220001,-0.00014293938875198364
1772555556885124000,7.9041240234375,-0.0026475887279957533,-0.0006458116695284843,-0.0011405590921640396
1772555556895055400,7.914055419921875,0.0008904044516384602,-0.0009386204183101654,-0.00011942628771066666
1772555556904987100,7.923987060546875,0.0021325023844838142,-0.0008334256708621979,-0.00024326331913471222
1772555556914919200,7.933919189453125,-0.0018761432729661465,-0.0011153826490044594,0.00021271873265504837
1772555556924850200,7.94385009765625,-0.0002667950466275215,-0.0005670376121997833,-0.000011519528925418854
1772555556934782200,7.9537822265625,0.0007615135982632637,0.0002575702965259552,0.0022250916808843613
1772555556944714200,7.96371435546875,0.0011047953739762306,-0.001031932421028614,0.0013803374022245407
1772555556954645200,7.973645263671875,-0.000694365706294775,-0.0004695458337664604,0.0006297146901488304
1772555556964577300,7.983577392578125,0.0005983323790132999,0.002041015774011612,-0.001137026585638523
1772555556974509300,7.99350927734375,-0.0018855384550988674,-0.000006040558218955994,-0.000708477571606636
1772555556984440000,8.003440185546875,-0.00007139332592487335,-0.00007927604019641876,0.0013336334377527237
1772555556994372000,8.0133720703125,-0.0005206945352256298,-0.0024444125592708588,0.0003723073750734329
1772555557004304100,8.02330419921875,-0.0007635750807821751,-0.000057954341173172,0.00007483270019292831
1772555557014236200,8.033236083984375,-0.0007600141689181328,0.00017283298075199127,0.002203322947025299
1772555557024167400,8.04316748046875,-0.0011834567412734032,0.0009616613388061523,-0.00006782077252864838
1772555557034099200,8.05309912109375,-0.00005703698843717575,0.00002981908619403839,-0.00033014919608831406
1772555557044031200,8.06303125,-0.0017121913842856884,-0.001168869435787201,0.0005151387304067612
1772555557053962200,8.072962158203126,-0.0006312164478003979,0.0009582601487636566,0.0006518550217151642
1772555557063894300,8.082894287109376,-0.003017142415046692,0.0016120672225952148,-0.0009526992216706276
1772555557073826000,8.092825927734374,-0.0015156329609453678,-0.00027812644839286804,-0.0006397459656000137
1772555557083757000,8.102757080078124,0.00018586032092571259,0.0028473585844039917,-0.0008256342262029648
1772555557093689000,8.112689208984374,-0.001196474302560091,0.0012934915721416473,0.0004940256476402283
1772555557103621000,8.12262109375,0.0003127390518784523,0.0007467437535524368,-0.0006101205945014954
1772555557113552100,8.13255224609375,-0.0008373311720788479,0.0016865376383066177,-0.0014766175299882889
1772555557123484200,8.142484130859375,-0.001600060611963272,-0.001131884753704071,-0.0019184360280632973
1772555557133416200,8.152416259765625,0.0012067132629454136,0.0009960979223251343,0.00284714438021183
1772555557143347200,8.16234716796875,0.0015329504385590553,0.0015942435711622238,-0.0004146946594119072
1772555557153279200,8.172279296875,0.002920808270573616,0.0015754476189613342,0.00024753157049417496
1772555557163211000,8.1822109375,0.0016262456774711609,-0.0003369683399796486,0.00259404256939888
1772555557173142300,8.192142333984375,-0.0009128861129283905,-0.0017344830557703972,-0.0004919217899441719
1772555557183074300,8.20207421875,0.0008724969811737537,-0.0014335457235574722,-0.0009603723883628845
1772555557193006300,8.21200634765625,-0.001460204366594553,0.00146450474858284,-0.0017612557858228683
1772555557202937000,8.22193701171875,-0.0005406150594353676,0.0027417559176683426,-0.0006342064589262009
1772555557212869000,8.231869140625,0.0011728378012776375,0.001124722883105278,0.002782796509563923
1772555557222801200,8.24180126953125,0.00032115867361426353,0.0020301993936300278,0.0008645216003060341
1772555557232732400,8.251732421875,-0.0005555218085646629,-0.00219854898750782,0.0007806532084941864
1772555557242664200,8.261664306640625,-0.0004098466597497463,0.0008041653782129288,-0.0007008630782365799
1772555557252596200,8.27159619140625,-0.002062290906906128,-0.001672171987593174,-0.0022268472239375114
1772555557262527200,8.28152734375,0.0010586674325168133,0.003529246896505356,0.0073829032480716705
1772555557272459300,8.291459228515626,0.0009535797871649265,0.02003651298582554,0.004594186786562204
1772555557282391000,8.30139111328125,-0.0014288844540715218,0.017934216186404228,0.003941712435334921
1772555557292323000,8.311322998046874,0.0016676471568644047,-0.00021999888122081757,0.0015860367566347122
1772555557302254000,8.321254150390626,-0.0008788676932454109,-0.0029800990596413612,-0.00023636408150196075
1772555557312186400,8.331186279296874,-0.0019631085451692343,-0.0020443592220544815,-0.0032141581177711487
1772555557322118400,8.341118408203124,0.0007647671736776829,-0.010588845238089561,-0.0021606115624308586
1772555557332049200,8.351049072265624,-0.0004103146493434906,-0.010683776810765266,-0.005248107016086578
1772555557341981200,8.360981201171874,0.0002853027544915676,-0.012129606679081917,-0.005092313513159752
1772555557351913200,8.370913330078125,0.000649506226181984,-0.008464732207357883,0.0005775466561317444
1772555557361844200,8.38084423828125,-0.001474098302423954,0.007878821343183517,0.000021212734282016754
1772555557371776000,8.39077587890625,0.0001736893318593502,0.0009717438369989395,-0.0019526267424225807
