time,seconds_elapsed,z,y,x
1772555828371485200,0.075485107421875,-0.5892655849456787,0.7498499751091003,-0.30925452709198
1772555828381416200,0.085416259765625,-0.6430202722549438,0.7558007836341858,-0.30296629667282104
1772555828391348200,0.09534814453125,-0.6777524352073669,0.7282692790031433,-0.30046769976615906
1772555828401279200,0.105279296875,-0.6971554160118103,0.6576908826828003,-0.2865411341190338
1772555828411211300,0.115211181640625,-0.720779538154602,0.5507779717445374,-0.2500068247318268
1772555828421142000,0.12514208984375,-0.7528518438339233,0.43512043356895447,-0.21135808527469635
1772555828431073300,0.1350732421875,-0.7911127209663391,0.3461780548095703,-0.1803351789712906
1772555828441005300,0.14500537109375,-0.8357585668563843,0.26308557391166687,-0.14830881357192993
1772555828450936000,0.15493603515625,-0.8795505166053772,0.15029990673065186,-0.09693378210067749
1772555828460868000,0.1648681640625,-0.9291952252388,0.013657506555318832,-0.0523553304374218
1772555828470799000,0.174799072265625,-0.9538955092430115,-0.07471230626106262,-0.050399504601955414
1772555828480731100,0.184731201171875,-0.9717704653739929,-0.11814422905445099,-0.073675736784935
1772555828490662100,0.194662109375,-0.9814428091049194,-0.13774137198925018,-0.11187851428985596
1772555828500593200,0.20459326171875,-0.9686921834945679,-0.1299796998500824,-0.14681462943553925
1772555828510525200,0.214525146484375,-0.9449631571769714,-0.12665553390979767,-0.1696339249610901
1772555828520456200,0.224456298828125,-0.9255678057670593,-0.17138807475566864,-0.15745863318443298
1772555828530388200,0.23438818359375,-0.9126922488212585,-0.2375820130109787,-0.13520658016204834
1772555828540319200,0.2443193359375,-0.9073168039321899,-0.28836584091186523,-0.12065060436725616
1772555828550250200,0.254250244140625,-0.927485466003418,-0.3149455189704895,-0.09716019779443741
1772555828560182000,0.26418212890625,-0.9767652153968811,-0.2621370553970337,0.043623752892017365
1772555828570113300,0.27411328125,-1.013554334640503,-0.18666891753673553,0.21614386141300201
1772555828580045300,0.28404541015625,-0.9883375763893127,-0.1635812520980835,0.3362986743450165
1772555828589976000,0.29397607421875,-0.876682698726654,-0.21688494086265564,0.37297120690345764
1772555828599908000,0.303908203125,-0.7126191854476929,-0.2956244647502899,0.330017626285553
1772555828609839000,0.313839111328125,-0.5547422170639038,-0.38994428515434265,0.2424459606409073
1772555828619770400,0.323770263671875,-0.4367930293083191,-0.5006833672523499,0.14313238859176636
1772555828629702100,0.3337021484375,-0.3592319190502167,-0.6074332594871521,0.047018639743328094
1772555828639633200,0.343633056640625,-0.315714955329895,-0.6625944375991821,-0.02691064588725567
1772555828649565200,0.353565185546875,-0.2976062595844269,-0.6467645764350891,-0.07013002783060074
1772555828659496200,0.36349609375,-0.2996690571308136,-0.5842791795730591,-0.11438696086406708
1772555828669427200,0.37342724609375,-0.30278974771499634,-0.47647014260292053,-0.1706201434135437
1772555828679359200,0.383359130859375,-0.31232643127441406,-0.34748226404190063,-0.23914961516857147
1772555828689290200,0.393290283203125,-0.32743003964424133,-0.2051996886730194,-0.30571693181991577
1772555828699222000,0.403221923828125,-0.3492567837238312,-0.07612786442041397,-0.36314040422439575
1772555828709153300,0.4131533203125,-0.3660182058811188,0.01739462837576866,-0.3908253014087677
1772555828719084300,0.423084228515625,-0.37783169746398926,0.08491252362728119,-0.36870601773262024
1772555828729016300,0.433016357421875,-0.3880814015865326,0.10727828741073608,-0.2822619378566742
1772555828738947000,0.442947021484375,-0.38352805376052856,0.1144135445356369,-0.15308362245559692
1772555828748879000,0.452879150390625,-0.35570788383483887,0.10970108211040497,-0.02846340462565422
1772555828758810400,0.462810302734375,-0.32186466455459595,0.09744201600551605,0.05856328457593918
1772555828768742100,0.4727421875,-0.2959257662296295,0.0785607248544693,0.09906996786594391
1772555828778673200,0.482673095703125,-0.2808389365673065,0.06351745873689651,0.09480814635753632
1772555828788604200,0.492604248046875,-0.27923890948295593,0.049506038427352905,0.05868503823876381
1772555828798536000,0.502535888671875,-0.2897302508354187,0.03961382806301117,0.0014213910326361656
1772555828808467200,0.51246728515625,-0.303225040435791,0.049758605659008026,-0.07149835675954819
1772555828818399200,0.522399169921875,-0.3227277398109436,0.06571438163518906,-0.1546344757080078
1772555828828330000,0.532330078125,-0.34090885519981384,0.08184648305177689,-0.22656086087226868
1772555828838261200,0.54226123046875,-0.3394051790237427,0.09408847242593765,-0.26910680532455444
1772555828848193300,0.552193359375,-0.32455140352249146,0.07266867160797119,-0.2791258692741394
1772555828858124300,0.562124267578125,-0.2933732569217682,0.009400870651006699,-0.25834935903549194
1772555828868056000,0.57205615234375,-0.2505778670310974,-0.05664339289069176,-0.22044220566749573
1772555828877987000,0.581987060546875,-0.20902849733829498,-0.11800029873847961,-0.18778342008590698
1772555828887919000,0.591919189453125,-0.17817656695842743,-0.1650298535823822,-0.15364836156368256
1772555828897850000,0.60185009765625,-0.15717676281929016,-0.19158661365509033,-0.1308460235595703
1772555828907781000,0.611781005859375,-0.15252982079982758,-0.19494247436523438,-0.11266061663627625
1772555828917713200,0.621713134765625,-0.1454845666885376,-0.17299388349056244,-0.1016559898853302
1772555828927644200,0.63164404296875,-0.1478494554758072,-0.13553652167320251,-0.09419221431016922
1772555828937576000,0.641575927734375,-0.15518999099731445,-0.08831336349248886,-0.0780772715806961
1772555828947507200,0.651507080078125,-0.16520506143569946,-0.04678802192211151,-0.05350082367658615
1772555828957438200,0.661438232421875,-0.1729036122560501,-0.011833831667900085,-0.03706004470586777
1772555828967370000,0.671369873046875,-0.17046761512756348,0.006050361320376396,-0.02828066796064377
1772555828977301200,0.68130126953125,-0.16331742703914642,0.023094719275832176,-0.02980443648993969
1772555828987233300,0.6912333984375,-0.14951053261756897,0.028811993077397346,-0.025924211367964745
1772555828997164300,0.701164306640625,-0.13362430036067963,0.03206532448530197,-0.014193277806043625
1772555829007095000,0.711094970703125,-0.11666716635227203,0.03215240687131882,0.01176961325109005
1772555829017027000,0.721027099609375,-0.10995572060346603,0.022918010130524635,0.039021167904138565
1772555829026958300,0.730958251953125,-0.10061255097389221,0.019861502572894096,0.05172843858599663
1772555829036890000,0.74089013671875,-0.09442064166069031,0.015152046456933022,0.0484287329018116
1772555829046821000,0.750821044921875,-0.08698642998933792,0.0046717096120119095,0.026668578386306763
1772555829056753200,0.760753173828125,-0.07630233466625214,-0.007582660764455795,0.0003357548266649246
1772555829066684200,0.77068408203125,-0.05410648137331009,-0.03540071099996567,-0.025458823889493942
1772555829076615200,0.780615234375,-0.018086619675159454,-0.08117540180683136,-0.036788422614336014
1772555829086547200,0.790547119140625,0.01539544016122818,-0.14129678905010223,-0.03248342126607895
1772555829096478200,0.800478271484375,0.04476751387119293,-0.1969505399465561,-0.0408860519528389
1772555829106410200,0.81041015625,0.053929321467876434,-0.25655102729797363,-0.056217338889837265
1772555829116341000,0.820341064453125,0.0558345727622509,-0.3133087456226349,-0.09211235493421555
1772555829126272300,0.830272216796875,0.04305725917220116,-0.34817299246788025,-0.15038152039051056
1772555829136204300,0.840204345703125,0.03850232809782028,-0.35782045125961304,-0.21547558903694153
1772555829146135000,0.850135009765625,0.037564896047115326,-0.347809374332428,-0.2933402955532074
1772555829156067000,0.860067138671875,0.035777315497398376,-0.3326367139816284,-0.3787607252597809
1772555829165998300,0.869998291015625,-0.02907838299870491,-0.24732951819896698,-0.4346197247505188
1772555829175929000,0.87992919921875,-0.13604646921157837,-0.08774368464946747,-0.3796607553958893
1772555829185861000,0.889861083984375,-0.15865859389305115,0.04573395103216171,-0.33513402938842773
1772555829195792100,0.899792236328125,-0.09428706765174866,0.1629990190267563,-0.2804042398929596
1772555829205724200,0.90972412109375,0.002657052595168352,0.2864469289779663,-0.23551185429096222
1772555829215655200,0.9196552734375,0.07119572907686234,0.32084622979164124,-0.2075762003660202
1772555829225587200,0.929587158203125,0.11451950669288635,0.3200584650039673,-0.20413513481616974
1772555829235518200,0.939518310546875,0.1462530940771103,0.314401239156723,-0.230752632021904
1772555829245449000,0.949448974609375,0.17717239260673523,0.28872090578079224,-0.2804200351238251
1772555829255381000,0.959381103515625,0.13588471710681915,0.4683922827243805,-0.24707141518592834
1772555829265312300,0.969312255859375,0.10668262094259262,0.5104705095291138,-0.18934980034828186
1772555829275244300,0.979244384765625,0.10444449633359909,0.5428659319877625,-0.13732756674289703
1772555829285175000,0.989175048828125,0.08701783418655396,0.5935226678848267,-0.08676745742559433
1772555829295106000,0.99910595703125,0.049651067703962326,0.6128397583961487,-0.04072017967700958
1772555829305038300,1.009038330078125,0.014801210723817348,0.5960323214530945,-0.0010806266218423843
1772555829314969000,1.018968994140625,-0.01777222380042076,0.5616073608398438,0.030883122235536575
1772555829324901000,1.028901123046875,-0.03155861049890518,0.4973093569278717,0.04963736608624458
1772555829334832000,1.03883203125,-0.03656521067023277,0.4103482663631439,0.05892602726817131
1772555829344763100,1.04876318359375,-0.032531850039958954,0.32920998334884644,0.047281622886657715
1772555829354695200,1.058695068359375,-0.02981371060013771,0.24589566886425018,0.02619600109755993
1772555829364626200,1.068626220703125,-0.021640736609697342,0.15198568999767303,0.0026768259704113007
1772555829374558200,1.07855810546875,-0.01067148894071579,0.04400906711816788,-0.004080989398062229
1772555829384489000,1.088489013671875,-0.005580324679613113,-0.05900093913078308,-0.002978706732392311
1772555829394421000,1.0984208984375,-0.005427141208201647,-0.13777410984039307,0.0033026267774403095
1772555829404352300,1.108352294921875,-0.015107732266187668,-0.18764978647232056,0.01983419805765152
1772555829414283000,1.118282958984375,-0.02247687056660652,-0.186808243393898,0.03839157149195671
1772555829424215000,1.128215087890625,-0.020645946264266968,-0.16503797471523285,0.0678035244345665
1772555829434146000,1.13814599609375,-0.023275189101696014,-0.15469901263713837,0.10813607275485992
1772555829444078000,1.148078125,-0.03379840403795242,-0.15962134301662445,0.15768179297447205
1772555829454009000,1.158009033203125,-0.058161962777376175,-0.17493228614330292,0.19888131320476532
1772555829463940000,1.167940185546875,-0.08600052446126938,-0.18852931261062622,0.2366960644721985
1772555829473872100,1.1778720703125,-0.1113811507821083,-0.18029777705669403,0.26654523611068726
1772555829483803100,1.18780322265625,-0.12421172857284546,-0.1401791274547577,0.27770495414733887
1772555829493735200,1.197735107421875,-0.13039490580558777,-0.09294842928647995,0.2854054570198059
1772555829503666200,1.207666259765625,-0.12625503540039062,-0.05310594290494919,0.2756372392177582
1772555829513597200,1.21759716796875,-0.1119147539138794,-0.01455730851739645,0.2603969871997833
1772555829523529000,1.227529052734375,-0.08131982386112213,0.010969623923301697,0.22876743972301483
1772555829533460200,1.237460205078125,-0.04152830317616463,0.0012760069221258163,0.1980636566877365
1772555829543392300,1.247392333984375,-0.012631671503186226,-0.038630127906799316,0.15747761726379395
1772555829553323000,1.257322998046875,-0.003363990457728505,-0.09764346480369568,0.12240371853113174
1772555829563255000,1.267255126953125,-0.0279976986348629,-0.16787953674793243,0.09214913845062256
1772555829573186000,1.27718603515625,-0.0753578320145607,-0.23595371842384338,0.0816204696893692
1772555829583117300,1.287117431640625,-0.13100191950798035,-0.29397040605545044,0.07952748239040375
1772555829593049000,1.297049072265625,-0.17960429191589355,-0.34170734882354736,0.09173941612243652
1772555829602980000,1.30697998046875,-0.2092074602842331,-0.3528239130973816,0.10418516397476196
1772555829612912000,1.316912109375,-0.21460598707199097,-0.326373815536499,0.09860143065452576
1772555829622843400,1.326843505859375,-0.20851880311965942,-0.2637013792991638,0.08392047882080078
1772555829632774100,1.336774169921875,-0.18957290053367615,-0.188645139336586,0.07329627126455307
1772555829642706200,1.3467060546875,-0.16460281610488892,-0.12045755982398987,0.07487605512142181
1772555829652637200,1.35663720703125,-0.1430065631866455,-0.07817544043064117,0.09454840421676636
1772555829662569000,1.36656884765625,-0.13121674954891205,-0.04886895418167114,0.12664775550365448
1772555829672500200,1.376500244140625,-0.13069342076778412,-0.039799824357032776,0.16860613226890564
1772555829682431200,1.38643115234375,-0.1374988704919815,-0.04281558841466904,0.21573156118392944
1772555829692363300,1.39636328125,-0.14202195405960083,-0.0624082125723362,0.25645118951797485
1772555829702294000,1.4062939453125,-0.13778913021087646,-0.08816524595022202,0.2866455912590027
1772555829712226000,1.41622607421875,-0.1324201375246048,-0.11144531518220901,0.30138537287712097
1772555829722157300,1.4261572265625,-0.11202353239059448,-0.13222143054008484,0.30874794721603394
1772555829732089000,1.436089111328125,-0.07022813707590103,-0.13506504893302917,0.30877000093460083
1772555829742020000,1.44602001953125,-0.02466677874326706,-0.13761715590953827,0.30800700187683105
1772555829751951000,1.455951171875,0.023360466584563255,-0.12384660542011261,0.30545151233673096
1772555829761883100,1.465883056640625,0.057365573942661285,-0.09701178967952728,0.3075346350669861
1772555829771814100,1.475814208984375,0.0832526832818985,-0.04893580079078674,0.30771660804748535
1772555829781746200,1.48574609375,0.10070544481277466,0.00029752589762210846,0.3042702078819275
1772555829791677200,1.49567724609375,0.12413318455219269,0.025743786245584488,0.2966613471508026
1772555829801608200,1.505608154296875,0.1470898985862732,0.04019995778799057,0.2682504653930664
1772555829811540200,1.515540283203125,0.16873568296432495,0.049252547323703766,0.21477052569389343
1772555829821471000,1.525470947265625,0.17892654240131378,0.03784915804862976,0.14588627219200134
1772555829831403000,1.535403076171875,0.17404164373874664,0.01799696497619152,0.07306291162967682
1772555829841334000,1.545333984375,0.165908083319664,0.005642827600240707,-0.009604271501302719
1772555829851265000,1.55526513671875,0.14874272048473358,0.0013083573430776596,-0.08459191769361496
1772555829861197000,1.565197021484375,0.1316114068031311,-0.0018493514508008957,-0.14892350137233734
1772555829871128000,1.575128173828125,0.11950218677520752,-0.01004168763756752,-0.20838399231433868
1772555829881060000,1.58506005859375,0.10430379211902618,-0.015862824395298958,-0.2624317705631256
1772555829890990800,1.594990966796875,0.08576912432909012,-0.020323755219578743,-0.29631349444389343
1772555829900923100,1.604923095703125,0.0584951676428318,-0.022303549572825432,-0.313789963722229
1772555829910854100,1.614854248046875,0.027152713388204575,-0.017733728513121605,-0.3156449794769287
1772555829920785000,1.624784912109375,-0.007916323840618134,-0.010524552315473557,-0.29428964853286743
1772555829930717000,1.634717041015625,-0.048844464123249054,0.00419263169169426,-0.26062169671058655
1772555829940648200,1.644648193359375,-0.09087713807821274,0.024578064680099487,-0.21359962224960327
1772555829950580200,1.654580322265625,-0.13978362083435059,0.04127867892384529,-0.14994215965270996
1772555829960511000,1.664510986328125,-0.18812905251979828,0.06520158052444458,-0.08123766630887985
1772555829970442000,1.67444189453125,-0.23465505242347717,0.0934419259428978,0.0009367857128381729
1772555829980374000,1.6843740234375,-0.26325660943984985,0.10614786297082901,0.08225827664136887
1772555829990305000,1.694304931640625,-0.26623451709747314,0.08355816453695297,0.16099350154399872
1772555830000237000,1.704237060546875,-0.24847227334976196,0.038331031799316406,0.22561536729335785
1772555830010168000,1.71416796875,-0.21787172555923462,-0.007504143752157688,0.26371222734451294
1772555830020099000,1.72409912109375,-0.1814146488904953,-0.04074252396821976,0.26846277713775635
1772555830030030800,1.73403076171875,-0.14633741974830627,-0.0745079517364502,0.24903251230716705
1772555830039962000,1.743962158203125,-0.10985397547483444,-0.10063409060239792,0.20458249747753143
1772555830049894100,1.75389404296875,-0.07371843606233597,-0.1162790060043335,0.15057429671287537
1772555830059825200,1.7638251953125,-0.04284467548131943,-0.12231053411960602,0.0993017926812172
1772555830069756000,1.773755859375,-0.013077653013169765,-0.13195551931858063,0.06352879106998444
1772555830079688200,1.783688232421875,0.019374828785657883,-0.13819929957389832,0.03654325008392334
1772555830089619200,1.793619140625,0.050139375030994415,-0.14734438061714172,0.019864914938807487
1772555830099551000,1.803551025390625,0.07895824313163757,-0.13622461259365082,0.007978161796927452
1772555830109482000,1.81348193359375,0.10894548892974854,-0.10852491855621338,0.0038727871142327785
1772555830119413200,1.823413330078125,0.13312804698944092,-0.07696779072284698,0.009476344101130962
1772555830129345300,1.83334521484375,0.15793992578983307,-0.048621904104948044,0.021966837346553802
1772555830139276000,1.843276123046875,0.18818224966526031,-0.02922317199409008,0.04319329559803009
1772555830149208000,1.8532080078125,0.21495221555233002,-0.012951398268342018,0.05512354522943497
1772555830159139000,1.86313916015625,0.2277068942785263,0.0014054365456104279,0.06263180077075958
1772555830169070800,1.87307080078125,0.22242490947246552,0.013047851622104645,0.07042491436004639
1772555830179002000,1.883002197265625,0.21028515696525574,0.007400086149573326,0.07583939284086227
1772555830188933000,1.89293310546875,0.19928096234798431,-0.01616808958351612,0.08382807672023773
1772555830198865200,1.902865234375,0.18096508085727692,-0.05648781731724739,0.09175417572259903
1772555830208796000,1.9127958984375,0.15861724317073822,-0.10768342763185501,0.09863223135471344
1772555830218728200,1.922728271484375,0.13955779373645782,-0.1540951430797577,0.10887767374515533
1772555830228659200,1.9326591796875,0.12488481402397156,-0.17265594005584717,0.12827429175376892
1772555830238590000,1.94258984375,0.11394374817609787,-0.18217433989048004,0.16061440110206604
1772555830248522000,1.95252197265625,0.10295750945806503,-0.2016371488571167,0.20525605976581573
1772555830258453200,1.962453369140625,0.09936197102069855,-0.22294776141643524,0.25522416830062866
1772555830268385300,1.97238525390625,0.09168221801519394,-0.2426535040140152,0.30709946155548096
1772555830278316000,1.98231591796875,0.08712821453809738,-0.25105178356170654,0.3497438430786133
1772555830288247000,1.9922470703125,0.08522416651248932,-0.26042640209198,0.382129043340683
1772555830298179000,2.002178955078125,0.08149174600839615,-0.26820284128189087,0.39588427543640137
1772555830308110000,2.012110107421875,0.08434425294399261,-0.2785075604915619,0.39215296506881714
1772555830318042000,2.0220419921875,0.09124956279993057,-0.2807089388370514,0.37189191579818726
1772555830327973000,2.03197314453125,0.105439692735672,-0.2613055109977722,0.3408881425857544
1772555830337903900,2.04190380859375,0.11162621527910233,-0.21373507380485535,0.3106553852558136
1772555830347836000,2.0518359375,0.11200496554374695,-0.1536039561033249,0.29923540353775024
1772555830357767200,2.06176708984375,0.08734302967786789,-0.13875016570091248,0.31552064418792725
1772555830367699200,2.07169921875,0.043387193232774734,-0.17799821496009827,0.3704609274864197
1772555830377630000,2.0816298828125,-0.014486224390566349,-0.23334455490112305,0.4365456700325012
1772555830387562000,2.09156201171875,-0.08306131511926651,-0.27078917622566223,0.4934304654598236
1772555830397493200,2.1014931640625,-0.14910770952701569,-0.2553308606147766,0.5361015200614929
1772555830407424000,2.111424072265625,-0.20000970363616943,-0.18941763043403625,0.5500298738479614
1772555830417356000,2.12135595703125,-0.24238166213035583,-0.10355492681264877,0.5647960305213928
1772555830427287000,2.131287109375,-0.2703743577003479,-0.001982465386390686,0.5818977355957031
1772555830437219000,2.141218994140625,-0.27388864755630493,0.10150690376758575,0.6168184280395508
1772555830447150000,2.151150146484375,-0.2534109950065613,0.18906795978546143,0.6562280058860779
1772555830457081000,2.1610810546875,-0.20516012609004974,0.24645748734474182,0.6907769441604614
1772555830467013000,2.17101318359375,-0.1491423398256302,0.24970754981040955,0.7335107326507568
1772555830476944000,2.18094384765625,-0.08905129879713058,0.19282881915569305,0.7782235741615295
1772555830486876000,2.1908759765625,-0.043136924505233765,0.09891095757484436,0.8247643113136292
1772555830496807200,2.20080712890625,-0.005683824419975281,-0.017617778852581978,0.8745515942573547
1772555830506738000,2.210738037109375,0.013835284858942032,-0.15826430916786194,0.9267386794090271
1772555830516670000,2.220669921875,0.012142844498157501,-0.32214778661727905,0.9732406735420227
1772555830526601000,2.23060107421875,-0.007921191863715649,-0.48152774572372437,1.016815423965454
1772555830536533000,2.240532958984375,-0.032719481736421585,-0.6067985892295837,1.042386770248413
1772555830546464000,2.250464111328125,-0.062333375215530396,-0.7043416500091553,1.0398766994476318
1772555830556396000,2.26039599609375,-0.09188514202833176,-0.7695310115814209,1.0157016515731812
1772555830566327000,2.2703271484375,-0.11447227746248245,-0.7940788269042969,0.9714547991752625
1772555830576258300,2.28025830078125,-0.1392521858215332,-0.7965534329414368,0.9063948392868042
1772555830586190000,2.290190185546875,-0.15121117234230042,-0.767123281955719,0.8298383951187134
1772555830596121000,2.30012109375,-0.17153695225715637,-0.7161408066749573,0.746628999710083
1772555830606053000,2.31005322265625,-0.1830863654613495,-0.6473230123519897,0.6610022187232971
1772555830615983900,2.31998388671875,-0.18591012060642242,-0.552342414855957,0.5739562511444092
1772555830625915100,2.3299150390625,-0.17713919281959534,-0.4378400444984436,0.48606011271476746
1772555830635847200,2.33984716796875,-0.15308205783367157,-0.2984062433242798,0.3973107933998108
1772555830645778200,2.349778076171875,-0.13066306710243225,-0.15085770189762115,0.30612313747406006
1772555830655710000,2.3597099609375,-0.10273769497871399,-0.014856718480587006,0.21590907871723175
1772555830665641000,2.369640869140625,-0.07222522050142288,0.10118135064840317,0.1339218020439148
1772555830675572200,2.379572265625,-0.043731797486543655,0.19616912305355072,0.059662748128175735
1772555830685504000,2.38950390625,-0.01000225730240345,0.26773297786712646,-0.0005692541599273682
1772555830695435000,2.39943505859375,0.036656588315963745,0.30860769748687744,-0.061982546001672745
1772555830705367000,2.409366943359375,0.07201030105352402,0.32169708609580994,-0.11729030311107635
1772555830715298000,2.419298095703125,0.08246880024671555,0.32112398743629456,-0.1697167605161667
1772555830725230000,2.42922998046875,0.06695285439491272,0.3131418824195862,-0.21882560849189758
1772555830735161000,2.4391611328125,0.03727192431688309,0.3092944025993347,-0.2650436758995056
1772555830745092000,2.449092041015625,0.007188419345766306,0.30320504307746887,-0.30401164293289185
1772555830755024000,2.45902392578125,-0.02342861145734787,0.27612391114234924,-0.32246682047843933
1772555830764955100,2.468955078125,-0.05411231517791748,0.23411524295806885,-0.32746127247810364
1772555830774887200,2.47888720703125,-0.07771991193294525,0.18946707248687744,-0.3304746150970459
1772555830784818200,2.488818115234375,-0.10117436945438385,0.1374153196811676,-0.33898210525512695
1772555830794749200,2.498749267578125,-0.1231079027056694,0.07486166059970856,-0.3628019392490387
1772555830804681000,2.508680908203125,-0.1526610404253006,0.02031017653644085,-0.4038999080657959
1772555830814612200,2.5186123046875,-0.18664562702178955,-0.02632177248597145,-0.45057499408721924
1772555830824544300,2.528544189453125,-0.22411410510540009,-0.07926676422357559,-0.4903910756111145
1772555830834475000,2.53847509765625,-0.2600249648094177,-0.12010234594345093,-0.5155172348022461
1772555830844406000,2.548406005859375,-0.287979394197464,-0.13704940676689148,-0.5158149600028992
1772555830854338000,2.558338134765625,-0.2979697287082672,-0.13838578760623932,-0.5000376105308533
1772555830864269300,2.568269287109375,-0.2911193370819092,-0.12880612909793854,-0.4790457785129547
1772555830874201000,2.578201171875,-0.2739773690700531,-0.10303045064210892,-0.45863640308380127
1772555830884132000,2.588132080078125,-0.2516056299209595,-0.05811695754528046,-0.44606781005859375
1772555830894064000,2.598064208984375,-0.2303629219532013,0.003922181203961372,-0.42201733589172363
1772555830903995100,2.6079951171875,-0.21078993380069733,0.07579442113637924,-0.3868853449821472
1772555830913926100,2.617926025390625,-0.184798002243042,0.14282912015914917,-0.3293280601501465
1772555830923858200,2.627858154296875,-0.1520582139492035,0.1935950666666031,-0.2666076123714447
1772555830933789200,2.6377890625,-0.11314703524112701,0.23771031200885773,-0.21579423546791077
1772555830943721000,2.647720947265625,-0.07489954680204391,0.2686114013195038,-0.19024772942066193
1772555830953652200,2.65765234375,-0.04058418422937393,0.2879323661327362,-0.19722308218479156
1772555830963583200,2.667583251953125,-0.009774246253073215,0.2887378931045532,-0.24386107921600342
1772555830973515000,2.677514892578125,0.020873676985502243,0.29167109727859497,-0.3025273084640503
1772555830983446000,2.687446044921875,0.04619080573320389,0.29670339822769165,-0.35484498739242554
1772555830993378000,2.6973779296875,0.06566090881824493,0.27969831228256226,-0.3873744606971741
1772555831003309300,2.707309326171875,0.08490785956382751,0.2379458099603653,-0.3922313451766968
1772555831013240000,2.717239990234375,0.10837750136852264,0.17702627182006836,-0.3864229619503021
1772555831023172000,2.727172119140625,0.12332037836313248,0.131722092628479,-0.3682490885257721
1772555831033103000,2.73710302734375,0.1405092179775238,0.1165790855884552,-0.35620176792144775
1772555831043035100,2.74703515625,0.15438173711299896,0.1179618313908577,-0.3283613920211792
1772555831052966100,2.756966064453125,0.1720893681049347,0.1437326967716217,-0.2919360101222992
1772555831062898200,2.766898193359375,0.19716131687164307,0.20268841087818146,-0.23792226612567902
1772555831072829200,2.7768291015625,0.23023617267608643,0.2788545787334442,-0.17408150434494019
1772555831082760200,2.78676025390625,0.2772558927536011,0.36594972014427185,-0.11929378658533096
1772555831092692200,2.796692138671875,0.33041977882385254,0.46636873483657837,-0.07650371640920639
1772555831102623200,2.806623291015625,0.3824722170829773,0.5662397742271423,-0.05328763276338577
1772555831112555300,2.81655517578125,0.43236708641052246,0.6466384530067444,-0.04333247244358063
1772555831122486000,2.826486083984375,0.466207355260849,0.6942630410194397,-0.03548784554004669
1772555831132417300,2.836417236328125,0.4845924973487854,0.6811280250549316,-0.017881687730550766
1772555831142349300,2.846349365234375,0.47218531370162964,0.6203106045722961,0.017421284690499306
1772555831152280000,2.856280029296875,0.4355553984642029,0.5469831228256226,0.060084860771894455
1772555831162212000,2.866212158203125,0.40799272060394287,0.47962063550949097,0.09708637744188309
1772555831172143000,2.87614306640625,0.3991800546646118,0.4184526205062866,0.11530107259750366
1772555831182074000,2.88607421875,0.40696093440055847,0.356913685798645,0.11310353875160217
1772555831192006100,2.896006103515625,0.41363242268562317,0.2969531714916229,0.09119823575019836
1772555831201937200,2.905937255859375,0.4098500907421112,0.24557176232337952,0.06813415884971619
1772555831211869200,2.915869140625,0.38748645782470703,0.20398278534412384,0.050598304718732834
1772555831221800200,2.92580029296875,0.3472469747066498,0.16254541277885437,0.045215681195259094
1772555831231732200,2.935732177734375,0.29247695207595825,0.11919741332530975,0.04433790221810341
1772555831241663200,2.945663330078125,0.2375270575284958,0.08632709085941315,0.04302200675010681
1772555831251594000,2.955593994140625,0.1799926608800888,0.07244296371936798,0.02700149640440941
1772555831261526000,2.965526123046875,0.12799233198165894,0.061039093881845474,-0.005003816448152065
1772555831271457300,2.975457275390625,0.07652515172958374,0.041595619171857834,-0.038371361792087555
1772555831281389300,2.985389404296875,0.038346629589796066,0.01860213465988636,-0.0725744217634201
1772555831291320000,2.995320068359375,0.01651749573647976,-0.009562656283378601,-0.09052467346191406
1772555831301251000,3.0052509765625,0.013712245970964432,-0.04045671969652176,-0.08746413886547089
1772555831311183000,3.01518310546875,0.027234448119997978,-0.08047977089881897,-0.04860302433371544
1772555831321114000,3.025114013671875,0.056585121899843216,-0.13087081909179688,0.014743167906999588
1772555831331046100,3.035046142578125,0.10227883607149124,-0.18248900771141052,0.09763751924037933
1772555831340977200,3.04497705078125,0.14776265621185303,-0.21655845642089844,0.1833658367395401
1772555831350908200,3.054908203125,0.19233225286006927,-0.22266799211502075,0.2522658109664917
1772555831360840200,3.064840087890625,0.2492089867591858,-0.18396314978599548,0.3037034273147583
1772555831370771200,3.074771240234375,0.310276597738266,-0.10217134654521942,0.33516359329223633
1772555831380703200,3.084703125,0.36604389548301697,-0.005033369176089764,0.3637106120586395
1772555831390634000,3.094634033203125,0.4215095341205597,0.07327262312173843,0.3878774642944336
1772555831400565200,3.104565185546875,0.49096575379371643,0.12696361541748047,0.4056030213832855
1772555831410497300,3.114497314453125,0.564328670501709,0.15709488093852997,0.39696717262268066
1772555831420428000,3.124427978515625,0.6347657442092896,0.18831855058670044,0.352223664522171
1772555831430360000,3.134360107421875,0.689878523349762,0.23663228750228882,0.27456027269363403
1772555831440291000,3.144291015625,0.729616105556488,0.30639979243278503,0.18150292336940765
1772555831450223000,3.15422314453125,0.7483498454093933,0.368343323469162,0.07998614758253098
1772555831460154000,3.164154052734375,0.7508031725883484,0.41716688871383667,-0.020760830491781235
1772555831470085000,3.174085205078125,0.7413728833198547,0.4481375813484192,-0.13421602547168732
1772555831480017200,3.18401708984375,0.7237386107444763,0.4798310697078705,-0.2724285423755646
1772555831489948200,3.1939482421875,0.6892687678337097,0.49345847964286804,-0.4247419238090515
1772555831499880200,3.203880126953125,0.6393536329269409,0.44854608178138733,-0.5553697347640991
1772555831509811200,3.213811279296875,0.5802533030509949,0.3493630290031433,-0.641811728477478
1772555831519742200,3.2237421875,0.5230256915092468,0.22235850989818573,-0.6808022260665894
1772555831529674000,3.233674072265625,0.4606070816516876,0.1032547652721405,-0.682247519493103
1772555831539605200,3.243605224609375,0.3978801369667053,0.008279819041490555,-0.6418137550354004
1772555831549537300,3.253537353515625,0.3436368703842163,-0.0626276433467865,-0.5657509565353394
1772555831559468000,3.263468017578125,0.29063698649406433,-0.11175213754177094,-0.46188318729400635
1772555831569400000,3.273400146484375,0.2527564465999603,-0.13200467824935913,-0.3397572636604309
1772555831579331000,3.2833310546875,0.21562105417251587,-0.12817318737506866,-0.21408139169216156
1772555831589262300,3.293262451171875,0.19192664325237274,-0.10583805292844772,-0.09996466338634491
1772555831599194000,3.303194091796875,0.16719672083854675,-0.0779169350862503,0.0026128236204385757
1772555831609125000,3.313125,0.14436037838459015,-0.05465395376086235,0.08051826804876328
1772555831619057200,3.32305712890625,0.1362331509590149,-0.021243728697299957,0.12682540714740753
1772555831628988200,3.33298828125,0.13865315914154053,0.007724538445472717,0.15045270323753357
1772555831638919200,3.342919189453125,0.1401640772819519,0.021909844130277634,0.1467234045267105
1772555831648851200,3.352851318359375,0.14532768726348877,0.019033897668123245,0.13037453591823578
1772555831658782200,3.3627822265625,0.1511940360069275,-0.0007846420630812645,0.10920289158821106
1772555831668714000,3.3727138671875,0.14951996505260468,-0.04067027196288109,0.08194597065448761
1772555831678645200,3.382645263671875,0.14238257706165314,-0.07706410437822342,0.053696051239967346
1772555831688576300,3.392576171875,0.12899166345596313,-0.11259440332651138,0.019334878772497177
1772555831698508300,3.40250830078125,0.11841486394405365,-0.13178721070289612,-0.012945208698511124
1772555831708439000,3.41243896484375,0.09941799938678741,-0.15432633459568024,-0.049231842160224915
1772555831718371000,3.42237109375,0.08181121200323105,-0.17623671889305115,-0.08069207519292831
1772555831728302300,3.43230224609375,0.051409363746643066,-0.19685891270637512,-0.10675563663244247
1772555831738234000,3.442234130859375,0.014451594091951847,-0.21253053843975067,-0.13073252141475677
1772555831748165000,3.4521650390625,-0.022557556629180908,-0.22234748303890228,-0.1460941582918167
1772555831758096100,3.46209619140625,-0.052999019622802734,-0.22434177994728088,-0.15478691458702087
1772555831768028200,3.472028076171875,-0.08126101642847061,-0.21098336577415466,-0.14978016912937164
1772555831777959200,3.481959228515625,-0.10128585249185562,-0.1916482299566269,-0.12857066094875336
1772555831787891200,3.49189111328125,-0.11768373101949692,-0.17339758574962616,-0.09808944165706635
1772555831797822500,3.501822509765625,-0.1244211420416832,-0.16954520344734192,-0.05753198266029358
1772555831807753500,3.51175341796875,-0.1174953281879425,-0.15393267571926117,-0.02325097657740116
1772555831817685500,3.521685546875,-0.1046840250492096,-0.1214699000120163,0.0038185701705515385
1772555831827616500,3.531616455078125,-0.09218420833349228,-0.07776689529418945,0.02126254141330719
1772555831837548500,3.541548583984375,-0.08636564016342163,-0.047017257660627365,0.03365229815244675
1772555831847479600,3.5514794921875,-0.0788739025592804,-0.0208120197057724,0.040736306458711624
1772555831857410300,3.561410400390625,-0.07383423298597336,-0.0070038288831710815,0.032752372324466705
1772555831867342600,3.571342529296875,-0.06424233317375183,-0.010540774092078209,0.01822376251220703
1772555831877273600,3.581273681640625,-0.05985294654965401,-0.04266465827822685,-0.007237054407596588
1772555831887205600,3.59120556640625,-0.05924974009394646,-0.10168696939945221,-0.029015319421887398
1772555831897136400,3.601136474609375,-0.06718038022518158,-0.18353641033172607,-0.05072510242462158
1772555831907068400,3.611068359375,-0.08231272548437119,-0.2799643874168396,-0.060366541147232056
1772555831916999700,3.620999755859375,-0.11236724257469177,-0.3810940086841583,-0.053808774799108505
1772555831926930400,3.630930419921875,-0.1418369859457016,-0.4579017162322998,-0.03844739496707916
1772555831936862500,3.640862548828125,-0.15036341547966003,-0.4772074222564697,-0.025045569986104965
1772555831946793500,3.65079345703125,-0.1358795464038849,-0.43939852714538574,-0.011361982673406601
1772555831956725500,3.6607255859375,-0.10153909772634506,-0.34614241123199463,-0.004154134541749954
1772555831966656500,3.670656494140625,-0.05766218900680542,-0.21811681985855103,-0.003933358937501907
1772555831976587500,3.68058740234375,-0.00485872570425272,-0.0762380063533783,0.001216617412865162
1772555831986519600,3.69051953125,0.036123860627412796,0.07150325179100037,0.018360450863838196
1772555831996450300,3.7004501953125,0.060956768691539764,0.22523050010204315,0.04670846834778786
1772555832006382600,3.710382568359375,0.07050606608390808,0.38982582092285156,0.08538742363452911
1772555832016313600,3.720313720703125,0.058559808880090714,0.5003544092178345,0.13497008383274078
1772555832026244600,3.73024462890625,0.019868604838848114,0.5506143569946289,0.2068445384502411
1772555832036176400,3.74017626953125,-0.036567218601703644,0.5326545834541321,0.2897658050060272
1772555832046107600,3.750107666015625,-0.11603167653083801,0.42800062894821167,0.3743848204612732
1772555832056039700,3.760039794921875,-0.2095109075307846,0.24089446663856506,0.4465315341949463
1772555832065970400,3.769970458984375,-0.31593480706214905,0.0039492882788181305,0.49766793847084045
1772555832075902500,3.77990234375,-0.4111124277114868,-0.25428178906440735,0.5136882066726685
1772555832085833500,3.78983349609375,-0.4824635684490204,-0.49566778540611267,0.506019651889801
1772555832095764700,3.7997646484375,-0.5289297699928284,-0.7069790959358215,0.48515939712524414
1772555832105696500,3.809696533203125,-0.5525949001312256,-0.8648619651794434,0.4633904695510864
1772555832115627500,3.81962744140625,-0.5623626112937927,-0.970514714717865,0.43492138385772705
1772555832125559600,3.8295595703125,-0.5724861025810242,-1.0310430526733398,0.39620596170425415
1772555832135490300,3.839490234375,-0.5672577023506165,-1.0358490943908691,0.3436865508556366
1772555832145421600,3.849421630859375,-0.5516342520713806,-0.9891599416732788,0.2828335762023926
1772555832155353600,3.859353515625,-0.5222337245941162,-0.8975062966346741,0.2123495191335678
1772555832165284600,3.86928466796875,-0.47265341877937317,-0.7730874419212341,0.1339854747056961
1772555832175216400,3.87921630859375,-0.39828747510910034,-0.6293860673904419,0.06546886265277863
1772555832185147600,3.889147705078125,-0.30666646361351013,-0.4804413616657257,0.007644977420568466
1772555832195079700,3.89907958984375,-0.20079576969146729,-0.3489605188369751,-0.028515957295894623
1772555832205010400,3.909010498046875,-0.09367943555116653,-0.24857079982757568,-0.057359855622053146
1772555832214941400,3.91894140625,0.0011699656024575233,-0.1743292361497879,-0.08241027593612671
1772555832224873500,3.92887353515625,0.07247743755578995,-0.10242601484060287,-0.12181307375431061
1772555832234804700,3.9388046875,0.12608353793621063,-0.027248241007328033,-0.17080403864383698
1772555832244736500,3.948736572265625,0.148471400141716,0.049461714923381805,-0.23655667901039124
1772555832254667500,3.95866748046875,0.16614890098571777,0.1251700222492218,-0.30954915285110474
1772555832264598500,3.9685986328125,0.18492844700813293,0.20043015480041504,-0.3925337791442871
1772555832274530300,3.9785302734375,0.2021743655204773,0.2633952796459198,-0.47056809067726135
1772555832284461600,3.988461669921875,0.2124888002872467,0.30502715706825256,-0.5468716621398926
1772555832294393600,3.9983935546875,0.2079482078552246,0.32047054171562195,-0.6035935878753662
1772555832304324600,4.00832470703125,0.18202073872089386,0.31539854407310486,-0.6416085958480835
1772555832314255400,4.01825537109375,0.13262701034545898,0.2738553285598755,-0.6462591290473938
1772555832324187400,4.0281875,0.06921102106571198,0.1931024193763733,-0.6145680546760559
1772555832334118700,4.03811865234375,-0.0035689077340066433,0.0903702974319458,-0.5538104772567749
1772555832344050400,4.048050537109375,-0.06468845903873444,-0.016111133620142937,-0.4745050370693207
1772555832353981400,4.0579814453125,-0.10263349115848541,-0.1001686379313469,-0.3952034115791321
1772555832363913500,4.06791357421875,-0.12230546027421951,-0.14890608191490173,-0.32938551902770996
1772555832373844700,4.0778447265625,-0.1277395635843277,-0.1475318968296051,-0.28043848276138306
1772555832383775500,4.087775390625,-0.12130323797464371,-0.0912310779094696,-0.24168869853019714
1772555832393707500,4.09770751953125,-0.09769535809755325,-0.017016781494021416,-0.20793001353740692
1772555832403638500,4.107638427734375,-0.06394006311893463,0.0695580542087555,-0.18131305277347565
1772555832413570300,4.1175703125,-0.010575324296951294,0.15636201202869415,-0.15665267407894135
1772555832423501600,4.12750146484375,0.053742680698633194,0.23821106553077698,-0.1444106549024582
1772555832433432600,4.1374326171875,0.12122934311628342,0.30172231793403625,-0.13720175623893738
1772555832443364600,4.147364501953125,0.1821344941854477,0.3553202748298645,-0.13523447513580322
1772555832453295400,4.15729541015625,0.22663259506225586,0.39827534556388855,-0.13542763888835907
1772555832463227400,4.167227294921875,0.2556719481945038,0.4228573739528656,-0.13517650961875916
1772555832473158700,4.17715869140625,0.2722037434577942,0.44116485118865967,-0.12462477385997772
1772555832483090700,4.187090576171875,0.285292387008667,0.45503830909729004,-0.10801197588443756
1772555832493021400,4.197021484375,0.2835976183414459,0.45516183972358704,-0.08502756804227829
1772555832502952400,4.206952392578125,0.27332741022109985,0.4332680106163025,-0.0661095380783081
1772555832512884700,4.216884765625,0.25071457028388977,0.37706539034843445,-0.042196303606033325
1772555832522815500,4.2268154296875,0.2178165465593338,0.3080948293209076,-0.023766430094838142
1772555832532747500,4.23674755859375,0.19322161376476288,0.23475562036037445,-0.006840665824711323
1772555832542678500,4.246678466796875,0.17387427389621735,0.1678309142589569,0.01041981391608715
1772555832552609500,4.256609619140625,0.1589089334011078,0.12064933031797409,0.020923610776662827
1772555832562541600,4.26654150390625,0.14181223511695862,0.08891669660806656,0.03960302099585533
1772555832572472600,4.27647265625,0.13030581176280975,0.07202090322971344,0.06382877379655838
1772555832582404600,4.286404541015625,0.13152474164962769,0.0781664103269577,0.09789566695690155
1772555832592335400,4.29633544921875,0.15463152527809143,0.11151240766048431,0.13031959533691406
1772555832602266600,4.3062666015625,0.1869942545890808,0.1707616150379181,0.1617017686367035
1772555832612198700,4.31619873046875,0.22713857889175415,0.2362651377916336,0.18928679823875427
1772555832622129400,4.32612939453125,0.25847360491752625,0.2942333519458771,0.2139258235692978
1772555832632061400,4.3360615234375,0.29481279850006104,0.3434770703315735,0.2387019395828247
1772555832641992400,4.345992431640625,0.31750771403312683,0.3787684738636017,0.25667667388916016
1772555832651924700,4.3559248046875,0.32625603675842285,0.38956889510154724,0.27102360129356384
1772555832661855500,4.36585546875,0.32733434438705444,0.3777519166469574,0.2777257263660431
1772555832671786500,4.375786376953125,0.31699758768081665,0.34347766637802124,0.29275059700012207
1772555832681718500,4.385718505859375,0.30232542753219604,0.28683197498321533,0.3103644847869873
1772555832691649500,4.3956494140625,0.2856544256210327,0.23403812944889069,0.33038780093193054
1772555832701581600,4.40558154296875,0.2673225700855255,0.19917336106300354,0.3462349474430084
1772555832711512600,4.4155126953125,0.24826839566230774,0.17109225690364838,0.37317371368408203
1772555832721443300,4.425443359375,0.21826308965682983,0.14078813791275024,0.41240206360816956
1772555832731375400,4.435375244140625,0.18926334381103516,0.1079973429441452,0.45431646704673767
1772555832741306600,4.445306640625,0.1744692176580429,0.10469608753919601,0.48525360226631165
1772555832751238700,4.45523876953125,0.1819230616092682,0.15370705723762512,0.4924054741859436
1772555832761169400,4.46516943359375,0.21278376877307892,0.23252995312213898,0.4669531285762787
1772555832771100400,4.475100341796875,0.26287081837654114,0.3554397225379944,0.4062769114971161
1772555832781032400,4.485032470703125,0.3155268430709839,0.4864422380924225,0.31506791710853577
1772555832790963500,4.49496337890625,0.35983848571777344,0.5773348212242126,0.21168552339076996
1772555832800895500,4.5048955078125,0.39529553055763245,0.6031336784362793,0.11498507857322693
1772555832810826500,4.514826416015625,0.42034563422203064,0.5549755096435547,0.05195389688014984
1772555832820758500,4.524758544921875,0.4263388216495514,0.4417586624622345,0.021781079471111298
1772555832830689800,4.534689697265625,0.4084179103374481,0.29433444142341614,0.0291640292853117
1772555832840620500,4.54462060546875,0.3614003360271454,0.14982439577579498,0.054290153086185455
1772555832850552600,4.554552490234375,0.2843811810016632,0.027328355237841606,0.08143897354602814
1772555832860483600,4.564483642578125,0.1845741719007492,-0.06734967976808548,0.10216262936592102
1772555832870415400,4.574415283203125,0.08421722799539566,-0.1395961344242096,0.12547142803668976
1772555832880346600,4.5843466796875,0.002709854394197464,-0.2000158131122589,0.15118877589702606
1772555832890277600,4.594277587890625,-0.06072627380490303,-0.2566922605037689,0.1871422529220581
1772555832900209700,4.604209716796875,-0.11252209544181824,-0.303313285112381,0.22969824075698853
1772555832910140400,4.614140380859375,-0.15122126042842865,-0.3386088013648987,0.28700730204582214
1772555832920072400,4.624072509765625,-0.18638083338737488,-0.3567955195903778,0.3495950400829315
1772555832930003700,4.634003662109375,-0.20925819873809814,-0.3479539752006531,0.4152195453643799
1772555832939935500,4.643935546875,-0.21625752747058868,-0.32618504762649536,0.4701240658760071
1772555832949866500,4.653866455078125,-0.2173197865486145,-0.2778974771499634,0.5019394159317017
1772555832959797500,4.663797607421875,-0.20730844140052795,-0.1902533769607544,0.5133305788040161
1772555832969729500,4.6737294921875,-0.18991722166538239,-0.05438794940710068,0.5034682154655457
1772555832979660500,4.68366064453125,-0.15686365962028503,0.10146157443523407,0.4848193824291229
1772555832989592600,4.693592529296875,-0.11212104558944702,0.2366548329591751,0.4781639575958252
1772555832999523600,4.703523681640625,-0.04861664026975632,0.34829482436180115,0.4706439673900604
1772555833009454600,4.71345458984375,0.03222392499446869,0.4106280207633972,0.4607481360435486
1772555833019386600,4.72338671875,0.11123324930667877,0.43451523780822754,0.4453124701976776
1772555833029317600,4.733317626953125,0.185280904173851,0.4317571520805359,0.40992453694343567
1772555833039249700,4.743249755859375,0.2597777843475342,0.425920307636261,0.3434775769710541
1772555833049180400,4.753180419921875,0.33243852853775024,0.40506407618522644,0.2493639588356018
1772555833059111700,4.763111572265625,0.4077039659023285,0.3647986650466919,0.12729263305664062
1772555833069043700,4.773043701171875,0.46761828660964966,0.2975846827030182,-0.00827422272413969
1772555833078974500,4.782974365234375,0.508980393409729,0.2150365561246872,-0.15676914155483246
1772555833088906500,4.792906494140625,0.5178593397140503,0.12994696199893951,-0.31307512521743774
1772555833098837500,4.80283740234375,0.5028990507125854,0.04204586148262024,-0.4603348970413208
1772555833108769500,4.81276953125,0.46058958768844604,-0.03939411789178848,-0.5925694108009338
1772555833118700500,4.822700439453125,0.3941245675086975,-0.09623876214027405,-0.6881507635116577
1772555833128631600,4.832631591796875,0.32508525252342224,-0.11347921192646027,-0.7380927801132202
1772555833138563600,4.8425634765625,0.2541698217391968,-0.10430888831615448,-0.7363334894180298
1772555833148494600,4.85249462890625,0.1781214028596878,-0.08588135987520218,-0.6791162490844727
1772555833158426600,4.862426513671875,0.11350113153457642,-0.07435227185487747,-0.5752257704734802
1772555833168357600,4.872357666015625,0.05714847519993782,-0.06787009537220001,-0.43979787826538086
1772555833178288400,4.882288330078125,0.02043546549975872,-0.06547698378562927,-0.30776476860046387
1772555833188220400,4.892220458984375,0.004937589168548584,-0.056341663002967834,-0.19342654943466187
1772555833198151700,4.902151611328125,0.003462996333837509,-0.038492098450660706,-0.11314209550619125
1772555833208083700,4.912083740234375,0.016184844076633453,-0.025960583239793777,-0.06776584684848785
1772555833218014500,4.922014404296875,0.03499528393149376,-0.020634260028600693,-0.05319622531533241
1772555833227945500,4.931945556640625,0.06684981286525726,-0.02219213917851448,-0.05926015228033066
1772555833237877500,4.94187744140625,0.0995398461818695,-0.029848992824554443,-0.0936088040471077
1772555833247808500,4.95180859375,0.13464556634426117,-0.03409639745950699,-0.131634920835495
1772555833257740500,4.961740478515625,0.1585754007101059,-0.024072794243693352,-0.1675013154745102
1772555833267671600,4.971671630859375,0.17439821362495422,-0.01533840224146843,-0.1822088211774826
1772555833277603600,4.981603515625,0.18520638346672058,-0.004041006788611412,-0.1735021471977234
1772555833287534600,4.99153466796875,0.19100525975227356,0.007932869717478752,-0.15153928101062775
1772555833297465600,5.001465576171875,0.19359730184078217,0.023591192439198494,-0.12325145304203033
1772555833307397600,5.011397705078125,0.20890392363071442,0.03600037470459938,-0.10273836553096771
1772555833317328400,5.021328369140625,0.23226915299892426,0.04050005227327347,-0.09709566086530685
1772555833327260400,5.031260498046875,0.2630605101585388,0.040003612637519836,-0.11697877943515778
1772555833337191700,5.041191650390625,0.2890559136867523,0.03415185213088989,-0.16310766339302063
1772555833347122700,5.051122802734375,0.29520395398139954,0.015286782756447792,-0.21952569484710693
1772555833357054500,5.061054443359375,0.28594839572906494,-0.00861615315079689,-0.2801720201969147
1772555833366985500,5.0709853515625,0.27309098839759827,-0.038063060492277145,-0.3285257816314697
1772555833376917500,5.08091748046875,0.2523859739303589,-0.06156519055366516,-0.3590543866157532
1772555833386848500,5.0908486328125,0.23092208802700043,-0.08093352615833282,-0.36304667592048645
1772555833396780500,5.100780517578125,0.2060452401638031,-0.09038881212472916,-0.3399815857410431
1772555833406711600,5.110711669921875,0.1796385794878006,-0.09609648585319519,-0.2903698682785034
1772555833416642600,5.120642578125,0.14848385751247406,-0.09771142899990082,-0.22067119181156158
1772555833426574600,5.13057470703125,0.11667335033416748,-0.1026872992515564,-0.1452765315771103
1772555833436505600,5.140505615234375,0.08683475852012634,-0.10627804696559906,-0.06164954602718353
1772555833446437600,5.150437744140625,0.06179837882518768,-0.11458870768547058,0.015390913933515549
1772555833456368400,5.160368408203125,0.03698224574327469,-0.12585893273353577,0.07577089965343475
1772555833466299600,5.170299560546875,0.018007583916187286,-0.12758895754814148,0.11680854856967926
1772555833476231700,5.180231689453125,0.007409002631902695,-0.12804807722568512,0.1415647566318512
1772555833486162700,5.19016259765625,0.007128766272217035,-0.12214137613773346,0.14841105043888092
1772555833496094500,5.200094482421875,0.01202019490301609,-0.10852943360805511,0.14633190631866455
1772555833506025500,5.210025390625,0.024821866303682327,-0.10441950708627701,0.13977697491645813
1772555833515957500,5.21995751953125,0.03929615020751953,-0.11210671812295914,0.13329032063484192
1772555833525888800,5.229888671875,0.047744058072566986,-0.11320604383945465,0.1209932193160057
1772555833535819500,5.239819580078125,0.057723455131053925,-0.10778224468231201,0.10440891236066818
1772555833545751600,5.24975146484375,0.058136194944381714,-0.10147709399461746,0.09741769731044769
1772555833555682600,5.2596826171875,0.04975070059299469,-0.10084859281778336,0.10948208719491959
1772555833565614300,5.2696142578125,0.0412190705537796,-0.106321781873703,0.12761560082435608
1772555833575545600,5.279545654296875,0.0166492760181427,-0.1502317190170288,0.15398383140563965
1772555833585476600,5.2894765625,-0.027671821415424347,-0.21836958825588226,0.18704669177532196
1772555833595408600,5.29940869140625,-0.08004261553287506,-0.2689979076385498,0.20912136137485504
1772555833605339600,5.309339599609375,-0.10314111411571503,-0.2493818700313568,0.1937900334596634
1772555833615271700,5.319271728515625,-0.08813046663999557,-0.13311491906642914,0.13394880294799805
1772555833625202700,5.32920263671875,-0.047234125435352325,0.03877251595258713,0.041155267506837845
1772555833635133400,5.339133544921875,0.0009102365002036095,0.22433573007583618,-0.048559971153736115
1772555833645065500,5.3490654296875,0.052970949560403824,0.41575124859809875,-0.11527076363563538
1772555833654996700,5.358996826171875,0.09937173128128052,0.5978715419769287,-0.14206722378730774
1772555833664928800,5.3689287109375,0.15784811973571777,0.7446357607841492,-0.11517048627138138
1772555833674859500,5.378859619140625,0.19485807418823242,0.7981970310211182,-0.0256536565721035
1772555833684791600,5.38879150390625,0.20913934707641602,0.7469199299812317,0.10683798789978027
1772555833694722600,5.39872265625,0.1894572377204895,0.6077263355255127,0.2665783762931824
1772555833704653600,5.408653564453125,0.13111965358257294,0.40307730436325073,0.42627206444740295
1772555833714585600,5.418585693359375,0.056025177240371704,0.16076718270778656,0.5540790557861328
1772555833724516600,5.4285166015625,-0.028828531503677368,-0.08045841753482819,0.6195811629295349
1772555833734448600,5.43844873046875,-0.1025560200214386,-0.30575597286224365,0.6128196716308594
1772555833744379600,5.448379638671875,-0.16965550184249878,-0.506938099861145,0.5513453483581543
1772555833754310700,5.458310546875,-0.21321949362754822,-0.6744471788406372,0.46163997054100037
1772555833764242700,5.46824267578125,-0.23964929580688477,-0.794947624206543,0.3551141321659088
1772555833774173400,5.47817333984375,-0.24189648032188416,-0.8721598386764526,0.2630441188812256
1772555833784105500,5.48810546875,-0.22891093790531158,-0.9142842888832092,0.19068579375743866
1772555833794036700,5.49803662109375,-0.19446080923080444,-0.9186217784881592,0.13862977921962738
1772555833803967200,5.50796728515625,-0.15069204568862915,-0.8687329888343811,0.0987602174282074
1772555833813899000,5.51789892578125,-0.09886239469051361,-0.7788524031639099,0.08069013804197311
1772555833823830000,5.527830078125,-0.04406754672527313,-0.6521481275558472,0.08447160571813583
1772555833833762000,5.537761962890625,0.008547991514205933,-0.5139836072921753,0.11716856807470322
1772555833843693300,5.547693359375,0.06300358474254608,-0.3980378806591034,0.17039692401885986
1772555833853625000,5.557625,0.1186647117137909,-0.29886895418167114,0.22828713059425354
1772555833863556000,5.56755615234375,0.17846761643886566,-0.2094256728887558,0.268390417098999
1772555833873487400,5.5774873046875,0.23360277712345123,-0.12791669368743896,0.2756906747817993
1772555833883419100,5.587419189453125,0.2786497175693512,-0.05909033864736557,0.24456176161766052
1772555833893350100,5.59735009765625,0.31120896339416504,-0.004658791236579418,0.1765904426574707
1772555833903282200,5.6072822265625,0.34577181935310364,0.03645016998052597,0.07964611053466797
1772555833913213200,5.617213134765625,0.37301942706108093,0.06266872584819794,-0.03022579476237297
1772555833923144200,5.627144287109375,0.403342604637146,0.069742850959301,-0.1466439664363861
1772555833933076200,5.637076171875,0.4319835603237152,0.059888362884521484,-0.2597809135913849
1772555833943007200,5.64700732421875,0.4553149938583374,0.04293286055326462,-0.377128541469574
1772555833952939000,5.65693896484375,0.4525519609451294,0.027981607243418694,-0.4810541570186615
1772555833962870000,5.6668701171875,0.42079997062683105,0.009218236431479454,-0.5748544931411743
1772555833972802000,5.676802001953125,0.3578271269798279,-0.020982008427381516,-0.6366438269615173
1772555833982733300,5.6867333984375,0.2667542099952698,-0.06885658949613571,-0.6628599762916565
1772555833992664000,5.6966640625,0.1549014449119568,-0.1289558857679367,-0.6510443687438965
1772555834002596000,5.70659619140625,0.04239056631922722,-0.20099826157093048,-0.6082639694213867
1772555834012527000,5.716527099609375,-0.07199858874082565,-0.28838881850242615,-0.5329830646514893
1772555834022459100,5.726459228515625,-0.17063212394714355,-0.3797163963317871,-0.43583211302757263
1772555834032390100,5.73639013671875,-0.2463657706975937,-0.4294471740722656,-0.3407282531261444
1772555834042321200,5.746321044921875,-0.3046066164970398,-0.4435461759567261,-0.26402029395103455
1772555834052253200,5.756253173828125,-0.34506508708000183,-0.4268084764480591,-0.20934931933879852
1772555834062184200,5.76618408203125,-0.37216290831565857,-0.36347728967666626,-0.1791633665561676
1772555834072116200,5.7761162109375,-0.3950064182281494,-0.2792428433895111,-0.16118356585502625
1772555834082047200,5.786047119140625,-0.4046403467655182,-0.1775558739900589,-0.14845693111419678
1772555834091978000,5.79597802734375,-0.4009007513523102,-0.054179079830646515,-0.1270216703414917
1772555834101910000,5.805909912109375,-0.3885079622268677,0.08705528825521469,-0.09726916253566742
1772555834111841300,5.81584130859375,-0.36544179916381836,0.2245665341615677,-0.057903118431568146
1772555834121773300,5.825773193359375,-0.3293344974517822,0.34922412037849426,-0.008608384057879448
1772555834131704000,5.8357041015625,-0.2858823835849762,0.45795032382011414,0.041779421269893646
1772555834141636000,5.845635986328125,-0.24700582027435303,0.5356369614601135,0.08084819465875626
1772555834151567000,5.855567138671875,-0.22073641419410706,0.5928161144256592,0.10537724196910858
1772555834161498000,5.865498046875,-0.19654007256031036,0.6305080652236938,0.10831013321876526
1772555834171430100,5.87543017578125,-0.17390373349189758,0.6515437960624695,0.0921575278043747
1772555834181361200,5.885361083984375,-0.1429135501384735,0.6492104530334473,0.05262332409620285
1772555834191293200,5.895293212890625,-0.10128515213727951,0.6259339451789856,-0.008520721457898617
1772555834201224200,5.90522412109375,-0.04853091016411781,0.5786696076393127,-0.08262839168310165
1772555834211155200,5.9151552734375,0.00265131751075387,0.5183697938919067,-0.15414731204509735
1772555834221087200,5.925087158203125,0.051888033747673035,0.45125892758369446,-0.21369828283786774
1772555834231018000,5.93501806640625,0.09511806070804596,0.3734179139137268,-0.25151941180229187
1772555834240950000,5.944949951171875,0.12154526263475418,0.27787908911705017,-0.257036954164505
1772555834250881300,5.95488134765625,0.13695752620697021,0.19039103388786316,-0.230627179145813
1772555834260813300,5.964813232421875,0.13802863657474518,0.11409727483987808,-0.181207537651062
1772555834270744000,5.974744140625,0.12043072283267975,0.037457890808582306,-0.11411292850971222
1772555834280675000,5.984675048828125,0.10525961965322495,-0.029089368879795074,-0.04733995720744133
1772555834290607000,5.994607177734375,0.08858610689640045,-0.0558895580470562,0.005345094483345747
1772555834300538000,6.0045380859375,0.08858677744865417,-0.045133717358112335,0.039199553430080414
1772555834310470100,6.01447021484375,0.10445494949817657,0.009668275713920593,0.05706057325005531
1772555834320401200,6.024401123046875,0.12926393747329712,0.09242194890975952,0.07202168554067612
1772555834330332200,6.034332275390625,0.17332488298416138,0.17164860665798187,0.09914863854646683
1772555834340264200,6.04426416015625,0.22845900058746338,0.24130654335021973,0.13040964305400848
1772555834350195200,6.0541953125,0.2866882383823395,0.3112960159778595,0.1624746322631836
1772555834360127200,6.064127197265625,0.3342473804950714,0.37510719895362854,0.18758749961853027
1772555834370058000,6.07405810546875,0.36832544207572937,0.417025625705719,0.20269906520843506
1772555834379989200,6.0839892578125,0.39060157537460327,0.4322912096977234,0.21306699514389038
1772555834389921300,6.09392138671875,0.4052380621433258,0.4232518970966339,0.2088690549135208
1772555834399852000,6.10385205078125,0.410549134016037,0.4004034698009491,0.18690113723278046
1772555834409784000,6.1137841796875,0.4051535725593567,0.36941227316856384,0.16224825382232666
1772555834419715000,6.123715087890625,0.3841906189918518,0.32062724232673645,0.1448802351951599
1772555834429647000,6.133647216796875,0.34784406423568726,0.2641053795814514,0.13757091760635376
1772555834439578000,6.143578125,0.3117651045322418,0.21087253093719482,0.15719574689865112
1772555834449509000,6.153509033203125,0.2721353769302368,0.16792826354503632,0.19352419674396515
1772555834459441200,6.163441162109375,0.2360701709985733,0.14030566811561584,0.24558812379837036
1772555834469372200,6.1733720703125,0.20533782243728638,0.13254041969776154,0.30852606892585754
1772555834479304200,6.18330419921875,0.18512974679470062,0.1314840018749237,0.3650991916656494
1772555834489235200,6.193235107421875,0.16874359548091888,0.13581588864326477,0.4124813377857208
1772555834499166200,6.203166259765625,0.17164446413516998,0.1571083664894104,0.43954992294311523
1772555834509098000,6.213097900390625,0.19319263100624084,0.20487402379512787,0.438186377286911
1772555834519029200,6.223029296875,0.23235377669334412,0.27610769867897034,0.3951963484287262
1772555834528961300,6.232961181640625,0.27844831347465515,0.36076614260673523,0.3288482427597046
1772555834538892000,6.24289208984375,0.3301953375339508,0.45986485481262207,0.24518035352230072
1772555834548824000,6.252823974609375,0.39163872599601746,0.5639712810516357,0.15792161226272583
1772555834558755000,6.262755126953125,0.45175042748451233,0.6400808691978455,0.05952617526054382
1772555834568686300,6.272686279296875,0.503588080406189,0.6722710132598877,-0.0328703336417675
1772555834578618000,6.2826181640625,0.538798451423645,0.6437525153160095,-0.11074307560920715
1772555834588549000,6.292549072265625,0.5547683835029602,0.557190477848053,-0.1698436737060547
1772555834598481200,6.302481201171875,0.543927013874054,0.4233286678791046,-0.18736238777637482
1772555834608412200,6.312412109375,0.5084657073020935,0.25976479053497314,-0.1759968250989914
1772555834618343200,6.32234326171875,0.43778830766677856,0.07882650196552277,-0.11515643447637558
1772555834628275200,6.332275146484375,0.35274559259414673,-0.09356284141540527,-0.015445561148226261
1772555834638206200,6.342206298828125,0.256600946187973,-0.24615302681922913,0.08533301949501038
1772555834648138000,6.352137939453125,0.1592288315296173,-0.35881778597831726,0.18213945627212524
1772555834658069200,6.3620693359375,0.08715818077325821,-0.42209723591804504,0.2624126374721527
1772555834668000300,6.372000244140625,0.037254538387060165,-0.4464465379714966,0.31142836809158325
1772555834677932300,6.381932373046875,0.014885755255818367,-0.44133108854293823,0.3384810984134674
1772555834687863000,6.391863037109375,0.012609552592039108,-0.40952175855636597,0.34282737970352173
1772555834697795000,6.401795166015625,0.0324668288230896,-0.34191250801086426,0.32430148124694824
1772555834707726300,6.411726318359375,0.06160686910152435,-0.24951758980751038,0.29980891942977905
1772555834717658000,6.421658203125,0.09492335468530655,-0.11902330815792084,0.2682349383831024
1772555834727589000,6.431589111328125,0.1337519884109497,0.0261077843606472,0.2429194450378418
1772555834737520000,6.44152001953125,0.1814725399017334,0.1829022616147995,0.23296260833740234
1772555834747452200,6.4514521484375,0.232904851436615,0.3082426190376282,0.2472105175256729
1772555834757383200,6.461383056640625,0.285721093416214,0.39203542470932007,0.2762526571750641
1772555834767315200,6.471315185546875,0.3369275629520416,0.43529289960861206,0.3119792342185974
1772555834777246200,6.48124609375,0.3845142424106598,0.43757686018943787,0.33809563517570496
1772555834787177000,6.491177001953125,0.42649975419044495,0.4058831036090851,0.35638517141342163
1772555834797109200,6.501109130859375,0.45316600799560547,0.3563922643661499,0.3483220934867859
1772555834807040500,6.51104052734375,0.4755112826824188,0.2966061532497406,0.31386369466781616
1772555834816972500,6.52097265625,0.48918575048446655,0.24186845123767853,0.23601670563220978
1772555834826903300,6.5309033203125,0.491621732711792,0.19638592004776,0.11781416088342667
1772555834836835300,6.54083544921875,0.48478826880455017,0.17180736362934113,-0.027133110910654068
1772555834846766600,6.5507666015625,0.4797402322292328,0.16087108850479126,-0.18786819279193878
1772555834856697300,6.560697265625,0.4884418547153473,0.16255693137645721,-0.3398912847042084
1772555834866629400,6.57062939453125,0.4945644438266754,0.16821721196174622,-0.464888334274292
1772555834876560400,6.580560302734375,0.49553555250167847,0.1818871647119522,-0.5442761182785034
1772555834886492400,6.590492431640625,0.4872453808784485,0.20019932091236115,-0.5819204449653625
1772555834896423400,6.60042333984375,0.47847145795822144,0.22743502259254456,-0.5898970365524292
1772555834906354400,6.6103544921875,0.46029749512672424,0.259050190448761,-0.5884048938751221
1772555834916286500,6.620286376953125,0.43280115723609924,0.2796788215637207,-0.5795061588287354
1772555834926217500,6.630217529296875,0.3970213234424591,0.29050856828689575,-0.568392276763916
1772555834936149200,6.640149169921875,0.36402690410614014,0.29308992624282837,-0.5433498024940491
1772555834946080500,6.65008056640625,0.33178454637527466,0.27731814980506897,-0.5020915865898132
1772555834956011500,6.660011474609375,0.30522802472114563,0.2362644523382187,-0.4453079104423523
1772555834965943300,6.669943359375,0.2859427332878113,0.16558177769184113,-0.37322041392326355
1772555834975874300,6.679874267578125,0.26753735542297363,0.09169502556324005,-0.29698821902275085
1772555834985806600,6.689806640625,0.26172423362731934,0.026238789781928062,-0.22869835793972015
1772555834995737600,6.699737548828125,0.2532951831817627,-0.011333977803587914,-0.16863277554512024
1772555835005669400,6.70966943359375,0.2361345887184143,-0.014768657274544239,-0.13345828652381897
1772555835015600400,6.719600341796875,0.22092083096504211,-0.01656091958284378,-0.1123102530837059
1772555835025531600,6.72953173828125,0.20433811843395233,0.023779047653079033,-0.09356053173542023
1772555835035463400,6.73946337890625,0.18678410351276398,0.06585332006216049,-0.0672016367316246
1772555835045394400,6.74939453125,0.17032736539840698,0.10019851475954056,-0.03138851001858711
1772555835055326500,6.759326416015625,0.16344207525253296,0.12677164375782013,0.007530262693762779
1772555835065257500,6.769257568359375,0.16609564423561096,0.14098866283893585,0.0432930551469326
1772555835075188500,6.7791884765625,0.16655905544757843,0.141476109623909,0.07532516121864319
1772555835085120500,6.78912060546875,0.1668248325586319,0.1361394077539444,0.08414075523614883
1772555835095051500,6.799051513671875,0.1748553067445755,0.1315418928861618,0.0749409943819046
1772555835104983300,6.8089833984375,0.18922625482082367,0.1342221051454544,0.04753600433468819
1772555835114914300,6.818914306640625,0.20189878344535828,0.13216248154640198,0.002670503221452236
1772555835124845600,6.828845458984375,0.21107816696166992,0.12549659609794617,-0.04462617263197899
1772555835134777600,6.838777587890625,0.21931007504463196,0.11504606157541275,-0.10558510571718216
1772555835144708400,6.848708251953125,0.23140455782413483,0.09256312996149063,-0.16271176934242249
1772555835154640400,6.858640380859375,0.24348986148834229,0.0752495676279068,-0.2114868462085724
1772555835164571600,6.868571533203125,0.251238614320755,0.056370414793491364,-0.2354249358177185
1772555835174503400,6.87850341796875,0.26586782932281494,0.04175601154565811,-0.23471255600452423
1772555835184434400,6.888434326171875,0.2783644497394562,0.028242064639925957,-0.2035525143146515
1772555835194365400,6.898365478515625,0.2847895622253418,-0.001177169382572174,-0.15784046053886414
1772555835204297500,6.90829736328125,0.29424670338630676,-0.03780628740787506,-0.11680620163679123
1772555835214228500,6.918228515625,0.3062848448753357,-0.06416692584753036,-0.08701758831739426
1772555835224160500,6.928160400390625,0.31436488032341003,-0.08359308540821075,-0.0719936341047287
1772555835234091500,6.938091552734375,0.3063972294330597,-0.09959559142589569,-0.0703604519367218
1772555835244022300,6.948022216796875,0.2860908806324005,-0.09921608865261078,-0.06990771740674973
1772555835253954300,6.957954345703125,0.25753694772720337,-0.08357612788677216,-0.07163231074810028
1772555835263885600,6.967885498046875,0.2351546436548233,-0.06752418726682663,-0.06857872754335403
1772555835273817600,6.977817626953125,0.21383000910282135,-0.06363120675086975,-0.06612443178892136
1772555835283748400,6.987748291015625,0.19781161844730377,-0.07812785357236862,-0.06482187658548355
1772555835293680400,6.997680419921875,0.1908608376979828,-0.08281652629375458,-0.07039982080459595
1772555835303611400,7.007611328125,0.1880037933588028,-0.08729569613933563,-0.06833906471729279
1772555835313542400,7.01754248046875,0.19176965951919556,-0.10378244519233704,-0.05212689936161041
1772555835323474400,7.027474365234375,0.19997301697731018,-0.10500776767730713,-0.03381447121500969
1772555835333405400,7.037405517578125,0.20172074437141418,-0.11333390325307846,0.009612854570150375
1772555835343337500,7.04733740234375,0.20756106078624725,-0.12305231392383575,0.047937873750925064
1772555835353268500,7.0572685546875,0.21351423859596252,-0.1468721628189087,0.08125098049640656
1772555835363199500,7.067199462890625,0.2148844301700592,-0.18784862756729126,0.10363937169313431
1772555835373131500,7.077131591796875,0.20026321709156036,-0.26590394973754883,0.1115536242723465
1772555835383062300,7.087062255859375,0.18762731552124023,-0.341805636882782,0.0987107902765274
1772555835392994300,7.096994384765625,0.18290433287620544,-0.36845630407333374,0.05197746679186821
1772555835402925600,7.106925537109375,0.19570642709732056,-0.3063250184059143,-0.024400129914283752
1772555835412856300,7.116856201171875,0.24204538762569427,-0.17697852849960327,-0.11519228667020798
1772555835422788400,7.126788330078125,0.30109909176826477,-0.003446681424975395,-0.18974587321281433
1772555835432719400,7.13671923828125,0.37440696358680725,0.18878042697906494,-0.23538920283317566
1772555835442651400,7.1466513671875,0.4532192051410675,0.35370200872421265,-0.22690489888191223
1772555835452582400,7.15658251953125,0.531212329864502,0.4670995771884918,-0.1642223298549652
1772555835462514400,7.166514404296875,0.6061249375343323,0.5077114701271057,-0.056826382875442505
1772555835472445400,7.176445556640625,0.64976567029953,0.4678109288215637,0.08043631166219711
1772555835482376400,7.18637646484375,0.6478548645973206,0.36441770195961,0.22971048951148987
1772555835492308500,7.19630859375,0.6022962331771851,0.22875423729419708,0.3664053678512573
1772555835502239500,7.206239501953125,0.5175014138221741,0.08081456273794174,0.46615222096443176
1772555835512171500,7.216171630859375,0.416111022233963,-0.043793223798274994,0.5353232026100159
1772555835522102300,7.226102294921875,0.3176182806491852,-0.13745233416557312,0.5717965364456177
1772555835532033500,7.236033447265625,0.23389947414398193,-0.20381209254264832,0.5975024700164795
1772555835541965600,7.245965576171875,0.1759195327758789,-0.23996876180171967,0.6185116171836853
1772555835551896300,7.255896240234375,0.127008855342865,-0.2617005705833435,0.6327940225601196
1772555835561828400,7.265828369140625,0.08294925093650818,-0.27033746242523193,0.6500691175460815
1772555835571759400,7.27575927734375,0.057182978838682175,-0.2709742486476898,0.660631000995636
1772555835581690600,7.285690673828125,0.05234534293413162,-0.2641834616661072,0.666237473487854
1772555835591622400,7.295622314453125,0.0627162754535675,-0.24126113951206207,0.6518497467041016
1772555835601553400,7.305553466796875,0.09288376569747925,-0.18368439376354218,0.6278208494186401
1772555835611485400,7.3154853515625,0.1276768296957016,-0.09352599829435349,0.5864616632461548
1772555835621416400,7.32541650390625,0.15895484387874603,-0.003852302208542824,0.549232006072998
1772555835631348500,7.335348388671875,0.19108524918556213,0.06831394881010056,0.5138057470321655
1772555835641279500,7.345279541015625,0.21578791737556458,0.12717248499393463,0.4697618782520294
1772555835651210500,7.35521044921875,0.23340362310409546,0.16589735448360443,0.4139263927936554
1772555835661142300,7.365142333984375,0.23968388140201569,0.18544602394104004,0.34820249676704407
1772555835671073500,7.375073486328125,0.25944197177886963,0.1903541386127472,0.27925071120262146
1772555835681005600,7.385005615234375,0.2864895761013031,0.17655125260353088,0.20286831259727478
1772555835690936300,7.394936279296875,0.32154569029808044,0.14539380371570587,0.12109943479299545
1772555835700867300,7.404867431640625,0.35343092679977417,0.11054126173257828,0.04454926773905754
1772555835710799400,7.41479931640625,0.3800542950630188,0.07739581167697906,-0.02464960142970085
1772555835720730600,7.424730712890625,0.3948516249656677,0.05558532848954201,-0.07773998379707336
1772555835730662400,7.434662353515625,0.4040507972240448,0.04888378828763962,-0.12469146400690079
1772555835740593400,7.444593505859375,0.40343934297561646,0.06434556841850281,-0.1678735613822937
1772555835750525400,7.454525390625,0.38516899943351746,0.10110741853713989,-0.2142779380083084
1772555835760456400,7.46445654296875,0.35332903265953064,0.1552542746067047,-0.2569250166416168
1772555835770387500,7.474387451171875,0.32390570640563965,0.20712561905384064,-0.3013263940811157
1772555835780319500,7.484319580078125,0.3104141354560852,0.23374363780021667,-0.3370199501514435
1772555835790250500,7.49425048828125,0.3148656487464905,0.2387027144432068,-0.36530551314353943
1772555835800182500,7.5041826171875,0.34124958515167236,0.22006750106811523,-0.3869517147541046
1772555835810113800,7.51411376953125,0.3743026554584503,0.17409153282642365,-0.4021741449832916
1772555835820044800,7.524044921875,0.4113815724849701,0.10962384939193726,-0.40713563561439514
1772555835829976600,7.5339765625,0.4313250482082367,0.05589194968342781,-0.37371423840522766
1772555835839907600,7.543907470703125,0.43534108996391296,0.027273092418909073,-0.2993425130844116
1772555835849839600,7.553839599609375,0.423662006855011,0.02935829944908619,-0.2015392780303955
1772555835859770600,7.5637705078125,0.39576461911201477,0.0587281659245491,-0.10130562633275986
1772555835869701600,7.57370166015625,0.35982728004455566,0.10705236345529556,-0.013564681634306908
1772555835879633700,7.583633544921875,0.31988200545310974,0.16293081641197205,0.05567777156829834
1772555835889564700,7.593564697265625,0.29036322236061096,0.22207430005073547,0.10658212006092072
1772555835899496400,7.603496337890625,0.2755403220653534,0.27567920088768005,0.1532161980867386
1772555835909427700,7.613427734375,0.2762053608894348,0.33040928840637207,0.19121402502059937
1772555835919359700,7.62335986328125,0.28643935918807983,0.3682842254638672,0.22237087786197662
1772555835929290500,7.63329052734375,0.3001902401447296,0.38215282559394836,0.2520799934864044
1772555835939221500,7.643221435546875,0.3149265646934509,0.34845876693725586,0.2631012201309204
1772555835949153500,7.653153564453125,0.33401983976364136,0.2891431450843811,0.24343131482601166
1772555835959084800,7.663084716796875,0.3558382987976074,0.19609388709068298,0.2027003914117813
1772555835969016600,7.6730166015625,0.3793068528175354,0.08765147626399994,0.13840125501155853
1772555835978947600,7.682947509765625,0.47288793325424194,0.007902322337031364,0.2394098937511444
1772555835988878800,7.69287890625,0.6063797473907471,0.17352354526519775,0.2773597240447998
1772555835998810600,7.702810546875,0.6901950240135193,0.3304961025714874,0.27364382147789
1772555836008741600,7.71274169921875,0.7092647552490234,0.448839396238327,0.2420225888490677
1772555836018673700,7.722673583984375,0.7154695987701416,0.5515961647033691,0.21903817355632782
1772555836028604700,7.732604736328125,0.7461816072463989,0.5843132138252258,0.23737910389900208
1772555836038536400,7.742536376953125,0.8246495127677917,0.5850682258605957,0.23595137894153595
1772555836048467700,7.7524677734375,0.9365541934967041,0.5731328725814819,0.22070881724357605
1772555836058398700,7.762398681640625,1.0847748517990112,0.5531021952629089,0.2698020935058594
1772555836068330800,7.772330810546875,1.1992243528366089,0.5205950140953064,0.3284251093864441
