time,seconds_elapsed,z,y,x
1772555165519692300,0.0636923828125,-0.019306758016347885,-0.028309993419563396,0.09249572107153944
1772555165529625000,0.073625,-0.020797873356938362,-0.02737704168469645,0.07889559546527453
1772555165539557000,0.08355712890625,-0.03082008567750454,-0.030563133508060124,0.08387640695199369
1772555165549490200,0.093490234375,-0.023481997874379157,-0.018215072055812923,0.08514819871978833
1772555165559422200,0.103422119140625,-0.017792261800169944,-0.028927860456425696,0.09049662880934774
1772555165569355300,0.113355224609375,-0.01868424220383167,-0.01703996386183426,0.08190266832676715
1772555165579287000,0.123287109375,-0.011796236255764961,-0.021411338213318958,0.08812795431609265
1772555165589220000,0.13322021484375,-0.018526421293616292,-0.020964041970390826,0.08767067553526721
1772555165599152000,0.143152099609375,-0.027649054425954816,-0.018907118573738262,0.08786408834867179
1772555165609085200,0.153085205078125,-0.018366846817731857,-0.026684766837907953,0.08152614489826374
1772555165619017200,0.163017333984375,-0.019561609560251235,-0.020971375893475485,0.08411540333963931
1772555165628950000,0.172949951171875,-0.012375497448444366,-0.02029505666764453,0.07944298194865695
1772555165638882000,0.182882080078125,-0.014165887996554374,-0.021202864828100427,0.07916791873378679
1772555165648815000,0.192815185546875,-0.02149462344944477,-0.02332765669603832,0.0835364252747502
1772555165658747100,0.2027470703125,-0.021639000356197355,-0.019997516759485006,0.07662282822770067
1772555165668680200,0.21268017578125,-0.02597498373389244,-0.018494245190219954,0.08348829355039633
1772555165678612200,0.2226123046875,-0.031655951979756354,-0.02125732582854107,0.08444732957459054
1772555165688544000,0.2325439453125,-0.01863338879942894,-0.020777150229318066,0.08376216945517807
1772555165698477000,0.24247705078125,-0.0271574715167284,-0.02324566836785525,0.07467558488375507
1772555165708409000,0.2524091796875,-0.011890928801894187,-0.0167026947314851,0.07425076533411629
1772555165718342100,0.262342041015625,-0.02221124728620052,-0.022536497185193002,0.07312154210847802
1772555165728274200,0.272274169921875,-0.0219072959035635,-0.020284854934038594,0.07775757701182738
1772555165738207000,0.28220703125,-0.025045009407401085,-0.02517816166724078,0.08194136550249531
1772555165748139300,0.29213916015625,-0.01965337949693203,-0.022384841154282912,0.08709839207264594
1772555165758072000,0.302072021484375,-0.008425883039832115,-0.02157005417267792,0.07571892905738205
1772555165768004000,0.312004150390625,-0.01755319234728813,-0.0203571164526511,0.07487004800993018
1772555165777937200,0.321937255859375,-0.016952303844690323,-0.013207673956267535,0.07802470351541414
1772555165787869200,0.331869140625,-0.019790742141008375,-0.011012730328412726,0.07568396734185516
1772555165797802200,0.34180224609375,-0.022631518524885177,-0.013230086717475205,0.07871543485908769
1772555165807734300,0.351734375,-0.01873743369579315,-0.020954972747946155,0.07852225037454627
1772555165817667300,0.361667236328125,-0.013498363998532294,-0.01599407153809443,0.06991334805116058
1772555165827599000,0.37159912109375,-0.01514203955233097,-0.017745974973030387,0.07012921015839092
1772555165837532200,0.3815322265625,-0.016934183666110037,-0.01708022280698642,0.0795964280778542
1772555165847464200,0.391464111328125,-0.02186754841506481,-0.017162430330878123,0.08552097755493596
1772555165857396200,0.401396240234375,-0.018272154271602628,-0.016027562815742566,0.07534862530711106
1772555165867329000,0.4113291015625,-0.02275602168738842,-0.024619669267954305,0.07867252729912289
1772555165877261000,0.421260986328125,-0.02694178293943405,-0.027444773158663883,0.0770578586440999
1772555165887194000,0.431194091796875,-0.01257481941282749,-0.015473125537065788,0.06489041445576585
1772555165897126100,0.441126220703125,-0.017210662519931794,-0.01625177262621,0.07181232267343439
1772555165907059200,0.45105908203125,-0.018406009784340857,-0.018845077055040745,0.07721784411193802
1772555165916991200,0.4609912109375,-0.020648235753178597,-0.01915273649841547,0.06756547888391651
1772555165926924300,0.47092431640625,-0.017801029628515243,-0.01865522617190145,0.06924594278414734
1772555165936856000,0.48085595703125,-0.01705050352215767,-0.01666967837787233,0.07450263946964406
1772555165946789000,0.4907890625,-0.013607669591903685,-0.021051921183243394,0.0723163449391257
1772555165956721200,0.50072119140625,-0.022883447459340095,-0.01795695084258914,0.06380141364266165
1772555165966654000,0.510654052734375,-0.018391396737098692,-0.02526729212226346,0.07039517675135284
1772555165976586000,0.5205859375,-0.027816812208294867,-0.021930357118742538,0.07193618651512078
1772555165986519000,0.53051904296875,-0.020929975304007527,-0.011183072793483734,0.07087037478135898
1772555165996451000,0.540451171875,-0.016440262669324874,-0.01913900936716236,0.07459093880760483
1772555166006384000,0.550384033203125,-0.02706511705815792,-0.02121465573059395,0.06336758880265989
1772555166016316200,0.560316162109375,-0.030654665982723234,-0.023286228707106782,0.05837832914800383
1772555166026248200,0.570248291015625,-0.024220833542943,-0.021153244399558752,0.07089867842723616
1772555166036181200,0.58018115234375,-0.014342413607239722,-0.01803871084190905,0.0712981534730643
1772555166046113300,0.59011328125,-0.017931962531805037,-0.01609148576427251,0.07290776236047967
1772555166056046300,0.60004638671875,-0.0225695592045784,-0.02149469651468098,0.06516438169209286
1772555166065978000,0.60997802734375,-0.018676643419265747,-0.013386345858266577,0.06861968237827532
1772555166075911200,0.6199111328125,-0.016279519149661064,-0.019828635599138215,0.06412049866234883
1772555166085843200,0.62984326171875,-0.020316227319836615,-0.014517907171463593,0.06341872533485293
1772555166095776000,0.63977587890625,-0.029591420665383335,-0.018466845726640892,0.06649310041205025
1772555166105708000,0.6497080078125,-0.024800094735622405,-0.019949101907340807,0.07351540026427246
1772555166115641000,0.65964111328125,-0.01791442687511444,-0.01934824080420658,0.06293811134421266
1772555166125573000,0.669572998046875,-0.01551671808362007,-0.0194060902049765,0.06956312810769304
1772555166135506200,0.679506103515625,-0.027488310906291006,-0.017481661481037736,0.06550489309229887
1772555166145439000,0.68943896484375,-0.02015431475639343,-0.02186329236505553,0.05845389686855487
1772555166155372000,0.6993720703125,-0.016111761367321013,-0.018280100116040556,0.061082784067420286
1772555166165304000,0.709303955078125,-0.02044716022312641,-0.011442883640294894,0.06507513250606134
1772555166175236900,0.71923681640625,-0.004434767577052116,-0.011636186855845153,0.07334460114147513
1772555166185169000,0.7291689453125,-0.02029284644424915,-0.012361541988328098,0.07055143589214422
1772555166195101000,0.739100830078125,-0.017447393885254858,-0.01963038221383467,0.07189117832961492
1772555166205034000,0.749033935546875,-0.021635493224859238,-0.01814173282496631,0.06587399126617237
1772555166214966000,0.758966064453125,-0.016695698735117913,-0.013551071433303877,0.062402689293259754
1772555166224899000,0.768899169921875,-0.025222704061865806,-0.016191137613309547,0.06269111431320197
1772555166234830800,0.778830810546875,-0.017588263660669325,-0.016006958419131113,0.059655107618169854
1772555166244764200,0.78876416015625,-0.025368250012397765,-0.020269456435507163,0.060188675638753915
1772555166254696000,0.798696044921875,-0.03763794899880886,-0.014478707672236486,0.0595091141430661
1772555166264629000,0.80862890625,-0.020727146208286286,-0.015210894404305144,0.0620183935502544
1772555166274561000,0.81856103515625,-0.016087211447954178,-0.01610500283297151,0.06605837138975039
1772555166284493800,0.828493896484375,-0.019378069686889647,-0.010046981435641646,0.05373529824828729
1772555166294425900,0.83842578125,-0.02237199080586433,-0.016234921956108882,0.06895229359981604
1772555166304359000,0.84835888671875,-0.014887772530317306,-0.017873218081891535,0.061617831659037614
1772555166314291000,0.858291015625,-0.01338964292705059,-0.018464535038545726,0.053355486884154375
1772555166324224000,0.86822412109375,-0.01757891131043434,-0.012909385129436849,0.06923057168507948
1772555166334156000,0.878156005859375,-0.026555413970351216,-0.017023588115768505,0.06747442133328876
1772555166344089000,0.888089111328125,-0.023411855247616766,-0.020992482613585887,0.06424122069887817
1772555166354021000,0.898021240234375,-0.023709376889467237,-0.018183644871087742,0.05537523834188469
1772555166363953000,0.907952880859375,-0.01787000321149826,-0.013276437476696447,0.05400655293771997
1772555166373886000,0.917885986328125,-0.023106150299310683,-0.014134515610756352,0.05513043326796032
1772555166383818000,0.92781787109375,-0.018315993413329124,-0.012273279182985423,0.06057261518873274
1772555166393750800,0.937750732421875,-0.013975333860516548,-0.01543240080103278,0.06178852118398063
1772555166403683000,0.94768310546875,-0.01966156280338764,-0.01579886862640269,0.057740634032664814
1772555166413615900,0.957615966796875,-0.018609423401951788,-0.017832109753368422,0.06347940601352602
1772555166423548000,0.9675478515625,-0.0230967979490757,-0.015618972881697118,0.058227230239519846
1772555166433481000,0.97748095703125,-0.028183891955018043,-0.016169373306073247,0.051790402125054966
1772555166443413000,0.9874130859375,-0.017708090648055074,-0.020707135466719043,0.05151618829355575
1772555166453346000,0.997345947265625,-0.021447861698269843,-0.012329649012722075,0.05810722058904357
1772555166463278000,1.007278076171875,-0.014262918630242347,-0.009925547013059258,0.0642558611455839
1772555166473211100,1.017211181640625,-0.020246669214963913,-0.014734271602192893,0.05914643657682463
1772555166483143200,1.02714306640625,-0.025184125617146492,-0.018534504135372117,0.060464643035922194
1772555166493076000,1.037075927734375,-0.01291208854317665,-0.015055639910511672,0.062448473796900356
1772555166503008000,1.047008056640625,-0.02084229702055454,-0.017168787006428463,0.05993133074366487
1772555166512940000,1.05693994140625,-0.01605272465646267,-0.021058551853429523,0.05795084271724336
1772555166522872800,1.066872802734375,-0.019044307687878608,-0.02086197896855883,0.04936033456707373
1772555166532804900,1.076804931640625,-0.02308452298939228,-0.014929748508520423,0.0462682137706317
1772555166542738000,1.086738037109375,-0.024280454775691032,-0.020821857020724564,0.05872049364917911
1772555166552670000,1.096669921875,-0.016797990065813062,-0.019525707129808143,0.06183224159469828
1772555166562603000,1.10660302734375,-0.014253566280007362,-0.016243708050763233,0.05538017937848344
1772555166572535000,1.11653515625,-0.02682020238637924,-0.012185007244488224,0.054412987447297195
1772555166582468000,1.126468017578125,-0.02891162170767784,-0.01361805398860015,0.05475777316382154
1772555166592400100,1.136400146484375,-0.02052957780957222,-0.011103979675285517,0.05392978877392597
1772555166602333200,1.146333251953125,-0.017236381483078003,-0.020447470750380305,0.0513163731388282
1772555166612265000,1.156264892578125,-0.022472528570890424,-0.01938194214440882,0.058952567105693736
1772555166622197800,1.16619775390625,-0.022470190483331678,-0.01537936457269825,0.05082957600257359
1772555166632129800,1.1761298828125,-0.02651040578484535,-0.015622553078271447,0.05440852133473381
1772555166642062800,1.186062744140625,-0.009898878201842307,-0.014662594605470076,0.04735431937375106
1772555166651995000,1.195994873046875,-0.0224649297863245,-0.017619444250222296,0.05283576472583226
1772555166661927000,1.205927001953125,-0.02665244460403919,-0.01538216845113784,0.04838389988350682
1772555166671860000,1.21585986328125,-0.015727730485796926,-0.012192185903945937,0.03990277952509932
1772555166681792000,1.2257919921875,-0.02320902615189552,-0.012524988921731709,0.04940683145676739
1772555166691725000,1.23572509765625,-0.020213935989141462,-0.010136504616308956,0.04241088988850824
1772555166701657000,1.245656982421875,-0.021259645649790763,-0.014708570905355735,0.04851924410043284
1772555166711590100,1.255590087890625,-0.018567337825894356,-0.010792255978146568,0.05143867521109059
1772555166721522200,1.265522216796875,-0.020064298385381697,-0.007080825106427073,0.049212276999047025
1772555166731455000,1.275455078125,-0.021706220373511314,-0.008855214367806912,0.04696188599006273
1772555166741387000,1.285386962890625,-0.019312018713355063,-0.01344966601859778,0.04198849062481895
1772555166751319800,1.29531982421875,-0.029935119536519048,-0.004986355311516672,0.03514898172728717
1772555166761251800,1.305251953125,-0.023051789763569832,-0.008180785704962909,0.043145222911890595
1772555166771185000,1.315184814453125,-0.017964695757627488,-0.015582321532582863,0.04993961402606219
1772555166781117000,1.325116943359375,-0.02005903768837452,-0.015361226127808913,0.05156622884720564
1772555166791050000,1.335050048828125,-0.029186346995830535,-0.015756828716117888,0.051556986094824966
1772555166800982000,1.34498193359375,-0.022900398594141006,-0.009597904227580875,0.044212815610785036
1772555166810914000,1.3549140625,-0.013472060513496397,-0.01217475071195513,0.045540100425481796
1772555166820847000,1.36484716796875,-0.02095394070148468,-0.010559387937188148,0.05643279370395466
1772555166830779100,1.374779052734375,-0.026340309914946555,-0.009593894772743805,0.04864816770972684
1772555166840712200,1.384712158203125,-0.023346388795971867,-0.013068566879676655,0.04601360882190056
1772555166850644000,1.39464404296875,-0.021697452545166016,-0.01720673526348546,0.04575451949429698
1772555166860576800,1.40457666015625,-0.017657237243652344,-0.020915453588310626,0.04996613670680672
1772555166870508800,1.4145087890625,-0.019001053068041802,-0.014996986792143433,0.049282611422054465
1772555166880441900,1.42444189453125,-0.026629648250341413,-0.015283192455535754,0.04341409384799189
1772555166890374000,1.434373779296875,-0.012861235138773918,-0.012160183330485597,0.048042575632547956
1772555166900307000,1.444306884765625,-0.016454291194677353,-0.012983939069835469,0.05018456523045897
1772555166910239000,1.454239013671875,-0.019445874226093292,-0.012930300053302198,0.046161465460527684
1772555166920172000,1.464172119140625,-0.025280571728944778,-0.010598012047680095,0.04289670977722853
1772555166930104000,1.47410400390625,-0.024082886376976965,-0.007999693517014383,0.046958506722887976
1772555166940036000,1.4840361328125,-0.02049041484296322,-0.010822395388083533,0.052783906674431634
1772555166949969200,1.49396923828125,-0.01958966661095619,-0.01361374313966371,0.046993194443779064
1772555166959901000,1.50390087890625,-0.012405308064818382,-0.0026806539187207816,0.05227297061076387
1772555166969834000,1.513833984375,-0.024376316365599632,-0.010646892690705135,0.044476964705996214
1772555166979766000,1.52376611328125,-0.019886603730916975,-0.011168414080468937,0.0468477489579469
1772555166989698800,1.53369873046875,-0.013301380121707916,-0.007311291127745062,0.04281899119878653
1772555166999630800,1.543630859375,-0.019735797083377835,-0.014409478360926731,0.03807458685040474
1772555167009564000,1.55356396484375,-0.02721709274947643,-0.01645785312494263,0.04765484125686344
1772555167019496000,1.563495849609375,-0.021827800926566124,-0.01741954689710401,0.04807556002011988
1772555167029429000,1.573428955078125,-0.027063948014378544,-0.01375726152989082,0.04264215506084729
1772555167039361000,1.583361083984375,-0.02452010875046253,-0.015339123893855139,0.03995673363546375
1772555167049294000,1.593294189453125,-0.017636778977513312,-0.013749662745324893,0.0446130943742115
1772555167059226000,1.60322607421875,-0.01688742191493511,-0.011193703785352407,0.045375607745884915
1772555167069158100,1.613158203125,-0.016736615267395973,-0.004767698459001258,0.050623194109741594
1772555167079091200,1.62309130859375,-0.02152326502203941,-0.01467400191547349,0.045210781706147826
1772555167089023000,1.63302294921875,-0.02795826650559902,-0.016616961809946224,0.04382733255769126
1772555167098955800,1.642955810546875,-0.021823709273338317,-0.008425079322233795,0.0427063428708585
1772555167108887800,1.6528876953125,-0.009852116450667381,-0.009315972880506887,0.03945912284424994
1772555167118820900,1.66282080078125,-0.017632687324285506,-0.009321553237922489,0.037902440587314776
1772555167128753000,1.6727529296875,-0.022719196808338164,-0.015533066430222241,0.04312107941790018
1772555167138686000,1.68268603515625,-0.01583645155727863,-0.018219656899385154,0.03998743473440408
1772555167148617700,1.69261767578125,-0.01793137800991535,-0.013584608376724644,0.04190475329754408
1772555167158550800,1.70255078125,-0.016434417450428007,-0.005971914016455412,0.04555209682395216
1772555167168482600,1.712482666015625,-0.021820202142000197,-0.011599818634521215,0.039034285028302106
1772555167178415600,1.72241552734375,-0.01777764875292778,-0.008687246522912756,0.0487282974409638
1772555167188347600,1.73234765625,-0.016731354570388792,-0.005520224726200103,0.04408070453056134
1772555167198280400,1.742280517578125,-0.022568390160799024,-0.010807426147814839,0.03791489821008872
1772555167208212700,1.752212646484375,-0.034091070172190666,-0.013624474596232176,0.037893439863529055
1772555167218144800,1.762144775390625,-0.020775077003240584,-0.006457231581676751,0.0425573902536882
1772555167228077600,1.77207763671875,-0.026761165675520896,-0.002501954617258161,0.045608389021875334
1772555167238009600,1.782009521484375,-0.021971008789539337,-0.009718096541147678,0.041755531252315264
1772555167247942700,1.791942626953125,-0.019575638085603714,-0.012023597004543989,0.04254796483821701
1772555167257874700,1.801874755859375,-0.022267945909500122,-0.014480990960868075,0.04533917559247929
1772555167267807700,1.811807861328125,-0.02660685189664364,-0.01012640334740281,0.03773080121430102
1772555167277739500,1.821739501953125,-0.020919453909993172,-0.014058555164560674,0.03715425713509321
1772555167287672800,1.8316728515625,-0.03019815438687801,-0.00989328871127218,0.044083175048860716
1772555167297604600,1.8416044921875,-0.023612346255779265,-0.012306587797543032,0.03374685071124695
1772555167307537700,1.85153759765625,-0.016427987709641455,-0.01994385947664268,0.04546693472457118
1772555167317469700,1.8614697265625,-0.028698271217942235,-0.015298947147093712,0.03901552552890498
1772555167327401700,1.871401611328125,-0.02480593995451927,-0.010927938121790066,0.0436196811563801
1772555167337334500,1.88133447265625,-0.012982815691828726,-0.01008305739602074,0.041799279062496496
1772555167347266600,1.8912666015625,-0.027046412357687948,-0.012650496731232851,0.04332247917493805
1772555167357199600,1.90119970703125,-0.02854337291717529,-0.010920777728641405,0.03861120077802334
1772555167367131600,1.911131591796875,-0.01612228276133537,-0.0088991905068513,0.0325446307480568
1772555167377064700,1.921064697265625,-0.02121054581105709,-0.015817162334918974,0.0384231034605531
1772555167386996700,1.930996826171875,-0.023752046987414357,-0.013811348070995882,0.04299857641623821
1772555167396929800,1.9409296875,-0.03063303867280483,-0.01419006345658563,0.04776520172958262
1772555167406861600,1.950861572265625,-0.01522095000743866,-0.009588414880027993,0.04287460297669749
1772555167416794600,1.960794677734375,-0.017464929541945458,-0.012701450600335373,0.026145595627021973
1772555167426726700,1.9707265625,-0.023152327528595924,-0.0020703400006517768,0.04188663768554106
1772555167436659500,1.980659423828125,-0.017466683107614515,-0.009346377151925116,0.039435271611204366
1772555167446591500,1.990591552734375,-0.017315876460075378,-0.011257197475619613,0.04200901282303966
1772555167456524500,2.000524658203125,-0.028389059138298034,-0.012270840630726887,0.03540958715854212
1772555167466456600,2.01045654296875,-0.027640286597609517,-0.009399933970067649,0.042170610292651685
1772555167476388600,2.020388671875,-0.020009937849640846,-0.013720144389895722,0.04340523012152407
1772555167486321700,2.03032177734375,-0.01671615700125694,-0.011179419531673193,0.043606118421908466
1772555167496253700,2.040253662109375,-0.012377835536003112,-0.011015589005779475,0.04615208571082912
1772555167506186800,2.050186767578125,-0.02075520325899124,-0.011014986217580736,0.04143639600027818
1772555167516118500,2.060118408203125,-0.018509470158815385,-0.010975037799682468,0.03576248768286314
1772555167526051800,2.0700517578125,-0.020454759007692336,-0.015886309447837994,0.04753766745086759
1772555167535983600,2.079983642578125,-0.020305705925822256,-0.016469680560054257,0.04257309471289627
1772555167545916700,2.089916748046875,-0.028835049340128895,-0.012486383077548817,0.04152226135255769
1772555167555848700,2.0998486328125,-0.022550854504108427,-0.012581322218850255,0.0407017067838693
1772555167565781500,2.109781494140625,-0.02240004785656929,-0.011810018185945226,0.04187040806994773
1772555167575713500,2.119713623046875,-0.023297873479127883,-0.009865898380847647,0.042327435689023696
1772555167585645600,2.1296455078125,-0.02000409263074398,-0.008824554368061944,0.04115885313395411
1772555167595578600,2.13957861328125,-0.023745617246627805,-0.015104009096883236,0.032782357627223244
1772555167605510700,2.1495107421875,-0.01895662940442562,-0.009286390592996031,0.04181133025989402
1772555167615443700,2.159443603515625,-0.022549100938439367,-0.014593557090405374,0.04404494823059067
1772555167625375700,2.169375732421875,-0.023446342039108274,-0.014764968134555965,0.035392393995146265
1772555167635308800,2.179308837890625,-0.0026461305946111676,-0.013576525534968822,0.03683233627092559
1772555167645240600,2.189240478515625,-0.014766191977262496,-0.006102572925109416,0.043522239530738444
1772555167655173600,2.199173583984375,-0.022996844705939292,-0.011244621121836825,0.04265337057460565
1772555167665105700,2.209105712890625,-0.023292612782120702,-0.016635958771361037,0.04034348163045943
1772555167675038500,2.21903857421875,-0.0209007492095232,-0.013076594922505319,0.042096613474679176
1772555167684970500,2.228970458984375,-0.0219464588701725,-0.005289128517219796,0.0422965062612202
1772555167694903600,2.238903564453125,-0.03406652025282383,-0.010088382025109604,0.037444011029019016
1772555167704835600,2.248835693359375,-0.020299276185035704,-0.015091030884301289,0.0320014820483746
1772555167714767600,2.258767578125,-0.01925064391493797,-0.010927837657090276,0.032923204569751396
1772555167724700700,2.26870068359375,-0.013563830450177191,-0.014014834753843023,0.02930264401899185
1772555167734632700,2.2786328125,-0.014910568884015082,-0.013797748803906142,0.03081297095012851
1772555167744565800,2.288565673828125,-0.017153963896632193,-0.010537651029415429,0.03416123563183937
1772555167754497500,2.29849755859375,-0.017600538620352744,-0.017016308991611002,0.036135627277614546
1772555167764430600,2.3084306640625,-0.017899813827872275,-0.008613825093675405,0.03892156363513786
1772555167774362600,2.318362548828125,-0.02238777289688587,-0.015493501604814082,0.03546815807851963
1772555167784295700,2.328295654296875,-0.01580430285334587,-0.014594497805321589,0.03579711147167254
1772555167794227700,2.338227783203125,-0.016100070929527283,-0.01049584858114831,0.03757663813247345
1772555167804160500,2.348160400390625,-0.022234628161787985,-0.004809016850078478,0.029570816268771886
1772555167814092500,2.358092529296875,-0.023884148934483526,-0.01348189692092128,0.04070083456761203
1772555167824025600,2.368025634765625,-0.01849777972102165,-0.015341964304912834,0.03784097902392968
1772555167833957600,2.37795751953125,-0.017752514311671255,-0.0075299388471059495,0.03651911016986705
1772555167843889700,2.3878896484375,-0.020295184531807897,-0.0031774792586453256,0.03576671176683158
1772555167853822700,2.39782275390625,-0.01999707836806774,-0.011663029196998104,0.03306321126206312
1772555167863754800,2.407754638671875,-0.022541502153873443,-0.004109453745977953,0.026103025993774644
1772555167873687800,2.417687744140625,-0.020897826600074765,-0.007448535040812566,0.03299664883187506
1772555167883619600,2.42761962890625,-0.01401274326145649,-0.012950402126414701,0.02647978231771849
1772555167893552600,2.437552734375,-0.01610533162653446,-0.009781581098260357,0.0392605223990744
1772555167903484700,2.447484619140625,-0.02194119817316532,-0.005076600011391565,0.03136179590534884
1772555167913417500,2.45741748046875,-0.019698387682437896,-0.006847619138751178,0.03745207560446579
1772555167923349500,2.467349609375,-0.025832944914698598,-0.00946015799101442,0.033746969442255796
1772555167933282600,2.477282470703125,-0.018799393016099928,-0.01072233254709281,0.03379053002276923
1772555167943214600,2.487214599609375,-0.018052374041080475,-0.01187386806923896,0.03285589322089218
1772555167953146600,2.497146728515625,-0.00952361514866352,-0.011868643904849886,0.034433709597401316
1772555167963079700,2.50707958984375,-0.021344401323795316,-0.009944406977156177,0.031854936017422
1772555167973011700,2.51701171875,-0.021942367216944692,-0.005901451729284599,0.03142553619078826
1772555167982944800,2.52694482421875,-0.018947277054190633,-0.00840445665931329,0.0339903177780332
1772555167992876500,2.53687646484375,-0.009818798702955246,-0.015392488915752619,0.03501554633965716
1772555168002809600,2.5468095703125,-0.018197335469722745,-0.008715522769326344,0.034639054877194576
1772555168012741600,2.55674169921875,-0.018646248281002045,-0.009563718830188736,0.041259025572799146
1772555168022674700,2.5666748046875,-0.025679800179600715,-0.009643697864376008,0.038353878715820605
1772555168032606700,2.576606689453125,-0.02193944460749626,-0.016738788958173243,0.031002429107623172
1772555168042539500,2.58653955078125,-0.013709960922598838,-0.0018899236661382018,0.033051160064665595
1772555168052471600,2.596471435546875,-0.019095745614171027,-0.0086504216438625,0.04015759910296183
1772555168062404600,2.606404541015625,-0.01879413231909275,-0.012404714409774168,0.035926519138156435
1772555168072336600,2.616336669921875,-0.02791910353899002,-0.009870528890192508,0.03531172084121499
1772555168082268700,2.6262685546875,-0.01684533633887768,-0.010122549156192689,0.02856668529410381
1772555168092201700,2.63620166015625,-0.01744388675391674,-0.00796176352626644,0.027797755881375633
1772555168102133800,2.6461337890625,-0.01818973668515682,-0.015080582555523142,0.027365753105701877
1772555168112066800,2.65606689453125,-0.020433716219663618,-0.008611980196461082,0.031070343244681133
1772555168121998600,2.66599853515625,-0.02327449260354042,-0.009137912899861112,0.029205681883962824
1772555168131931600,2.675931640625,-0.03240297095477581,-0.007982230925559997,0.0299596922887722
1772555168141863700,2.68586376953125,-0.021928338691592216,-0.010131691443873568,0.033292339276243
1772555168151796500,2.69579638671875,-0.029259412232041357,-0.0018233521027956156,0.03174868546423968
1772555168161728500,2.705728515625,-0.017586510095000268,-0.0009222659440711141,0.02827397225811146
1772555168171661600,2.71566162109375,-0.018183891466259955,-0.011010675368644297,0.037589525013510136
1772555168181593600,2.725593505859375,-0.028059388792514798,-0.005645677736774087,0.04185484974121209
1772555168191526700,2.735526611328125,-0.016688099950551986,-0.007459440027317032,0.026813188123703
1772555168201458700,2.745458740234375,-0.02088029094338417,-0.014546548744058236,0.025722684906679203
1772555168211390700,2.755390625,-0.020730653339624403,-0.011653558115754276,0.036234123782604
1772555168221323800,2.76532373046875,-0.006365443378686905,-0.01799596767872572,0.0315804847239051
1772555168231255600,2.775255615234375,-0.01220014088153839,-0.013337419549468904,0.03234023531633429
1772555168241188600,2.785188720703125,-0.007711012768745422,-0.01509731449461542,0.029753365194867362
1772555168251120600,2.79512060546875,-0.012200725403428076,-0.015194144198903813,0.03719302737605758
1772555168261053400,2.805053466796875,-0.0181862295538187,-0.008907985734660178,0.04159597047616262
1772555168270985700,2.81498583984375,-0.02267535766661167,-0.012859463306795806,0.029447194455680437
1772555168280918500,2.82491845703125,-0.020879706421494483,-0.014313187512755393,0.02577520967836026
1772555168290850600,2.8348505859375,-0.015791443371772764,-0.01096641610180959,0.03674425612867344
1772555168300783600,2.84478369140625,-0.022672435057163237,-0.0058294185395352536,0.034652243152330627
1772555168310715600,2.854715576171875,-0.029255905100703236,-0.0073236117532011116,0.026580183085426687
1772555168320647700,2.864647705078125,-0.03299626067280769,0.003241694468120113,0.026525767750758676
1772555168330580700,2.874580810546875,-0.02162438730895519,-0.00595408609881997,0.04037182637553196
1772555168340512800,2.8845126953125,-0.024319033220410347,-0.007186952362023293,0.03470144345576409
1772555168350445800,2.89444580078125,-0.01893091044127941,-0.010637412476306781,0.021747497665393165
1772555168360377600,2.904377685546875,-0.01384323191344738,-0.012163169872015715,0.0251914412739221
1772555168370310700,2.914310546875,-0.026264322069287298,-0.009064938995195553,0.035497872796771114
1772555168380242700,2.92424267578125,-0.014143676164746283,-0.013089664466632529,0.03503385831448249
1772555168390175500,2.934175537109375,-0.021776363000273705,-0.008923795225145295,0.02914672280491795
1772555168400107500,2.944107421875,-0.018785364490747452,-0.010779661358054726,0.033235745684220455
1772555168410040600,2.95404052734375,-0.014148936861753463,-0.008969552329322323,0.028933888338413087
1772555168419972600,2.96397265625,-0.02327624616920948,-0.014437745474185793,0.02828342050646897
1772555168429904600,2.973904541015625,-0.019985387930274007,-0.013483824016526341,0.027261808674037456
1772555168439837700,2.983837646484375,-0.016693360647559163,-0.008821449095522984,0.03713043786808848
1772555168449769700,2.993769775390625,-0.005918284133076667,-0.0044697658251971,0.02902969512939453
1772555168459702800,3.003702880859375,-0.020581600257754323,-0.006298625220172107,0.023050241693877614
1772555168469634600,3.013634521484375,-0.02851122421324253,-0.01108779572546482,0.030352815225627272
1772555168479567600,3.023567626953125,-0.019234861823916434,-0.009627276452537626,0.027394198315474204
1772555168489499600,3.033499755859375,-0.017588848182559014,-0.010329159377887845,0.030753322317916897
1772555168499432400,3.043432373046875,-0.013996961170434951,-0.010078773946547881,0.03508105389049742
1772555168509364500,3.053364501953125,-0.018935002094507217,-0.0037779202366713433,0.023132860209723
1772555168519297500,3.063297607421875,-0.02028290957212448,-0.009075716117536648,0.027343262712680734
1772555168529229600,3.0732294921875,-0.016544892087578773,-0.009188866768963634,0.03713550676885061
1772555168539162600,3.08316259765625,-0.016097148320078847,-0.003280537774320692,0.020828921515750696
1772555168549094700,3.0930947265625,-0.012654314389824867,-0.017628586537903175,0.02573927071529906
1772555168559026700,3.103026611328125,-0.009660977792739868,-0.010300042881257831,0.031602331229532134
1772555168568959700,3.112959716796875,-0.021181904238462446,-0.0053751536997035144,0.029327481632726266
1772555168578891800,3.122891845703125,-0.01774140839576721,-0.0032860450665000824,0.02913981814009603
1772555168588824800,3.132824951171875,-0.01729132654070854,-0.0009762702867854386,0.0231340383866569
1772555168598756600,3.142756591796875,-0.024622400081157684,-0.0036469416676089164,0.029571108529716728
1772555168608689700,3.152689697265625,-0.02013210292458534,-0.010376341254170984,0.022392449072003363
1772555168618621700,3.16262158203125,-0.027165070301294326,-0.013850638901768252,0.022170495150703934
1772555168628554500,3.172554443359375,-0.018785949012637138,-0.006114692621165886,0.028388922140980138
1772555168638486500,3.182486572265625,-0.015493921729922294,-0.011043006735667585,0.03166787531299051
1772555168648419600,3.192419677734375,-0.01998304984271526,-0.010996062321402131,0.02716402912167832
1772555168658351600,3.2023515625,-0.01878361092507839,-0.010821628203103319,0.030168343770503998
1772555168668283600,3.21228369140625,-0.022822072660923003,-0.00754816862354055,0.03364601155212149
1772555168678216700,3.222216796875,-0.026561259189248083,-0.002419646628666669,0.027407473355578256
1772555168688148700,3.232148681640625,-0.02012567318379879,-0.008714408524474129,0.03191908729481511
1772555168698081800,3.242081787109375,-0.028057050704956052,-0.004170810278085991,0.027953617729945108
1772555168708013600,3.252013671875,-0.015486322945356368,-0.007459622690407559,0.03272607912903186
1772555168717946600,3.261946533203125,-0.018478490498661994,-0.007004718529758975,0.0231660089940764
1772555168727878700,3.271878662109375,-0.023418869510293004,-0.004880237189074978,0.029748794051026924
1772555168737811500,3.2818115234375,-0.019528291812539098,-0.008092577698547392,0.03395082601786125
1772555168747743500,3.291743408203125,-0.0038145898520946502,-0.007374035899341106,0.029555746563803404
1772555168757676500,3.301676513671875,-0.023566169026494024,-0.010575325291836633,0.027436872979998587
1772555168767608600,3.311608642578125,-0.028654432076215743,-0.002607415152573958,0.029128584360028617
1772555168777540600,3.32154052734375,-0.02641103706359863,-0.01009244627887383,0.025597414559195748
1772555168787473700,3.3314736328125,-0.01803074673116207,-0.00442105871210806,0.02523554984370712
1772555168797405700,3.34140576171875,-0.014590250888466834,-0.0033999446365982292,0.03488825299844611
1772555168807338800,3.3513388671875,-0.013093290328979492,-0.00418008042993024,0.026892450205259953
1772555168817270800,3.361270751953125,-0.023266893818974493,-0.012828912904905154,0.02850967157697305
1772555168827203800,3.371203857421875,-0.02132160497009754,-0.013269514545565471,0.035233746534446254
1772555168837135600,3.381135498046875,-0.016679916644096373,-0.010003809014195576,0.026133507897006348
1772555168847068700,3.391068603515625,-0.019521862071752546,-0.007784625994227826,0.02764727346082218
1772555168857000700,3.401000732421875,-0.018324761241674422,-0.010587390188965946,0.021451259231753644
1772555168866933500,3.41093359375,-0.009348258581757545,-0.011350720977969467,0.025343896455853245
1772555168876865500,3.420865478515625,-0.012490063738822936,-0.012221466797357425,0.02518767841425724
1772555168886797600,3.430797607421875,-0.01593114410340786,-0.008348680484620855,0.025501968527818098
1772555168896730600,3.440730712890625,-0.030743513309955596,-0.0030478067306801675,0.025875738310231825
1772555168906662700,3.45066259765625,-0.023413608813285827,-0.013922133235400543,0.02715924334870651
1772555168916595700,3.460595703125,-0.01279050799012184,-0.004542447468917817,0.028216657146881333
1772555168926527700,3.47052783203125,-0.016832476857304574,-0.004977505284780636,0.03403140327367
1772555168936460800,3.480460693359375,-0.01847732145488262,-0.011322508663637564,0.025576636632648295
1772555168946392600,3.490392578125,-0.028652678510546682,-0.009825127979042008,0.032219782707863485
1772555168956325600,3.50032568359375,-0.019674422284960746,-0.0025952954565174875,0.0216914520626422
1772555168966257700,3.510257568359375,-0.016083704316616057,-0.008664623699150978,0.027170203134138135
1772555168976190500,3.5201904296875,-0.022070377510786054,-0.009899462723731994,0.025160799540486185
1772555168986122500,3.53012255859375,-0.017432780838012696,-0.008391186185786501,0.02339203630229458
1772555168996054500,3.540054443359375,-0.028953707283735274,-0.003955861486308276,0.024748697908525352
1772555169005987600,3.549987548828125,-0.03254442525207996,-0.01021169787752442,0.026301334178005342
1772555169015919600,3.559919677734375,-0.013541618618369103,-0.008644165433011948,0.029173254618817007
1772555169025852700,3.569852783203125,-0.030001170510053632,-0.0029822489474900064,0.025348042908008208
1772555169035784700,3.57978466796875,-0.02266834340393543,-0.0025144944384228435,0.025403759717196224
1772555169045717800,3.5897177734375,-0.015336685341596603,-0.009803190141869709,0.022512034030794166
1772555169055649800,3.59964990234375,-0.012044658058881759,-0.006293547186255455,0.022407815604493952
1772555169065582800,3.609582763671875,-0.014737550404667853,-0.007218032486876472,0.02129292229830753
1772555169075514600,3.6195146484375,-0.01877835022807121,-0.0131838181566447,0.018360554074263197
1772555169085447400,3.629447509765625,-0.02611000829041004,-0.006348519643349573,0.016159477533143944
1772555169095379700,3.639379638671875,-0.015185878694057464,-0.008262326508574187,0.01851061636970844
1772555169105311700,3.649311767578125,-0.01593406671285629,-0.00539099058965221,0.02550036109262146
1772555169115244500,3.65924462890625,-0.02191898634135723,-0.008767536084353923,0.0235996557375649
1772555169125176600,3.669176513671875,-0.024013328272104263,-0.003385523385601118,0.02639231866339687
1772555169135109600,3.679109619140625,-0.021620880177617072,-0.012226069907238707,0.022190336928912438
1772555169145041700,3.689041748046875,-0.012494155392050742,-0.000193412813404575,0.025811746863042936
1772555169154974500,3.698974365234375,-0.005461772537231445,-0.005378240705933421,0.018475417192163876
1772555169164906500,3.708906494140625,-0.015337854385375976,-0.004245610813656822,0.02479016699665226
1772555169174839600,3.718839599609375,-0.021322774013876913,-0.011285601586196571,0.021968862498225643
1772555169184771600,3.728771484375,-0.026259645894169806,-0.007706820650817826,0.024960842821863477
1772555169194704600,3.73870458984375,-0.01174479832947254,-0.00814825340854004,0.025533482477511277
1772555169204636700,3.74863671875,-0.01683306137919426,-0.006460053726425394,0.012524523130850866
1772555169214568400,3.758568359375,-0.0127922615557909,-0.0054406475508119905,0.024592959357541983
1772555169224501200,3.768501220703125,-0.01593231314718723,-0.002723835473321378,0.02613432074775919
1772555169234433500,3.77843359375,-0.016830723291635513,-0.011427585606463253,0.02188765962133184
1772555169244366300,3.788366455078125,-0.02086976954936981,-0.0035789270658511665,0.024707037024153396
1772555169254298400,3.79829833984375,-0.02984919481873512,-0.010052315197885036,0.020918595393467694
1772555169264231400,3.8082314453125,-0.02027472626566887,-0.007356317579559981,0.015608104427810757
1772555169274163500,3.81816357421875,-0.019975451058149338,-0.005895460379915312,0.021366439625667408
1772555169284096500,3.828096435546875,-0.02131985140442848,-0.010028852123906836,0.019143849939061326
1772555169294028500,3.838028564453125,-0.0068038347959518426,-0.013724373040441423,0.024209170504612847
1772555169303961600,3.847961669921875,-0.019672084197402,-0.00610807108413428,0.027603324721241367
1772555169313893600,3.8578935546875,-0.0148836808770895,-0.007298404246708377,0.023525293593411333
1772555169323825400,3.867825439453125,-0.03029401597678661,-0.0038912809506524352,0.02905230882000178
1772555169333758700,3.8777587890625,-0.02131517522931099,-0.007192103461176156,0.026291214642790144
1772555169343690500,3.8876904296875,-0.016676409512758256,-0.00871323034754023,0.023040565116656943
1772555169353623300,3.897623291015625,-0.01682604711651802,-0.0020874920648522675,0.0260045157890534
1772555169363555300,3.907555419921875,-0.025506197178363797,-0.008308083612751215,0.030339594984450376
1772555169373488400,3.91748828125,-0.020270050090551377,-0.01149528054781258,0.02136188674813602
1772555169383420400,3.92742041015625,-0.02520809101462364,-0.005922238788986578,0.018324624244356526
1772555169393353500,3.937353515625,-0.012189619487524032,-0.002478363679116592,0.02482675441368483
1772555169403285500,3.947285400390625,-0.02161561948060989,-0.010832423591753466,0.02193478669868782
1772555169413218600,3.957218505859375,-0.01727612897157669,-0.00409170802673325,0.02500631679825019
1772555169423150600,3.967150634765625,-0.023410686203837395,-0.0021360073816962537,0.02655861057443544
1772555169433082600,3.97708251953125,-0.014582067582011223,-0.005996290405886248,0.021274802119727244
1772555169443015700,3.987015625,-0.01593114410340786,0.004309442430641502,0.02909854541479144
1772555169452947500,3.996947509765625,-0.03014905454814434,-0.012612301879003644,0.023410133647988548
1772555169462880300,4.00688037109375,-0.020721885511279105,-0.0048106790842022745,0.02611108600264415
1772555169472812300,4.016812255859375,-0.025061960542201993,-0.012182276431284843,0.019619637057534417
1772555169482745300,4.026745361328125,-0.019226093995571136,-0.0024413013380486515,0.032187209312245245
1772555169492677400,4.036677490234375,-0.017280220624804495,0.0053728612779174,0.024595836301217786
1772555169502610400,4.0466103515625,-0.015933482190966606,-0.0020722031641751525,0.02208330549101811
1772555169512542500,4.05654248046875,-0.009646364745497703,-0.013567501978296787,0.0247837007232476
1772555169522475500,4.0664755859375,-0.03089315091371536,-0.006197813460510224,0.024825745200109668
1772555169532407600,4.076407470703125,-0.018920973569154738,-0.00709858909198083,0.03138942369779106
1772555169542339600,4.086339599609375,-0.018770751443505287,-0.003956564739206805,0.028879007212864235
1772555169552272600,4.096272705078125,-0.02326046407818794,-0.006924885626044124,0.027596027330774812
1772555169562204400,4.106204345703125,-0.028645664247870444,-0.002281544199073687,0.024466908125346524
1772555169572137500,4.116137451171875,-0.027148119166493415,-0.007429656810406595,0.02458636978655122
1772555169582069500,4.126069580078125,-0.013382044142484664,-0.007836118719447404,0.02221341641040053
1772555169592002300,4.136002197265625,-0.02325754146873951,-0.0001086845388635993,0.031016841225465757
1772555169601934300,4.145934326171875,-0.019068273085355757,-0.002456014849990606,0.019918647403572683
1772555169611867400,4.155867431640625,-0.02235854680240154,-0.011964286299049854,0.025815820249961687
1772555169621799400,4.16579931640625,-0.02565115860700607,-0.012521399592002854,0.027864551207004113
1772555169631732500,4.175732421875,-0.01383095695376396,-0.010326373765757306,0.02500080037291627
1772555169641664500,4.18566455078125,-0.017273206362128257,-0.006975912560382857,0.033192934022378176
1772555169651596500,4.195596435546875,-0.015627192720770833,-0.010550556176761164,0.027550315892370416
1772555169661529600,4.205529541015625,-0.023559154763817786,-0.011055199496960266,0.02095099069257267
1772555169671461600,4.215461669921875,-0.02849602664411068,-0.014639615588681772,0.024322800646652466
1772555169681394700,4.225394775390625,-0.015777414846420288,-0.0016902637750376016,0.028241650024242698
1772555169691326500,4.235326416015625,-0.013831541475653648,0.0006339779214467853,0.025703619446605444
1772555169701259300,4.24525927734375,-0.02206277872622013,-0.014446750764548778,0.01915521158329211
1772555169711191300,4.25519140625,-0.029097499668598172,-0.009204447930585592,0.019928209816361776
1772555169721124400,4.265124267578125,-0.022962357914447784,-0.004557434975495562,0.026209066484402865
1772555169731056400,4.275056396484375,-0.01967033063173294,-0.012176559076551347,0.023302490288740953
1772555169740988400,4.284988525390625,-0.011139818173646926,-0.006380741412518546,0.021326491207769138
1772555169750921500,4.29492138671875,-0.013834464085102081,-0.007481103869853541,0.025475126186665146
1772555169760853500,4.304853515625,-0.019072364738583564,-0.008461803736584261,0.013488746786816044
1772555169770786600,4.31478662109375,-0.025657003825902937,0.0021148732621222733,0.018441208961885423
1772555169780718600,4.324718505859375,-0.021469489008188247,-0.003571611409075558,0.017662831300799733
1772555169790651600,4.334651611328125,-0.02610708568096161,-0.0025753669133409857,0.029015474807797
1772555169800583400,4.34458349609375,-0.02116962927877903,-0.007174951396975666,0.02270905900681391
1772555169810516500,4.3545166015625,-0.017578326788544655,-0.008182922863122076,0.020653185922931878
1772555169820448500,4.364448486328125,-0.01907470282614231,-0.0026196992454119027,0.021489773744391275
1772555169830381300,4.37438134765625,-0.02102057619690895,0.0037580008266493675,0.01800373086007312
1772555169840313300,4.384313232421875,-0.02371580663025379,-0.00867739184917882,0.020306002753344363
1772555169850245400,4.394245361328125,-0.01593406671285629,-0.009244524212647228,0.025384077769191934
1772555169860178400,4.404178466796875,-0.026707974183559417,-0.0048451841420028355,0.015281164895230903
1772555169870110500,4.4141103515625,-0.019825228932499883,-0.00627555487183854,0.028038871160871347
1772555169880043500,4.42404345703125,-0.01144552312195301,0.004184528276184573,0.022964540738379582
1772555169889975600,4.4339755859375,-0.013392565536499023,-0.0007839717182330786,0.02515204997844994
1772555169899908600,4.44390869140625,-0.02072597716450691,-0.0009985186512116342,0.025696276390366254
1772555169909840600,4.453840576171875,-0.020574585995078085,-0.015594733489584177,0.018718564598541706
1772555169919773700,4.463773681640625,-0.01683423042297363,-0.011237159334588796,0.017153991296095773
1772555169929705500,4.47370556640625,-0.0172843122780323,0.0022993081846274434,0.01925391815083567
1772555169939637500,4.483637451171875,-0.01504091726541519,-0.012074413876328616,0.025194596778810953
1772555169949570300,4.4935703125,-0.031052725389599797,-0.014008313681511208,0.025710542377736418
1772555169959502300,4.50350244140625,-0.011598083335161208,-0.007111092380527407,0.026037801570724696
1772555169969435400,4.513435302734375,-0.016833645901083945,-0.0058783357151784,0.025969672804535365
1772555169979367400,4.523367431640625,-0.02611000829041004,-0.0067246229467447845,0.0233202679740265
1772555169989300500,4.533300537109375,-0.011893266889452933,-0.007411226104572415,0.017903005865379237
1772555169999232500,4.543232421875,-0.020125088661909103,-0.003562596985558048,0.02672386587243527
1772555170009165600,4.55316552734375,-0.023715222108364103,-0.002009421859961003,0.026728729277220552
1772555170019097600,4.56309765625,-0.01742868918478489,-0.0031431568639352916,0.027231075609056278
1772555170029030700,4.57303076171875,-0.016828969725966453,-0.005262852431647479,0.02279960053421091
1772555170038962400,4.58296240234375,-0.020271219134330748,-0.006229879966052248,0.015968667668779378
1772555170048894500,4.59289453125,-0.01323883627951145,-0.004563800784200429,0.027663343246211298
1772555170058827500,4.60282763671875,-0.014437690675258635,-0.0032340774172451344,0.017013304183771834
1772555170068759600,4.612759521484375,-0.021469489008188247,-0.010584631976298987,0.02506850901399739
1772555170078692400,4.6226923828125,-0.0204214412599802,-0.00908204539362341,0.028466654419153928
1772555170088624400,4.632624267578125,-0.007851298022270203,-0.0074719067832455036,0.020483039820683186
1772555170098557400,4.642557373046875,-0.02266658983826637,-0.005044707035785541,0.025949168872623704
1772555170108489500,4.652489501953125,-0.02580897951722145,-0.0024989589425735174,0.023265026088873854
1772555170118422500,4.662422607421875,-0.018176877203583717,-0.00955952671226114,0.0221954880280653
1772555170128354600,4.6723544921875,-0.021468319964408872,-0.005122320582950487,0.01829739831071347
1772555170138287600,4.68228759765625,-0.028050036442279814,-0.007310980600491165,0.012343029084103181
1772555170148219600,4.6922197265625,-0.021317513316869735,-0.009470834648655727,0.021587621795409358
1772555170158151700,4.702151611328125,-0.021468319964408872,-0.00205064891949296,0.017218791027460247
1772555170168084700,4.712084716796875,-0.019075871869921684,-0.002806609252793714,0.01748552023882512
1772555170178016800,4.722016845703125,-0.007103110003471374,-0.0010905443162191658,0.021430170777952298
1772555170187949600,4.731949462890625,-0.013237667235732078,-0.0054775272287894035,0.022585533091844988
1772555170197881600,4.741881591796875,-0.015630699852108954,-0.004096018875669688,0.02999148023310117
1772555170207814700,4.751814697265625,-0.0207177938580513,-0.012950950115686281,0.023743270025914535
1772555170217746400,4.761746337890625,-0.010092354947328568,-0.008961076761921868,0.02483957736263983
1772555170227679500,4.771679443359375,-0.01861936027407646,-0.00805319553622976,0.029223514368175527
1772555170237611500,4.781611572265625,-0.021611527827382085,-0.007594966907333582,0.02480068839066662
1772555170247543600,4.79154345703125,-0.019816461104154585,-0.0008246873211115598,0.020812125644576733
1772555170257476600,4.8014765625,-0.019219079732894898,-0.00567779904124327,0.019163056963030247
1772555170267408600,4.81140869140625,-0.024755671072006224,-0.00012351678181439637,0.019366625844268126
1772555170277341700,4.821341796875,-0.010839373922348022,-0.004572230685828254,0.023003836135729216
1772555170287273700,4.831273681640625,-0.014430676412582397,-0.00994547555623576,0.011957258336641826
1772555170297206500,4.84120654296875,-0.02400689853131771,-0.0038552871886640785,0.02009673478368204
1772555170307138600,4.851138671875,-0.023258125990629194,-0.005064279385935515,0.021418836533185093
1772555170317071600,4.861071533203125,-0.02340776359438896,0.0031688849602360277,0.02399494779861998
1772555170327003600,4.871003662109375,-0.02340776359438896,-0.0011608604729175568,0.02512305677940603
1772555170336936700,4.880936767578125,-0.01607493648827076,-0.005210619920911267,0.02687706083988305
1772555170346868500,4.890868408203125,-0.01921674164533615,-0.0035895854571834206,0.020527431518258525
1772555170356800500,4.900800537109375,-0.01981412301659584,-0.0015864289412274957,0.020167877490865065
1772555170366733600,4.910733642578125,-0.018466800060868264,-0.013183991686580701,0.020988943516206927
1772555170376665600,4.92066552734375,-0.016669395250082014,-0.006101577411266043,0.017681421836838126
1772555170386598700,4.9305986328125,-0.016821370941400526,-0.0051935226556379345,0.012761843584640883
1772555170396530700,4.94053076171875,-0.020112229180336,-0.010216903775604441,0.01979412597476039
1772555170406463700,4.950463623046875,-0.02639759306013584,-0.002833625123882666,0.02484975626335945
1772555170416395800,4.960395751953125,-0.024003975921869276,-0.00036670528738759456,0.019281185183674096
1772555170426328600,4.97032861328125,-0.016074351966381073,-0.00924594898475334,0.01608372258292511
1772555170436260600,4.980260498046875,-0.01218494331240654,-0.01710076327151619,0.01910891562299803
1772555170446192400,4.9901923828125,-0.009939210212230681,-0.008963414849480614,0.02634671682284679
1772555170456125400,5.00012548828125,-0.011285364124178885,-0.005743201560806483,0.019357899115118198
1772555170466057500,5.010057373046875,-0.008891162464022636,-0.004725731613952666,0.022681892438675275
1772555170475990500,5.019990478515625,-0.0162257431358099,-0.0025652747775893655,0.01933530369082
1772555170485922600,5.029922607421875,-0.020416765084862707,-0.002883218152960762,0.015372505573648958
1772555170495855600,5.039855712890625,-0.021314006185531614,-0.00497128560654819,0.01749547081068158
1772555170505787600,5.04978759765625,-0.01757365061342716,-0.01075902042882517,0.026296808699937536
1772555170515720700,5.059720703125,-0.026402269235253333,-0.01451523115718737,0.029849747374583964
1772555170525652700,5.06965283203125,-0.014431260934472083,-0.008746155369607732,0.021471585067152046
1772555170535584800,5.079584716796875,-0.015629530808329583,-0.0028600656062364575,0.018112611761759035
1772555170545517600,5.089517578125,-0.013534019833803175,0.0015034359660465269,0.014835946444957516
1772555170555449600,5.09944970703125,-0.02161445043683052,-0.006404432815359905,0.017177134709665552
1772555170565382400,5.10938232421875,-0.0217635035187006,-0.0034970483355224132,0.015633521996857597
1772555170575314400,5.119314453125,-0.019968436795473096,-0.00692499522389844,0.025489935596729626
1772555170585247500,5.12924755859375,-0.028198505002260208,-0.005532106960238889,0.019749656645371576
1772555170595179500,5.139179443359375,-0.019969021317362785,-0.00009884813143871724,0.018819554454716853
1772555170605112600,5.149112548828125,-0.013085691544413566,0.0007927486797329038,0.02374500532527454
1772555170615044600,5.159044677734375,-0.03283843976259231,-0.00457504369742237,0.013409781532781198
1772555170624977700,5.168977783203125,-0.02341127072572708,-0.004744536779122427,0.016694438359793274
1772555170634909700,5.17890966796875,-0.020268296524882316,0.0018237813610583542,0.017363469328312203
1772555170644841700,5.188841796875,-0.016677578556537627,-0.004859030004264787,0.024540498517942613
1772555170654774800,5.19877490234375,-0.010541267758607864,-0.0072369198504369705,0.022979286216362377
1772555170664706800,5.208706787109375,-0.01577916841208935,-0.007660460758442058,0.029833631923422217
1772555170674639600,5.2186396484375,-0.02296294243633747,-0.0014138031875248998,0.022674348453036508
1772555170684571400,5.2285712890625,-0.024760347247123716,-0.00802096463390626,0.015820884095388465
1772555170694504400,5.23850439453125,-0.021021160718798636,-0.002421336262254044,0.024595786068867892
1772555170704436500,5.2484365234375,-0.016831892335414884,0.001448956699296832,0.027430484338407404
1772555170714369500,5.25836962890625,-0.021619126611948012,-0.006718421534821391,0.015416618710011242
1772555170724301600,5.268301513671875,-0.022667758882045745,-0.01040477276421152,0.025358865696121936
1772555170734233600,5.278233642578125,-0.021619126611948012,0.0016787925329525024,0.021575264637335202
1772555170744166700,5.288166748046875,-0.023565584504604338,-0.00767525646877475,0.016500715019134804
1772555170754098700,5.2980986328125,-0.023117256215214727,-0.0007544076970312744,0.030009522779867983
1772555170764031700,5.30803173828125,-0.024613047730922696,-0.002487049309071153,0.021931512462790122
1772555170773963800,5.3179638671875,-0.02206979298889637,-0.00375511474981904,0.015887149698054416
1772555170783896600,5.327896484375,-0.017579495832324026,-0.005355069892900064,0.019692391766491346
1772555170793828600,5.33782861328125,-0.018177461725473402,-0.012701194872008636,0.017999858402553946
1772555170803761400,5.347761474609375,-0.017878771039843557,-0.006190506936889141,0.02194040815529879
1772555170813693400,5.357693359375,-0.017728548914194106,0.00019556823787279427,0.019226952512096614
1772555170823625500,5.36762548828125,-0.013238251757621765,-0.009725768390949815,0.012406358377588913
1772555170833558500,5.37755859375,-0.022065701335668562,-0.008736830418836324,0.025223503212886862
1772555170843490600,5.387490478515625,-0.0235585702419281,0.006005030834767967,0.027589446892938574
1772555170853423600,5.397423583984375,-0.019516601374745368,-0.0056148442070931195,0.019707890729722566
1772555170863355600,5.407355712890625,-0.022809797701239583,-0.0026891934182029214,0.03054514119364321
1772555170873288700,5.417288818359375,-0.0273012639015913,-0.001900490725925192,0.01406687090175692
1772555170883220700,5.427220703125,-0.007999182060360908,0.0024811036254744974,0.02087232683263719
1772555170893153800,5.43715380859375,-0.0290963306248188,0.0004148096122778952,0.02577423243082594
1772555170903085800,5.4470859375,-0.017124153280258177,-0.008350598447071388,0.01889215390004683
1772555170913017600,5.457017578125,-0.017723872739076614,-0.0012309939665254206,0.01173474729291629
1772555170922950400,5.466950439453125,-0.018619944795966147,-0.01088009865838103,0.01605341420962941
1772555170932882400,5.47688232421875,-0.019518939462304114,-0.003341547246556729,0.021680656673992053
1772555170942815500,5.4868154296875,-0.023557985720038414,-0.00026159181194379923,0.02116436858177185
1772555170952747500,5.49674755859375,-0.010240238985419273,-0.005680155395111069,0.018351635548868216
1772555170962680600,5.5066806640625,-0.017122984236478806,-0.005479317327076569,0.014006811277591623
1772555170972612600,5.516612548828125,-0.016675824990868567,-0.005037089984910563,0.018248303038557057
1772555170982545700,5.526545654296875,-0.015030395871400832,-0.0006443897176068276,0.01763460528673604
1772555170992477700,5.536477783203125,-0.013085691544413566,-0.0014859916409011929,0.01280791578264907
1772555171002410800,5.54641064453125,-0.011142156261205672,-0.0053065180434379725,0.019793157860380595
1772555171012342800,5.5563427734375,-0.02535714409649372,-0.007888871819991618,0.023097108476329592
1772555171022274600,5.566274658203125,-0.018923311656713484,-0.0022976002847310156,0.010455110145383514
1772555171032207600,5.57620751953125,-0.022065116813778877,-0.0037691798077896235,0.012616087571554817
1772555171042139600,5.5861396484375,-0.024161796832084654,-0.006538434458570555,0.01297434012442827
1772555171052072400,5.596072509765625,-0.01877367405295372,-0.005852698950422928,0.016865602808771654
1772555171062004500,5.60600439453125,-0.018324761241674422,-0.005864827779633924,0.012963585834973491
1772555171071937500,5.6159375,-0.028200843089818954,-0.008138827993068844,0.009277572532300837
1772555171081869600,5.62586962890625,-0.01308686058819294,-0.003746337788319215,0.021425275407126174
1772555171091802600,5.635802734375,-0.01982055275738239,-0.011206882927333935,0.012702660743310116
1772555171101734700,5.645734619140625,-0.01248947921693325,-0.009068446126533672,0.01187027417293284
1772555171111666700,5.655666748046875,-0.02086801598370075,-0.007907786583015695,0.008918164635379798
1772555171121599700,5.665599853515625,-0.015929975059628485,-0.009254050092818215,0.019875388217158615
1772555171131531800,5.67553173828125,-0.020569325298070908,-0.0014561353587545453,0.019433211107342502
1772555171141464800,5.68546484375,-0.020420856738090513,0.003881992532499134,0.018129316301387734
1772555171151396900,5.69539697265625,-0.016529109996557236,-0.0014552859753835946,0.020340105952345765
1772555171161330000,5.705329833984375,-0.021317513316869735,-0.0018628438629675656,0.016646407100139184
1772555171171262000,5.715261962890625,-0.018324176719784736,0.002604519942589104,0.022027574982098303
1772555171181195000,5.725195068359375,-0.020271803656220434,-0.0007147150074597447,0.015530280818091704
1772555171191127000,5.735126953125,-0.022515783190727234,-0.004915244570374488,0.01701821325432975
1772555171201058800,5.745058837890625,-0.021618542090058326,-0.012202378504397347,0.02390144712915644
1772555171210991900,5.754991943359375,-0.016530863562226293,-0.0020327022708486763,0.02540007448934484
1772555171220924000,5.764923828125,-0.0211707983225584,-0.007927267601620406,0.021526429660082794
1772555171230857000,5.77485693359375,-0.023115502649545667,-0.005251317257480696,0.020388365540863013
1772555171240789000,5.7847890625,-0.01772971795797348,0.00037506212377920743,0.015108438676828517
1772555171250722000,5.79472216796875,-0.0138379712164402,0.0040677060966379935,0.012127861096616835
1772555171260654000,5.804654052734375,-0.02116962927877903,-0.002231695441668853,0.025955845208582465
1772555171270587000,5.8145869140625,-0.022664251750707624,0.0006660718264523893,0.019752072364743797
1772555171280519000,5.824518798828125,-0.022813304832577704,-0.0046251299168448895,0.017643697342067024
1772555171290451000,5.834450927734375,-0.02356032380759716,-0.006033069619163871,0.021618884583353065
1772555171300384000,5.844384033203125,-0.027153379863500592,-0.004078017428098246,0.019599292955826967
1772555171310316000,5.85431591796875,-0.022810382223129273,-0.004103480662917718,0.018965767125529234
1772555171320249000,5.8642490234375,-0.017571897047758103,-0.0024110249307937918,0.02271393154475372
1772555171330180900,5.874180908203125,-0.01308335345685482,-0.00762191884634085,0.024637182091758584
1772555171340114000,5.884114013671875,-0.01009177042543888,-0.012788991886470466,0.015498351309867575
1772555171350046000,5.8940458984375,-0.009344166928529738,-0.005531421973649412,0.02294344771800097
1772555171359979000,5.90397900390625,-0.022213585373759268,0.0007894516109488904,0.01541756399150472
1772555171369911000,5.9139111328125,-0.022511691537499427,-0.0017743709950707853,0.015747823425754905
1772555171379843000,5.923843017578125,-0.016077274575829505,-0.0007208890199195593,0.018288196657528167
1772555171389776000,5.93377587890625,-0.022960604348778724,0.001828868528129533,0.013752521422691642
1772555171399708200,5.943708251953125,-0.014732874229550361,-0.002448945788387209,0.01814853245851118
1772555171409641000,5.953640869140625,-0.018173370072245596,-0.004604625984933227,0.02224693965408951
1772555171419573000,5.963572998046875,-0.01832183863222599,-0.007071454489883035,0.017001129688788204
1772555171429506000,5.973506103515625,-0.026104163071513174,-0.0020660656843334434,0.017892036946793085
1772555171439437800,5.983437744140625,-0.023559154763817786,0.0026730825336184353,0.018142847069818526
1772555171449371000,5.993370849609375,-0.0247568401157856,-0.002433209363138303,0.010767797390324994
1772555171459303000,6.003302978515625,-0.019818214669823645,-0.004950599011546,0.017096479822043327
1772555171469235000,6.01323486328125,-0.0283469735622406,-0.0005293119705747812,0.01876853208695538
1772555171479168000,6.02316796875,-0.018471476235985756,-0.000248385270498693,0.023826970820571294
1772555171489100000,6.03310009765625,-0.021014730978012083,-0.006416972636524587,0.012261935805063694
1772555171499033000,6.043033203125,-0.012634440645575522,-0.006583214315213263,0.02014190736596938
1772555171508965000,6.052965087890625,-0.015026888740062713,-0.00141981280320324,0.019168874782463534
1772555171518898000,6.06289794921875,-0.02026420487165451,-0.006688711383147165,0.01946167458342388
1772555171528830000,6.072829833984375,-0.02639759306013584,-0.010452913621719927,0.018665268075303172
1772555171538763000,6.082762939453125,-0.019212649992108345,-0.0019030662755016236,0.01657144216778688
1772555171548695000,6.092695068359375,-0.016368950998783112,-0.006125871602306142,0.017896407161233946
1772555171558626800,6.102626708984375,-0.02399988426864147,-0.006917067645769566,0.02278028847896494
1772555171568559900,6.112559814453125,-0.025046178451180456,-0.0057885933388024564,0.022022067689918913
1772555171578492000,6.122491943359375,-0.016965747848153113,-0.008213318001385778,0.016527845054655335
1772555171588425000,6.132425048828125,-0.019359949508309365,-0.0033013613666407764,0.0152935540193459
1772555171598357000,6.14235693359375,-0.022950082954764365,-0.0008723167219664901,0.01991328167528845
1772555171608290000,6.1522900390625,-0.016212883654236794,-0.0057395574321504675,0.021811123786401
1772555171618222000,6.16222216796875,-0.02339548863470554,-0.008756969024566933,0.02988164491676725
1772555171628155000,6.17215478515625,-0.02653846283555031,-0.00435492554018274,0.014447317020129411
1772555171638087000,6.1820869140625,-0.019055998125672338,-0.00016645174124278126,0.0170869219758315
1772555171648019200,6.192019287109375,-0.013669628912210463,-0.007753865529783069,0.015358445082255638
1772555171657952000,6.201951904296875,-0.01801028846502304,-0.006740779497101903,0.02344738321872428
1772555171667883800,6.2118837890625,-0.018159926068782806,-0.0080814900489524,0.023449465577956286
1772555171677816800,6.22181689453125,-0.018757307440042496,-0.002194788364227861,0.016429535779333673
1772555171687748900,6.231748779296875,-0.023095628905296324,-0.01112265697629191,0.019728764554392545
1772555171697682000,6.241681884765625,-0.016662380987405776,-0.0077609619908500455,0.014472218565945513
1772555171707614000,6.251614013671875,-0.01651274338364601,-0.00608623371166177,0.014151256683003157
1772555171717546000,6.2615458984375,-0.012622165685892105,-0.0037101430969312785,0.014606868663127534
1772555171727479000,6.27147900390625,-0.01366845986843109,-0.004373968167370185,0.017629102561133914
1772555171737411000,6.2814111328125,-0.021300562182068824,-0.0006042038376908749,0.010848050419148056
1772555171747344100,6.29134423828125,-0.022498832055926322,-0.011176579120615496,0.018567739684693513
1772555171757276200,6.301276123046875,-0.026988544690608976,-0.007217557562841102,0.02031443722154945
1772555171767209000,6.311208984375,-0.013522329396009444,-0.007989802310662344,0.021447889097733423
1772555171777140700,6.321140625,-0.012772972333431243,-0.0025386059663724155,0.017545963455480523
1772555171787074000,6.331073974609375,-0.011876315754652023,-0.007223905105236917,0.01856438325040508
1772555171797005800,6.341005859375,-0.026241525715589523,-0.0018918598948977885,0.021682200177107005
1772555171806939000,6.35093896484375,-0.01920972738265991,-0.006295401216624304,0.026305521729355675
1772555171816871000,6.360870849609375,-0.012474281647801398,-0.016525831194082272,0.021995458244206383
1772555171826803000,6.370802978515625,-0.01950783354640007,-0.0117465518951416,0.02090280416929163
1772555171836736000,6.380736083984375,-0.015618424892425537,-0.004784147270303219,0.010919704582984559
1772555171846668000,6.39066796875,-0.006043371817469597,0.004590697924280539,0.01890119572302792
1772555171856601000,6.40060107421875,-0.016667057162523268,-0.006374065076559782,0.012602337607415392
1772555171866533000,6.410533203125,-0.027143442991375923,-0.011828996881050989,0.02065098939926829
1772555171876466000,6.4204658203125,-0.007541501420736312,0.0009395550055895,0.019487932402687147
1772555171886398000,6.43039794921875,-0.011882160973548888,-0.006220107490709051,0.019019922165293246
1772555171896330000,6.440330078125,-0.027443887242674825,-0.005042579010780901,0.018958360137208363
1772555171906262800,6.4502626953125,-0.022507015362381935,0.0017452636315952986,0.02110804441780783
1772555171916194800,6.46019482421875,-0.019067104041576386,-0.0016071794683113693,0.018244878105609676
1772555171926127900,6.4701279296875,-0.02400514496564865,-0.006147371048061177,0.01352383179992903
1772555171936060000,6.480059814453125,-0.022658406531810758,-0.008055186563916504,0.011979410802945494
1772555171945993000,6.489992919921875,-0.02101180836856365,0.001196169248316437,0.022535268775909206
1772555171955925000,6.499925048828125,-0.014278700721263885,-0.003686597824562341,0.011418032326828687
1772555171965858000,6.509858154296875,-0.017570728003978728,-0.0016109788605943322,0.0134038906481117
1772555171975790000,6.5197900390625,-0.020863924330472947,-0.0051582321465481066,0.027124674358824267
1772555171985722000,6.52972216796875,-0.020716040292382238,-0.008469347722223028,0.016107879776647314
1772555171995655200,6.5396552734375,-0.01428279237449169,-0.003547572946362197,0.015540085259475745
1772555172005587000,6.5495869140625,-0.014133154770731925,-0.006516907613351941,0.019235537677351384
1772555172015519700,6.559519775390625,-0.028352234259247776,-0.002570562874060124,0.02323771795684006
1772555172025451800,6.56945166015625,-0.02865150946676731,-0.005187211645860224,0.017295326862391082
1772555172035384800,6.579384765625,-0.024163550397753714,-0.009137574973143636,0.019976227376284076
1772555172045316900,6.58931689453125,-0.023117256215214727,-0.0011476904640905557,0.018082549983635544
1772555172055250000,6.59925,-0.017431027272343635,-0.0030455051757395267,0.023777953180228358
1772555172065182000,6.609181884765625,-0.023117840737104413,0.0038793256513774393,0.017591455698176287
1772555172075114000,6.619114013671875,-0.016236264529824258,-0.003161697167623788,0.014885283745708874
1772555172085047000,6.629047119140625,-0.017880524605512618,-0.0049060018179938195,0.019726134205888955
1772555172094979000,6.63897900390625,-0.019677344894409178,-0.008247576464014127,0.01448503694832325
1772555172104912100,6.648912109375,-0.020128011271357535,-0.0016839527652598915,0.012998469918686896
1772555172114844200,6.65884423828125,-0.012497662523388861,-0.0008534841573331505,0.014204649104364215
1772555172124777000,6.66877685546875,-0.020876199290156362,0.004942936294898391,0.014656466258782893
1772555172134709000,6.678708984375,-0.02027647983133793,-0.006025653497688472,0.0188727002809057
1772555172144641000,6.68864111328125,-0.01129822360575199,-0.008264564131433144,0.015007024128967894
1772555172154574000,6.698573974609375,-0.021921908950805664,-0.0005158862334210425,0.01797345445281826
1772555172164506000,6.708506103515625,-0.006806172883510589,0.0009587985621765256,0.020654706593160516
1772555172174439200,6.718439208984375,-0.01443710615336895,-0.0013200239568483083,0.024475032066297715
1772555172184371000,6.728370849609375,-0.02491173841655254,-0.0051150962577201425,0.020711245386255905
1772555172194304000,6.738303955078125,-0.021320435926318167,-0.01018485553637147,0.017726841014297678
1772555172204236000,6.748236083984375,-0.024014497315883634,0.000771377098141238,0.008553614772460423
1772555172214169000,6.758169189453125,-0.02835515686869621,-0.0013953998811542987,0.02083352919220924
1772555172224101000,6.76810107421875,-0.024014497315883634,0.0008179013872984796,0.02609364624407608
1772555172234033200,6.778033203125,-0.0014186346262693404,-0.0010448511441238223,0.026505720476573333
1772555172243966200,6.78796630859375,-0.014287468549609184,0.0006594868220388889,0.02211783794828225
1772555172253898200,6.797898193359375,-0.016233926442265508,-0.0030992811895906923,0.01614423429823946
1772555172263831000,6.8078310546875,-0.009801263046264648,-0.004964910664688796,0.022652967738290317
1772555172273763000,6.81776318359375,-0.024765023422241208,-0.009255557063315063,0.018058675917703656
1772555172283696000,6.827696044921875,-0.028805238723754883,0.001701123095769435,0.01666500220275484
1772555172293628200,6.837628173828125,-0.024913491982221602,-0.003762667868612334,0.018823755705798976
1772555172303561200,6.847561279296875,-0.013241174367070197,-0.00428863710463047,0.0163850984159857
1772555172313493000,6.857492919921875,-0.014738719448447226,0.0010333159699570387,0.015757659833179786
1772555172323425000,6.867425048828125,-0.02177168682515621,0.003015438831038773,0.014507006751536392
1772555172333358000,6.877358154296875,-0.017432780838012696,-0.004393166058184579,0.025819765772717072
1772555172343290000,6.8872900390625,-0.023566753548383713,-0.004346924896817654,0.021783628424699417
1772555172353223200,6.89722314453125,-0.0117465518951416,-0.0003643124009016901,0.01565273358740378
1772555172363155200,6.9071552734375,-0.01503916369974613,-0.007543739043595269,0.01704699639081955
1772555172373088000,6.917087890625,-0.013093290328979492,-0.0021487389991059896,0.011285364124178885
1772555172383020300,6.927020263671875,-0.022669512447714806,-0.0007085044623818248,0.007411988722975366
1772555172392953000,6.936953125,-0.023716975674033164,-0.0006139489135704935,0.01189998889118433
1772555172402885000,6.946885009765625,-0.017281974190473556,-0.0029085078578442334,0.009699770866590551
1772555172412817000,6.95681689453125,-0.010099953731894493,-0.006356502020405605,0.012511334855714812
1772555172422750000,6.96675,-0.016382979524135588,-0.00030787863908335566,0.014599142014398239
1772555172432682000,6.976681884765625,-0.01533376273214817,-0.006414241823321208,0.003928329591988585
1772555172442615000,6.986614990234375,-0.012492401826381682,-0.010467636266816406,0.018940911245485765
1772555172452547000,6.996547119140625,-0.021022914284467696,-0.005328930804645643,0.0213725542726228
1772555172462480100,7.006480224609375,-0.005610825619101524,-0.00482594058541581,0.02018162745500449
1772555172472412200,7.016412109375,-0.01877835022807121,-0.002464234689064324,0.015691572327027097
1772555172482344200,7.02634423828125,-0.022070377510786054,-0.0032167426899541167,0.016867548170685767
1772555172492277200,7.03627734375,-0.019376900643110276,-0.0069136427128221834,0.011727454469026998
1772555172502209300,7.046209228515625,-0.02401508183777332,-0.012014071124373003,0.022871309496974572
1772555172512142000,7.05614208984375,-0.03194529031515121,-0.00891386748617515,0.019671974599547684
1772555172522074000,7.06607421875,-0.02910334488749504,-0.005077175400126725,0.008553633038769475
1772555172532007200,7.076007080078125,-0.01368891813457012,-0.004576212741201743,0.016582949942490086
1772555172541939000,7.08593896484375,-0.020272388178110123,-0.004795609379233792,0.02197496801202651
1772555172551872000,7.0958720703125,-0.020271803656220434,-0.0070956938819959755,0.012018391106463968
1772555172561804000,7.105803955078125,-0.015032149437069892,-0.004103645059699192,0.020052781477523967
1772555172571736000,7.115736083984375,-0.019669161587953565,-0.002899155507609248,0.016865917902602813
1772555172581669000,7.125669189453125,-0.014134323814511298,-0.0013892258686944842,0.018206719785998575
1772555172591601200,7.13560107421875,-0.012190788531303405,0.003108304746262729,0.011492883094749412
1772555172601534200,7.1455341796875,-0.018774843096733093,0.00018888276875950394,0.010586449474049731
1772555172611466200,7.15546630859375,-0.021768179693818092,-0.0014209361812099813,0.007767346065863967
1772555172621399000,7.16539892578125,-0.023712884020805357,-0.008957953223073854,0.018958054176531732
1772555172631331300,7.175331298828125,-0.020420272216200828,-0.007337393683381379,0.019429735942045227
1772555172641264000,7.18526416015625,-0.02460895607769489,-0.00632891989373602,0.018226018141512756
1772555172651196000,7.19519580078125,-0.02655366040468216,-0.005147765551460907,0.017690929450700058
1772555172661128000,7.2051279296875,-0.02326046407818794,-0.005235681296931579,0.017026821252470833
1772555172671061000,7.21506103515625,-0.021912556600570676,-0.0039461072772741315,0.021007429020968263
1772555172680993000,7.224992919921875,-0.021613865914940834,-0.004320804074872285,0.022616334655485116
1772555172690926000,7.234926025390625,-0.02939385226666927,0.005626324582332745,0.01686945243340451
1772555172700858000,7.244858154296875,-0.018319500544667244,0.0013696809180080889,0.02012987443488091
1772555172710791200,7.254791259765625,-0.019067104041576386,-0.009432630663271992,0.014085886129480786
1772555172720723200,7.26472314453125,-0.023403671941161153,0.0023662085415329785,0.021167738715792073
1772555172730655200,7.2746552734375,-0.018166355809569358,-0.005307641421444713,0.016919735015649348
1772555172740588300,7.28458837890625,-0.007095511218905448,-0.01307316085640341,0.01968034970224835
1772555172750520000,7.29452001953125,-0.026698037311434743,-0.007545045084692537,0.014541383945173583
1772555172760452900,7.304452880859375,-0.027146365600824354,0.0012083985422272235,0.015853073898516593
1772555172770385200,7.31438525390625,-0.013531097224354744,0.0016303776808083057,0.018745644401712343
1772555172780318000,7.32431787109375,-0.012185527834296226,-0.008642046541161835,0.015778401227109135
1772555172790250000,7.33425,-0.024155951613187787,-0.008488262485247105,0.018235443556983953
1772555172800183000,7.34418310546875,-0.018617022186517715,-0.005943783900514245,0.014020675406162626
1772555172810115000,7.354114990234375,-0.025348960790038108,-0.009168536366987973,0.012974463422014377
1772555172820047000,7.364047119140625,-0.022655483922362326,-0.007936291158292441,0.014759666338353418
1772555172829980200,7.373980224609375,-0.02026245130598545,0.0005833619790617376,0.023050634419522247
1772555172839912200,7.383912109375,-0.019362872117757796,0.00027372064115479584,0.010650303923920728
1772555172849845200,7.39384521484375,-0.024749825853109357,0.0006124784756917506,0.009487461556470952
1772555172859777300,7.40377734375,-0.030135610544681547,-0.0017192615406587718,0.007542012877389788
1772555172869710000,7.4137099609375,-0.023252865293622017,0.00042489261487498877,0.014313667003368027
1772555172879642000,7.42364208984375,-0.023701778104901313,-0.0017195446684490888,0.016490627449960448
1772555172889574100,7.43357421875,-0.02235387062728405,0.002691138780117035,0.0226073704643175
1772555172899507000,7.4435068359375,-0.017566051828861236,0.0006262512727174907,0.008544372020079754
1772555172909439000,7.45343896484375,-0.010533084452152251,0.0035868272445164617,0.019622422669664956
1772555172919372000,7.4633720703125,-0.015170096603035926,-0.010489473639288916,0.014424849459994584
1772555172929304000,7.473303955078125,-0.02295066747665405,-0.007077564570261165,0.01337914893249981
1772555172939237000,7.483237060546875,-0.021903204250335692,0.001311913715628907,0.013281780372094362
1772555172949169200,7.493169189453125,-0.017561375653743744,-0.0036016229548491534,0.017392741088569162
1772555172959102200,7.503102294921875,-0.01816051059067249,-0.002236526880413294,0.010828062510467133
1772555172969034200,7.5130341796875,-0.021302315747737884,0.002826976187387481,0.017428428889880887
1772555172978966000,7.522966064453125,-0.02594225050806999,-0.0075860438153613355,0.02145630986620672
1772555172988899000,7.532899169921875,-0.01696457880437374,-0.01184855096489191,0.0179597090552561
1772555172998831000,7.5428310546875,-0.013521744874119758,-0.0008093162220437079,0.01562327459747903
1772555173008764000,7.552763916015625,-0.016813187634944916,-0.00834723744620569,0.010416353604150936
1772555173018696200,7.5626962890625,-0.027288404420018196,-0.006845956904627382,0.017262479472137056
1772555173028629000,7.57262890625,-0.016066753181815146,-0.0037973647226579484,0.01727254877500236
1772555173038561000,7.58256103515625,-0.016515665993094442,-0.0012331493909936398,0.01660321641238406
1772555173048493000,7.5924931640625,-0.020105799439549446,-0.00475704920082353,0.015420650997734627
1772555173058426000,7.602426025390625,-0.03147884184718132,-0.001448463508952409,0.013077983161993325
1772555173068358100,7.612358154296875,-0.0198071087539196,-0.0002666241800878197,0.005078157214238308
1772555173078291200,7.622291259765625,-0.021452537873387335,-0.0013532321067061274,0.0163013656552881
1772555173088223000,7.632222900390625,-0.015764555364847183,-0.00434372829273343,0.01329210083670914
1772555173098156300,7.64215625,-0.014717676660418509,-0.0013717998098582028,0.013677542790607549
1772555173108088000,7.652088134765625,-0.0060392801642417905,-0.009200895133474841,0.011838915486866608
1772555173118020000,7.66202001953125,-0.015615502282977103,-0.009836937147844583,0.017217238391190767
1772555173127953200,7.671953125,-0.014865560698509216,-0.0032117103218100964,0.010750750357401556
1772555173137885200,7.68188525390625,-0.013967150554060935,-0.008525644486723468,0.014241907808254472
1772555173147818000,7.69181787109375,-0.02324526650905609,-0.007769949014903977,0.015680187849909998
1772555173157749800,7.701749755859375,-0.023543957194685935,0.0012058869247324763,0.01907263416664209
1772555173167682600,7.7116826171875,-0.02309504438340664,-0.0008842080891598015,0.015211113600013777
1772555173177614600,7.721614501953125,-0.01621171461045742,0.0022402988732326775,0.014283751355716958
1772555173187547600,7.731547607421875,-0.022944237735867498,0.00020687508317641912,0.019667933178669772
1772555173197479700,7.741479736328125,-0.021298224094510078,0.005916539700562134,0.01712769237763714
1772555173207411700,7.75141162109375,-0.024590835899114608,-0.005004932147823274,0.011049002651614136
1772555173217344800,7.7613447265625,-0.01606266152858734,-0.007459997149743139,0.017481200256734154
1772555173227276800,7.77127685546875,-0.020851064848899842,-0.00545650270706974,0.020524381044646725
1772555173237209900,7.7812099609375,-0.021000702452659607,-0.0024961824635975063,0.01371348632024601
1772555173247142000,7.791141845703125,-0.014416063365340232,-0.003801282845949754,0.010139431792334654
1772555173257075000,7.801074951171875,-0.016061492484807968,-0.011937991947168483,0.017353829283709637
1772555173267006700,7.8110068359375,-0.019951485660672185,0.0034987745017278937,0.02022947148499079
1772555173276938800,7.820938720703125,-0.01576338632106781,-0.004023063237313181,0.019420890481886454
1772555173286871600,7.83087158203125,-0.013967735075950621,-0.002508786216843873,0.01200598828261718
1772555173296803800,7.840803955078125,-0.017257424271106717,-0.0005287457149941474,0.015192481964780017
1772555173306736600,7.850736572265625,-0.012167992177605629,-0.0035035511415451763,0.022528597006527706
1772555173316668700,7.860668701171875,-0.016357845082879064,-0.007053252112912013,0.020445502555579878
1772555173326601700,7.870601806640625,-0.0096247374355793,0.004817939942050725,0.010720496783033013
1772555173336533800,7.88053369140625,-0.026086627414822577,0.0013573237599339336,0.017472423295234327
1772555173346466800,7.890466796875,-0.01591243940293789,-0.0036723866361193357,0.008555103476648219
1772555173356398800,7.90039892578125,-0.015314473509788512,-0.008465740126185119,0.02134328251236584
1772555173366330600,7.91033056640625,-0.02010287683010101,-0.00790522016659379,0.01740011154427193
1772555173376263700,7.920263671875,-0.019203882163763047,-0.006139187741605564,0.02029681479989085
1772555173386195700,7.93019580078125,-0.018752631264925,-0.009007619317388162,0.015033405245817266
1772555173396128800,7.940128662109375,-0.015761048233509063,-0.012943734923610463,0.016971323638991453
1772555173406060800,7.950060791015625,-0.015311550900340079,-0.010625859035830944,0.01100030010510236
1772555173415993600,7.95999365234375,-0.020398060384392736,-0.007080943837435916,0.004466354591981508
1772555173425925600,7.969925537109375,-0.0227916775226593,-0.001980122700240463,0.012880081403139046
1772555173435857700,7.979857666015625,-0.016058569875359533,-0.008649462662637233,0.021735679363436063
1772555173445790700,7.989790771484375,-0.024437106642127036,-0.00761841171500273,0.019033265704056248
1772555173455722800,7.99972265625,-0.025333763220906257,-0.0009801427443046121,0.013182662812597118
1772555173465655800,8.00965576171875,-0.019946809485554693,-0.010553862378699704,0.010639873861451633
1772555173475587600,8.019587646484375,-0.015755203014612196,-0.010477828867267816,0.019511381776933557
1772555173485521000,8.02952099609375,-0.022338088536262513,-0.006654708648845553,0.016758786000008692
1772555173495452700,8.03945263671875,-0.014107435807585715,-0.0016141206657513975,0.015049977354705334
1772555173505384700,8.049384765625,-0.007971125009655952,-0.0024052162445150314,0.0050905098057352
1772555173515317800,8.05931787109375,-0.015901333487033844,-0.006085914051253348,0.017866838573454877
1772555173525249800,8.069249755859374,-0.015002923342585562,-0.0017671740693040192,0.012987414235132746
1772555173535182600,8.0791826171875,-0.023081600379943848,-0.0017116262234747408,0.019115422995598055
1772555173545115000,8.089114990234375,-0.012007833179831505,-0.012055480846995486,0.015115512305009179
1772555173555047700,8.099047607421875,-0.013953122028708458,-0.009346148823061957,0.01534664504660759
1772555173564979700,8.108979736328125,-0.02487608258128166,0.0016852405400481073,0.017315830794302746
1772555173574912800,8.118912841796876,-0.01409983702301979,-0.0036930823642760515,0.01604648671192117
1772555173584844800,8.1288447265625,-0.019637012884020803,-0.002154145826585591,0.018234251680318263
1772555173594776600,8.138776611328124,-0.034003391888737675,-0.009244305016938596,0.01912237332619261
1772555173604709600,8.148709716796875,-0.024278116688132286,-0.010922549560619518,0.014113491089036687
1772555173614641700,8.1586416015625,-0.011858780097961425,-0.003991745650442317,0.008006593615259043
1772555173624574700,8.16857470703125,-0.017245733833312987,-0.008225711692078039,0.00982576273328159
1772555173634506800,8.1785068359375,-0.01455167244374752,-0.003930206455243751,0.018677693732036278
1772555173644439800,8.188439697265625,-0.02158522434234619,-0.0064346818231511855,0.012719808240933344
1772555173654371800,8.198371826171876,-0.017095511707663536,0.002381807969463989,0.011271888154675253
1772555173664303900,8.208303955078126,-0.025325579914450645,-0.002817258510971442,0.014958033888088538
1772555173674236700,8.218236572265624,-0.02577098559439182,-0.0033502876754384486,0.009208854677644557
1772555173684168700,8.228168701171874,-0.02023322521150112,-0.00839051033235155,0.010397489073476754
1772555173694101800,8.238101806640625,-0.020081834042072293,-0.009703127300878986,0.01450738121087197
1772555173704033500,8.248033447265625,-0.013346972829103469,-0.011543476204248145,0.017111526694125495
1772555173713966600,8.257966552734375,-0.01843289779126644,-0.006134018376143649,0.02226921085140202
1772555173723898600,8.267898681640625,-0.023221885633468626,0.0030992081243544816,0.01600410887491889
1772555173733830700,8.27783056640625,-0.024120880299806594,-0.010113552998984232,0.009251433444046414
1772555173743763700,8.287763671875,-0.02367138296663761,-0.0013485833310522138,0.012977614360325969
1772555173753695700,8.29769580078125,-0.02142564986646175,-0.007091008573723957,0.014242232035240157
1772555173763628800,8.30762890625,-0.012894552886486053,-0.009411149483826011,0.009627395183546468
1772555173773560800,8.317560791015625,-0.018880641558766363,-0.007384575559664517,0.017589610800961962
1772555173783493600,8.32749365234375,-0.016038111609220505,-0.0056830962708685545,0.009305643282737582
1772555173793426000,8.337426025390625,-0.01588847400546074,-0.009740801563300192,0.015356216592551208
1772555173803358700,8.347358642578126,-0.02831073320508003,-0.003787409584224224,0.01971694168585818
1772555173813290800,8.357290771484376,-0.008859598281979561,-0.0045313872187864035,0.012344074830296448
1772555173823222500,8.367222412109374,-0.019335399588942526,0.00033563429568894205,0.012590437107067554
1772555173833155600,8.377155517578124,-0.01709142005443573,-0.0033657957718241957,0.016495481721591203
1772555173843087600,8.387087646484375,-0.015296353331208228,-0.0033357659597415476,0.015711770298262127
1772555173853020700,8.397020751953125,-0.017391864305734632,-0.0016628369119949637,0.016922735256911254
1772555173862952700,8.40695263671875,-0.018887071299552916,-0.00727671300470829,0.014084169096429832
1772555173872885800,8.4168857421875,-0.012452069815993309,-0.00892190466215834,0.024902468264708294
1772555173882817800,8.42681787109375,-0.0277151053994894,-0.004883415526850149,0.012443142157443798
1772555173892749800,8.436749755859376,-0.01963409027457237,-0.006247050296561792,0.005504529400146566
1772555173902683000,8.446682861328124,-0.01903378629386425,-0.010544016838120295,0.007903886726032943
1772555173912615000,8.456614990234375,-0.013496025910973548,-0.003737926153000444,0.011917346451361662
1772555173922547700,8.466547607421875,-0.008557984986901282,-0.008646275191707535,0.01838810423489194
1772555173932479700,8.476479736328125,-0.01588964304924011,-0.010329807831859215,0.012729772512521593
1772555173942412500,8.48641259765625,-0.015143208596110343,-0.000779322942579165,0.00392761720593553
1772555173952344600,8.496344482421875,-0.018732757520675658,-0.008678460428258403,0.01761274964795448
1772555173962276600,8.506276611328126,-0.020230302602052688,-0.004551489291898906,0.014138666629488579
1772555173972209700,8.516209716796874,-0.017836685463786126,-0.0012387297484092413,0.010523083647945896
1772555173982141700,8.5261416015625,-0.020978490620851515,-0.0015456676725763827,0.0038842666879761963
1772555173992074800,8.53607470703125,-0.0088578447163105,-0.00811784913712181,0.01082010753287468
1772555174002006800,8.5460068359375,-0.014095745369791983,-0.004017592477751896,0.010941893581906333
1772555174011939800,8.55593994140625,-0.01903378629386425,-0.0002797211236786097,0.01140351517770905
1772555174021871900,8.565871826171875,-0.019482699105143546,0.003917876696633175,0.009569527516467497
1772555174031803600,8.5758037109375,-0.02831248677074909,-0.0010115973284933715,0.00847627978650853
1772555174041737000,8.585737060546874,-0.09041384589672088,-0.003531736056413501,-0.0203253193751676
1772555174051668700,8.595668701171874,0.05577917036712169,-0.015521229861956089,0.038224418533698186
1772555174061601500,8.6056015625,-0.052259179547429084,-0.002709213292924687,0.0024202151675359346
1772555174071533600,8.615533447265625,-0.0027308862686157226,-0.012316917395312339,0.023856030234985517
1772555174081466600,8.625466552734375,-0.01694412053823471,-0.002842895275726914,0.01197630096382927
1772555174091398700,8.635398681640625,-0.018141221368312834,-0.012390731550194323,0.018807480424433014
1772555174101331700,8.645331787109376,-0.02412614099681377,-0.0054312495348043735,0.015590621286758687
1772555174111263700,8.655263671875,-0.022779987084865568,-0.0012217055483721196,0.020543487603915854
1772555174121195800,8.66519580078125,-0.01544657545685768,-0.0033115631002467124,0.019956502045795785
1772555174131128800,8.67512890625,-0.0075134443700313564,-0.009634674307703971,0.02232111000199802
1772555174141060900,8.685060791015625,0.004610708665847778,-0.008960711435740813,0.027459947894909416
1772555174150994000,8.694993896484375,-0.019478022930026054,-0.015308509559882805,0.007730512053659185
1772555174160925700,8.70492578125,-0.09729191497266292,0.009863724690070375,-0.022838192678662016
