time,seconds_elapsed,z,y,x
1772556099497745200,0.0727451171875,0.19848991930484772,0.029346752911806107,0.08628371357917786
1772556099507676200,0.08267626953125,0.21340253949165344,0.04273596778512001,-0.01166514866054058
1772556099517607200,0.092607177734375,0.21195298433303833,0.05635244399309158,-0.05161736160516739
1772556099527539200,0.102539306640625,0.18499886989593506,0.03858973830938339,-0.058002717792987823
1772556099537470200,0.11247021484375,0.1459505409002304,0.017734525725245476,-0.038283076137304306
1772556099547401200,0.122401123046875,0.10977648198604584,0.016022004187107086,-0.01098729483783245
1772556099557332200,0.132332275390625,0.07008020579814911,0.04066956043243408,0.011411753483116627
1772556099567263200,0.14226318359375,0.029429418966174126,0.07570122182369232,0.032325342297554016
1772556099577194200,0.1521943359375,-0.018724529072642326,0.10743704438209534,0.04946038872003555
1772556099587125200,0.162125244140625,-0.07125434279441833,0.12270677834749222,0.04206600412726402
1772556099597056300,0.17205615234375,-0.11977261304855347,0.10448755323886871,-0.004163541831076145
1772556099606987300,0.1819873046875,-0.146335169672966,0.06926033645868301,-0.06696583330631256
1772556099616918300,0.191918212890625,-0.16322386264801025,0.027299297973513603,-0.12889498472213745
1772556099626849300,0.201849365234375,-0.17975734174251556,-0.021157320588827133,-0.1765509694814682
1772556099636781300,0.21178125,-0.18621310591697693,-0.049386829137802124,-0.20876829326152802
1772556099646712300,0.22171240234375,-0.1817660927772522,-0.0071962205693125725,-0.21456776559352875
1772556099656643000,0.23164306640625,-0.16048769652843475,0.07782332599163055,-0.17403684556484222
1772556099666574300,0.24157421875,-0.1269364058971405,0.15945614874362946,-0.10274402797222137
1772556099676505300,0.25150537109375,-0.10925620049238205,0.3621005713939667,0.05325382947921753
1772556099686436000,0.26143603515625,-0.16824637353420258,0.29609164595603943,0.23598898947238922
1772556099696367400,0.271367431640625,-0.25547128915786743,0.2229420691728592,0.3815121054649353
1772556099706298000,0.281298095703125,-0.2894556522369385,0.1967146396636963,0.4554614722728729
1772556099716229000,0.29122900390625,-0.2651385962963104,0.11711195111274719,0.4603409171104431
1772556099726160400,0.301160400390625,-0.234047532081604,-0.02820853888988495,0.4290984570980072
1772556099736091100,0.311091064453125,-0.21771037578582764,-0.19966630637645721,0.39535489678382874
1772556099746023200,0.321023193359375,-0.18866372108459473,-0.26973405480384827,0.39927545189857483
1772556099755954200,0.3309541015625,-0.211078479886055,-0.37842220067977905,0.4526459872722626
1772556099765885200,0.34088525390625,-0.2261279970407486,-0.5122153759002686,0.5400003790855408
1772556099775816200,0.350816162109375,-0.1380402147769928,-0.5612965822219849,0.5963574051856995
1772556099785747200,0.360747314453125,-0.05986184626817703,-0.42373549938201904,0.6401548385620117
1772556099795678200,0.37067822265625,-0.05532142519950867,-0.10380010306835175,0.6749975085258484
1772556099805609200,0.380609130859375,-0.1168084666132927,0.39967355132102966,0.7150141000747681
1772556099815540200,0.390540283203125,-0.15833647549152374,0.82004714012146,0.7107200622558594
1772556099825471200,0.40047119140625,-0.15281318128108978,0.9986036419868469,0.6234933733940125
1772556099835402200,0.41040234375,-0.07257239520549774,1.0443886518478394,0.31132641434669495
1772556099845334300,0.420334228515625,-0.017665773630142212,1.186092495918274,-0.2977864146232605
1772556099855265000,0.43026513671875,-0.003803487401455641,1.4898202419281006,-0.9961737990379333
1772556099865196300,0.4401962890625,-0.048377156257629395,1.3414905071258545,-1.3798308372497559
1772556099875127300,0.450127197265625,-0.02717466466128826,0.8407328724861145,-1.3009086847305298
1772556099885058000,0.46005810546875,0.082477867603302,0.22520902752876282,-0.9135450124740601
1772556099894989300,0.4699892578125,0.26387667655944824,-0.1334916055202484,-0.39185547828674316
1772556099904920000,0.479920166015625,0.43209072947502136,-0.3635474145412445,-0.0021646060049533844
1772556099914851000,0.48985107421875,0.450196236371994,-0.6929346323013306,0.11181150376796722
1772556099924782300,0.4997822265625,0.2647063732147217,-1.339964509010315,0.21441641449928284
1772556099934713000,0.509713134765625,0.08794013410806656,-1.9125995635986328,0.3096896708011627
1772556099944644000,0.51964404296875,0.014483490958809853,-2.1926262378692627,0.11495044827461243
1772556099954576100,0.529576171875,0.022090012207627296,-2.3913447856903076,-0.07466661930084229
1772556099964507100,0.539507080078125,0.208973228931427,-2.1535744667053223,-0.2152465134859085
1772556099974438100,0.549438232421875,0.3056657016277313,0.0726216584444046,-0.590567946434021
1772556099984369200,0.559369140625,-0.38889017701148987,2.075594902038574,-1.4299174547195435
1772556099994300200,0.569300048828125,-0.7107549905776978,2.6422011852264404,-1.7387620210647583
1772556100004231200,0.579231201171875,-0.8142565488815308,2.666550874710083,-1.3484677076339722
1772556100014162200,0.589162109375,-0.6776137948036194,1.6335092782974243,-0.6077374219894409
1772556100024093200,0.59909326171875,-0.4181740880012512,0.9531599283218384,0.09860000014305115
1772556100034024200,0.609024169921875,-0.121297687292099,1.162123441696167,0.6612444519996643
1772556100043955200,0.618955078125,0.06787992268800735,1.721717357635498,0.9843769073486328
1772556100053887200,0.62888720703125,0.16911466419696808,2.0726282596588135,1.055572271347046
1772556100063818200,0.638818359375,0.3290829062461853,2.137725353240967,0.8873550295829773
1772556100073749200,0.648749267578125,0.49950680136680603,2.186328172683716,0.5009905099868774
1772556100083680300,0.65868017578125,0.5648223757743835,2.093085527420044,0.228453129529953
1772556100093611300,0.668611328125,0.5922747850418091,1.7184884548187256,0.27762120962142944
1772556100103542000,0.6785419921875,0.605139970779419,1.2032285928726196,0.477773517370224
1772556100113473300,0.688473388671875,0.4657154977321625,0.9186667203903198,0.5789102911949158
1772556100123404300,0.698404296875,0.25475355982780457,0.6011781096458435,0.43735843896865845
1772556100133335000,0.7083349609375,0.26762330532073975,-0.9013989567756653,-0.8682776093482971
1772556100143266300,0.718266357421875,0.524455189704895,-1.853760004043579,-0.8825209736824036
1772556100153197300,0.728197265625,0.4100130498409271,-2.602825164794922,-0.7274643182754517
1772556100163129000,0.738129150390625,0.4807359576225281,-3.4193131923675537,-0.4623696208000183
1772556100173060000,0.74806005859375,0.573773205280304,-3.643232822418213,-0.21210438013076782
1772556100182991400,0.757991455078125,0.7657726407051086,-3.5125274658203125,-0.076991006731987
1772556100192922000,0.767922119140625,0.9000228643417358,-3.1926465034484863,-0.013761443085968494
1772556100202853000,0.77785302734375,0.8259643316268921,-2.93668270111084,-0.02033608965575695
1772556100212784400,0.787784423828125,0.7617056965827942,-3.038595199584961,-0.014081921428442001
1772556100222715100,0.797715087890625,0.7251777648925781,-3.175227642059326,-0.015051564201712608
1772556100232646100,0.807646240234375,0.5153078436851501,-2.6138010025024414,-0.07193322479724884
1772556100242577400,0.817577392578125,0.024243397638201714,-1.2026593685150146,0.08198808133602142
1772556100252508200,0.827508056640625,-0.25374534726142883,0.050110720098018646,0.44551408290863037
1772556100262440200,0.837440185546875,-0.2071349173784256,0.9053541421890259,0.7542047500610352
1772556100272371200,0.84737109375,0.012769747525453568,1.8361585140228271,0.8087545037269592
1772556100282302200,0.85730224609375,0.28734251856803894,2.3596575260162354,0.6878787875175476
1772556100292233200,0.867233154296875,0.5638010501861572,2.2907323837280273,0.44663581252098083
1772556100302164200,0.877164306640625,0.6238062381744385,1.7873226404190063,0.14471371471881866
1772556100312095200,0.88709521484375,0.4250292479991913,0.7426615357398987,-0.39648935198783875
1772556100322026200,0.897026123046875,-0.04383279010653496,-0.3210490047931671,-1.26107656955719
1772556100331957000,0.90695703125,-0.5236148238182068,-0.7445624470710754,-2.118379592895508
1772556100341888300,0.91688818359375,-0.7358081340789795,-0.27014705538749695,-2.3493740558624268
1772556100351819500,0.926819580078125,-0.8342412710189819,0.41800472140312195,-1.6260896921157837
1772556100361751600,0.93675146484375,-0.7531159520149231,0.8001604676246643,-0.3220079839229584
1772556100371682600,0.9466826171875,-0.46076563000679016,0.7903720140457153,0.9136523604393005
1772556100381613600,0.956613525390625,-0.14167125523090363,0.5625733137130737,1.5561654567718506
1772556100391544600,0.966544677734375,0.09706462174654007,0.5283330678939819,1.3160252571105957
1772556100401475600,0.9764755859375,0.21954618394374847,0.7990342974662781,0.6062211990356445
1772556100411406600,0.986406494140625,0.37597230076789856,2.7641990184783936,-0.06216001510620117
1772556100421337600,0.996337646484375,0.3900015354156494,4.9627685546875,-0.6415945887565613
1772556100431268600,1.0062685546875,0.1979476809501648,3.9329729080200195,-1.0995471477508545
1772556100441199600,1.01619970703125,0.02917618304491043,2.0954980850219727,-0.5845810770988464
1772556100451130600,1.026130615234375,0.11858063191175461,1.234509825706482,-0.14235225319862366
1772556100461062700,1.036062744140625,0.25393518805503845,0.7102343440055847,0.18492655456066132
1772556100470993400,1.045993408203125,0.3916302025318146,0.8771985769271851,0.37768933176994324
1772556100480924700,1.055924560546875,0.34831130504608154,1.3772869110107422,0.46414870023727417
1772556100490855700,1.065855712890625,0.15802977979183197,1.7880967855453491,0.6264185905456543
1772556100500786400,1.075786376953125,0.01654835231602192,2.065967082977295,0.8722928762435913
1772556100510717700,1.0857177734375,0.041804976761341095,2.073612689971924,1.060324788093567
1772556100520648400,1.0956484375,0.25688526034355164,1.7341258525848389,1.0816528797149658
1772556100530579500,1.105579345703125,0.6399237513542175,0.9356513619422913,0.9277002811431885
1772556100540510700,1.1155107421875,1.076801061630249,-0.3913916349411011,0.6681267023086548
1772556100550441500,1.12544140625,1.4281702041625977,-1.668389081954956,0.36009594798088074
1772556100560373500,1.13537353515625,1.560211181640625,-2.3667678833007812,0.05852986499667168
1772556100570304500,1.145304443359375,1.502221703529358,-2.4526398181915283,-0.08162857592105865
1772556100580235500,1.155235595703125,1.3369483947753906,-2.1322031021118164,0.03941807150840759
1772556100590166500,1.16516650390625,1.2349320650100708,-1.630797266960144,0.46339675784111023
1772556100600097500,1.17509765625,1.1788346767425537,-1.2574161291122437,1.0323033332824707
1772556100610028500,1.185028564453125,1.081906795501709,-1.058808445930481,1.4901268482208252
1772556100619959600,1.19495947265625,0.9359949231147766,-0.9205632209777832,1.7205414772033691
1772556100629890600,1.204890625,0.8299893736839294,-0.8466266989707947,1.7578155994415283
1772556100639821600,1.214821533203125,0.7904312610626221,-0.8574233651161194,1.6544524431228638
1772556100649752600,1.224752685546875,0.7813386917114258,-0.9518483877182007,1.4613863229751587
1772556100659684600,1.2346845703125,0.7753055095672607,-1.0693027973175049,1.225165843963623
1772556100669615600,1.24461572265625,0.75107741355896,-1.0597196817398071,0.9600670337677002
1772556100679546600,1.254546630859375,0.7231355905532837,-0.8615910410881042,0.6988731026649475
1772556100689477600,1.2644775390625,0.7239486575126648,-0.6166238784790039,0.49329113960266113
1772556100699408600,1.27440869140625,0.7216002345085144,-0.4810410141944885,0.3203561007976532
1772556100709339600,1.284339599609375,0.7147204875946045,-0.4094773530960083,0.19990265369415283
1772556100719270400,1.2942705078125,0.6623633503913879,-0.5240998864173889,0.16996487975120544
1772556100729201700,1.30420166015625,0.5404480695724487,-0.8121793270111084,0.2086970955133438
1772556100739132700,1.314132568359375,0.39840903878211975,-1.1009409427642822,0.27166876196861267
1772556100749063400,1.3240634765625,0.30397841334342957,-1.2447494268417358,0.31942376494407654
1772556100758995500,1.333995361328125,0.24878378212451935,-1.2086114883422852,0.3125620186328888
1772556100768926700,1.3439267578125,0.15872739255428314,-1.001882553100586,0.22603271901607513
1772556100778857500,1.353857421875,-0.023610061034560204,-0.737000048160553,0.08058799803256989
1772556100788788500,1.36378857421875,-0.2694914638996124,-0.45912396907806396,-0.0641247108578682
1772556100798719700,1.3737197265625,-0.43861299753189087,-0.30123084783554077,-0.10900600999593735
1772556100808650500,1.383650390625,-0.4400119483470917,-0.4185343086719513,-0.0951051115989685
1772556100818581500,1.39358154296875,-0.3661295175552368,-0.9004979133605957,-0.19518384337425232
1772556100828512800,1.4035126953125,-0.39928585290908813,-1.4023321866989136,-0.3478836417198181
1772556100838443500,1.413443603515625,-0.6030874252319336,-1.533656358718872,-0.4319152235984802
1772556100848374500,1.42337451171875,-0.7727957963943481,-1.0298608541488647,-0.49679064750671387
1772556100858306600,1.433306640625,-0.8008812069892883,-0.06402043253183365,-0.5128781795501709
1772556100868237600,1.443237548828125,-0.7063517570495605,0.943791389465332,-0.42923596501350403
1772556100878168600,1.45316845703125,-0.4986990988254547,1.4797430038452148,-0.2809416353702545
1772556100888099600,1.463099609375,-0.3389129042625427,1.5011448860168457,-0.29250428080558777
1772556100898030600,1.473030517578125,-0.3742125928401947,1.155863642692566,-0.5235806703567505
1772556100907961600,1.482961669921875,-0.47399723529815674,0.7718817591667175,-0.7226064205169678
1772556100917892600,1.492892578125,-0.3731386661529541,0.6919755935668945,-0.7310065627098083
1772556100927823600,1.50282373046875,-0.037649355828762054,0.8449507355690002,-0.6054481267929077
1772556100937754600,1.512754638671875,0.3894261419773102,0.7266735434532166,-0.4667990207672119
1772556100947685400,1.522685302734375,0.6651527285575867,0.13799192011356354,-0.5107818841934204
1772556100957617400,1.532617431640625,0.8012100458145142,-0.5809174180030823,-0.7448248863220215
1772556100967548700,1.542548583984375,0.9319987297058105,-1.1529465913772583,-1.1054269075393677
1772556100977479700,1.552479736328125,0.9702997207641602,-1.402782678604126,-1.446845293045044
1772556100987410400,1.562410400390625,0.8553507328033447,-1.4085739850997925,-1.4973928928375244
1772556100997341700,1.572341796875,0.6196819543838501,-1.091645359992981,-1.2873519659042358
1772556101007272400,1.5822724609375,0.36924201250076294,-0.2621529698371887,-1.0033421516418457
1772556101017203500,1.592203369140625,0.2528271973133087,0.7964520454406738,-0.7514662146568298
1772556101027134700,1.602134765625,0.3116670846939087,1.5796045064926147,-0.630047619342804
1772556101037065500,1.6120654296875,0.4001331031322479,1.7430893182754517,-0.7156092524528503
1772556101046997500,1.62199755859375,0.42865633964538574,1.2881516218185425,-0.9232367277145386
1772556101056928500,1.631928466796875,0.45337972044944763,0.514808177947998,-1.0965827703475952
1772556101066859500,1.641859619140625,0.4466800093650818,-0.23442049324512482,-1.0473343133926392
1772556101076790500,1.65179052734375,0.42143383622169495,-0.6252341866493225,-0.8107925057411194
1772556101086721500,1.661721435546875,0.4682151675224304,-0.49971380829811096,-0.6012198328971863
1772556101096652500,1.671652587890625,0.5817597508430481,-0.14945082366466522,-0.4671326279640198
1772556101106583600,1.68158349609375,0.6515125036239624,0.16844218969345093,-0.41146883368492126
1772556101116514600,1.6915146484375,0.6072293519973755,0.37277752161026,-0.3795638680458069
1772556101126445600,1.701445556640625,0.4584558606147766,0.41525813937187195,-0.23033417761325836
1772556101136376600,1.71137646484375,0.23768508434295654,0.20756709575653076,0.11473651230335236
1772556101146308600,1.72130859375,0.05078471079468727,-0.11389801651239395,0.5839809775352478
1772556101156239600,1.731239501953125,-0.07023141533136368,-0.37815213203430176,1.0404846668243408
1772556101166170600,1.741170654296875,-0.15583686530590057,-0.54474937915802,1.344413161277771
1772556101176101600,1.7511015625,-0.24366909265518188,-0.5780825018882751,1.401374340057373
1772556101186032600,1.76103271484375,-0.31854918599128723,-0.42619654536247253,1.2311389446258545
1772556101195963600,1.770963623046875,-0.31169775128364563,-0.10298450291156769,0.9537264108657837
1772556101205894400,1.780894287109375,-0.18368519842624664,0.2346060574054718,0.6619677543640137
1772556101215825700,1.79082568359375,0.07506074011325836,0.4168661832809448,0.3843688368797302
1772556101225756700,1.800756591796875,0.4139045774936676,0.32112550735473633,0.06774669885635376
1772556101235687400,1.8106875,0.721777617931366,-0.03365721553564072,-0.2864477336406708
1772556101245619500,1.820619384765625,0.899746298789978,-0.5398392081260681,-0.6434034705162048
1772556101255550700,1.83055078125,0.9182025790214539,-1.0287212133407593,-0.8817778825759888
1772556101265481500,1.8404814453125,0.8432961106300354,-1.337027907371521,-0.9409986138343811
1772556101275412500,1.85041259765625,0.7311549782752991,-1.325242519378662,-0.8326457738876343
1772556101285343700,1.86034375,0.6272373795509338,-1.1008219718933105,-0.615989625453949
1772556101295274500,1.8702744140625,0.4834476709365845,-0.9008830785751343,-0.33476635813713074
1772556101305205500,1.88020556640625,0.2182929664850235,-0.735112726688385,-0.06785955280065536
1772556101315136800,1.89013671875,-0.15837103128433228,-0.5158792734146118,0.14290255308151245
1772556101325067500,1.900067626953125,-0.5735714435577393,-0.2931516170501709,0.3314934968948364
1772556101334998500,1.90999853515625,-0.9537445306777954,-0.0470108725130558,0.5253164768218994
1772556101344930600,1.9199306640625,-1.236202359199524,0.24847695231437683,0.7208588123321533
1772556101354860800,1.92986083984375,-1.3852962255477905,0.5014686584472656,0.8761438131332397
1772556101364791800,1.939791748046875,-1.4109736680984497,0.6092172265052795,0.9647319912910461
1772556101374722800,1.949722900390625,-1.3671064376831055,0.5520126223564148,0.9167892336845398
1772556101384653800,1.95965380859375,-1.114350438117981,0.3703908920288086,0.5856847763061523
1772556101394584800,1.969584716796875,-0.7164649367332458,0.16927769780158997,0.07541758567094803
1772556101404515800,1.979515869140625,-0.40630653500556946,0.02739885449409485,-0.40166136622428894
1772556101414446800,1.98944677734375,-0.23532405495643616,0.065060093998909,-0.696271538734436
1772556101424377900,1.9993779296875,-0.17523328959941864,0.10223382711410522,-0.6964473128318787
1772556101434309600,2.0093095703125,-0.17587314546108246,0.13455405831336975,-0.45036613941192627
1772556101444241000,2.019240966796875,-0.13844481110572815,0.1184011921286583,-0.20889092981815338
1772556101454172000,2.029171875,-0.08990504592657089,-0.048569437116384506,-0.12847474217414856
1772556101464102700,2.0391025390625,-0.016859596595168114,-0.2513084411621094,-0.16170859336853027
1772556101474034000,2.049033935546875,0.056358762085437775,-0.2825709283351898,-0.17180046439170837
1772556101483965000,2.05896484375,0.1006026566028595,-0.005220041610300541,-0.15402865409851074
1772556101493895700,2.068895751953125,0.16177496314048767,0.4456753730773926,-0.14186382293701172
1772556101503827000,2.078826904296875,0.1542738974094391,0.5876796245574951,-0.17688971757888794
1772556101513758000,2.088758056640625,0.07901010662317276,0.4191286861896515,-0.29792293906211853
1772556101523689700,2.098689697265625,-0.011536041274666786,0.11765937507152557,-0.34421107172966003
1772556101533620700,2.108620849609375,-0.10079187899827957,-0.09955868870019913,-0.2212771624326706
1772556101543552000,2.118552001953125,-0.16699780523777008,-0.043579041957855225,-0.07623022794723511
1772556101553482800,2.128482666015625,-0.21443592011928558,0.289456307888031,0.006896844133734703
1772556101563413800,2.138413818359375,-0.224265918135643,0.6730257868766785,0.046978749334812164
1772556101573345000,2.148344970703125,-0.13301509618759155,0.8877156972885132,0.10738057643175125
1772556101583275800,2.15827587890625,-0.012891882099211216,0.8389518857002258,0.20885446667671204
1772556101593206800,2.168206787109375,0.09105823189020157,0.5923552513122559,0.33552446961402893
1772556101603137800,2.1781376953125,0.2389712780714035,0.23488610982894897,0.4227296710014343
1772556101613069800,2.18806982421875,0.36559298634529114,-0.2141147255897522,0.409786581993103
1772556101623000800,2.198000732421875,0.4125836491584778,-0.6479905247688293,0.29504483938217163
1772556101632931800,2.207931884765625,0.3884688913822174,-0.8782079219818115,0.1523549109697342
1772556101642862800,2.21786279296875,0.3012567460536957,-0.8208264112472534,0.09198904037475586
1772556101652793900,2.2277939453125,0.21505792438983917,-0.47415032982826233,0.19719238579273224
1772556101662724600,2.237724609375,0.1810261756181717,-0.0634504035115242,0.5096365809440613
1772556101672656000,2.24765576171875,0.15230928361415863,0.1555950790643692,0.9457104206085205
1772556101682587000,2.2575869140625,0.16040077805519104,0.16220051050186157,1.3690286874771118
1772556101692517600,2.267517578125,0.18139339983463287,0.0038539282977581024,1.6548080444335938
1772556101702449000,2.277448974609375,0.20475783944129944,-0.19037041068077087,1.7376339435577393
1772556101712381000,2.287380859375,0.23384612798690796,-0.3112921118736267,1.6500906944274902
1772556101722311700,2.297311767578125,0.26582324504852295,-0.2680938243865967,1.4343578815460205
1772556101732243000,2.307242919921875,0.31129688024520874,-0.0862506553530693,1.1235642433166504
1772556101742174000,2.317174072265625,0.3822064697742462,0.17126795649528503,0.7693073749542236
1772556101752104700,2.327104736328125,0.5040739178657532,0.40207603573799133,0.43571415543556213
1772556101762036000,2.337035888671875,0.6665038466453552,0.5143440365791321,0.14498086273670197
1772556101771967000,2.346967041015625,0.8383861780166626,0.47623756527900696,-0.1487206518650055
1772556101781897700,2.356897705078125,1.0080103874206543,0.3226916790008545,-0.5141316652297974
1772556101791829000,2.3668291015625,1.1224610805511475,0.09604302793741226,-0.8946505784988403
1772556101801761000,2.376760986328125,1.1440742015838623,-0.13875937461853027,-1.132835030555725
1772556101811691800,2.38669189453125,1.1069871187210083,-0.31973209977149963,-1.1705178022384644
1772556101821622800,2.396622802734375,0.9739867448806763,-0.42189255356788635,-1.0360723733901978
1772556101831554000,2.406553955078125,0.7541073560714722,-0.36350715160369873,-0.830440104007721
1772556101841484800,2.41648486328125,0.5061275959014893,-0.14725768566131592,-0.6801409125328064
1772556101851415800,2.426415771484375,0.17216655611991882,0.04044313356280327,-0.5623276233673096
1772556101861346800,2.436346923828125,-0.21325862407684326,0.10229212045669556,-0.3870109021663666
1772556101871277800,2.44627783203125,-0.5441804528236389,0.12458804994821548,-0.09610284119844437
1772556101881208800,2.456208740234375,-0.7801602482795715,0.1252967119216919,0.2577652037143707
1772556101891139800,2.466139892578125,-0.9065540432929993,0.13668759167194366,0.5643150806427002
1772556101901072000,2.47607177734375,-0.9110438823699951,0.23342666029930115,0.7327067852020264
1772556101911003000,2.4860029296875,-0.6435276865959167,0.41870638728141785,0.6255609393119812
1772556101920933600,2.49593359375,-0.20821431279182434,0.7948706746101379,0.09036225080490112
1772556101930865000,2.505864990234375,0.12173201888799667,1.2847479581832886,-0.7664178609848022
1772556101940796000,2.5157958984375,0.32704976201057434,1.4987103939056396,-1.5658637285232544
1772556101950726700,2.5257265625,0.4629320204257965,1.2211452722549438,-2.0129806995391846
1772556101960658000,2.535657958984375,0.5515428781509399,0.6613025069236755,-2.041243314743042
1772556101970589000,2.5455888671875,0.5441145896911621,0.22938679158687592,-1.773348093032837
1772556101980519700,2.555519775390625,0.3743647336959839,-0.08313143253326416,-1.3205034732818604
1772556101990451700,2.56545166015625,0.11353062838315964,-0.1394016146659851,-0.8172864317893982
1772556102000383000,2.575383056640625,-0.12939785420894623,0.2110634744167328,-0.2821521759033203
1772556102010313700,2.585313720703125,-0.25086671113967896,0.7517879009246826,0.24401357769966125
1772556102020244700,2.59524462890625,-0.21156297624111176,1.1283146142959595,0.6371230483055115
1772556102030176000,2.605176025390625,-0.05213674157857895,1.1286922693252563,0.7622515559196472
1772556102040106800,2.615106689453125,0.14054882526397705,0.6706375479698181,0.5722206234931946
1772556102050037800,2.625037841796875,0.344912052154541,-0.05134057253599167,0.14433614909648895
1772556102059969000,2.634968994140625,0.48423317074775696,-0.7461720705032349,-0.36227884888648987
1772556102069899800,2.644899658203125,0.5398704409599304,-1.124742031097412,-0.7943761348724365
1772556102079831800,2.654831787109375,0.5425839424133301,-1.0612366199493408,-0.997782826423645
1772556102089762800,2.6647626953125,0.4781007170677185,-0.7040932774543762,-0.8375123739242554
1772556102099693800,2.67469384765625,0.36035677790641785,-0.3235241174697876,-0.37722066044807434
1772556102109624800,2.684624755859375,0.23388950526714325,-0.045594025403261185,0.14974138140678406
1772556102119555800,2.694555908203125,0.06784992665052414,0.04457128793001175,0.6106959581375122
1772556102129486800,2.70448681640625,-0.1595434844493866,-0.10912372171878815,1.0148048400878906
1772556102139417900,2.71441796875,-0.3744339346885681,-0.3341142237186432,1.3512654304504395
1772556102149348600,2.7243486328125,-0.5350964665412903,-0.4585842192173004,1.5686086416244507
1772556102159279900,2.73427978515625,-0.6512091755867004,-0.5231831669807434,1.6645901203155518
1772556102169212000,2.7442119140625,-0.767763078212738,-0.6175751686096191,1.6674412488937378
1772556102179143000,2.754142822265625,-0.9094770550727844,-0.6999949216842651,1.6231017112731934
1772556102189074000,2.764073974609375,-1.0592795610427856,-0.6880068778991699,1.6169785261154175
1772556102199005000,2.7740048828125,-1.1768287420272827,-0.6040006279945374,1.704963207244873
1772556102208935700,2.783935791015625,-1.2298821210861206,-0.4943879544734955,1.869435429573059
1772556102218867000,2.793866943359375,-1.2205451726913452,-0.3989298641681671,2.0343735218048096
1772556102228798000,2.8037978515625,-1.1590583324432373,-0.3437223732471466,2.1240246295928955
1772556102238728700,2.813728759765625,-1.1103706359863281,-0.31129172444343567,2.093923807144165
1772556102248660000,2.823659912109375,-1.124468207359314,-0.20449310541152954,1.9585093259811401
1772556102258592000,2.833592041015625,-1.1887792348861694,0.08820933848619461,1.7842832803726196
1772556102268522800,2.843522705078125,-1.2137954235076904,0.6371101140975952,1.6473877429962158
1772556102278453800,2.853453857421875,-1.0701870918273926,1.309407114982605,1.590975284576416
1772556102288385000,2.863385009765625,-0.7315750122070312,1.8524563312530518,1.5595051050186157
1772556102298315800,2.873315673828125,-0.25875207781791687,2.080777168273926,1.4672307968139648
1772556102308246800,2.883246826171875,0.24809251725673676,1.8621267080307007,1.2524242401123047
1772556102318178000,2.893177978515625,0.790385901927948,1.1847871541976929,0.9075254797935486
1772556102328108800,2.90310888671875,1.3248412609100342,0.1797242909669876,0.48798877000808716
1772556102338039800,2.913039794921875,1.8028744459152222,-0.839985191822052,0.06241987645626068
1772556102347971800,2.922971923828125,2.1859989166259766,-1.6332260370254517,-0.2586325407028198
1772556102357903000,2.932903076171875,2.436506986618042,-2.187960386276245,-0.39905810356140137
1772556102367833900,2.942833740234375,2.47182035446167,-2.530648946762085,-0.328027606010437
1772556102377764900,2.952764892578125,2.279172897338867,-2.660937786102295,-0.0995989665389061
1772556102387696000,2.962696044921875,1.9445868730545044,-2.565368413925171,0.21462638676166534
1772556102397627000,2.972626953125,1.5681087970733643,-2.2353804111480713,0.5566540360450745
1772556102407558000,2.982557861328125,1.2345812320709229,-1.7260042428970337,0.8338636159896851
1772556102417489200,2.9924892578125,0.9795626401901245,-1.1095820665359497,0.9823580384254456
1772556102427420000,3.002419921875,0.7762320637702942,-0.46923762559890747,1.0071909427642822
1772556102437352000,3.01235205078125,0.6088752746582031,0.10482830554246902,0.9433287978172302
1772556102447283000,3.022282958984375,0.40397223830223083,0.49550312757492065,0.7700295448303223
1772556102457214000,3.0322138671875,0.0989484116435051,0.6489861607551575,0.4620128273963928
1772556102467145000,3.04214501953125,-0.286024272441864,0.7624459862709045,0.1186642125248909
1772556102477076000,3.052075927734375,-0.6772991418838501,0.9031868577003479,-0.044049594551324844
1772556102487007000,3.062007080078125,-0.9375219345092773,0.9451115131378174,0.07963288575410843
1772556102496938000,3.07193798828125,-0.8462143540382385,0.8473767042160034,0.37505146861076355
1772556102506868700,3.08186865234375,-0.4036765694618225,0.631561815738678,0.7438910603523254
1772556102516800000,3.091800048828125,0.12183194607496262,0.37530553340911865,1.0231187343597412
1772556102526732000,3.10173193359375,0.43985456228256226,0.3448319733142853,1.0345474481582642
1772556102536663000,3.1116630859375,0.3606223165988922,0.3292897641658783,0.9271247982978821
1772556102546593800,3.12159375,0.07174629718065262,0.10508960485458374,0.9368534088134766
1772556102556525000,3.131525146484375,-0.13160096108913422,-0.1633080244064331,0.9396086931228638
1772556102566455800,3.141455810546875,-0.1986246556043625,-0.32244670391082764,0.7022753357887268
1772556102576386800,3.15138671875,-0.1178286001086235,-0.3583522439002991,0.20201247930526733
1772556102586318000,3.161318115234375,-0.017746808007359505,-0.3868709206581116,-0.33728456497192383
1772556102596248800,3.171248779296875,-0.007882725447416306,-0.38187724351882935,-0.7770020365715027
1772556102606179800,3.181179931640625,-0.09161648899316788,-0.27904805541038513,-1.1016058921813965
1772556102616111900,3.19111181640625,-0.21074847877025604,-0.02454095147550106,-1.340349793434143
1772556102626043000,3.20104296875,-0.2631940245628357,0.29698148369789124,-1.430024266242981
1772556102635974000,3.210973876953125,-0.1804562658071518,0.5310791730880737,-1.315305471420288
1772556102645905000,3.22090478515625,0.024299107491970062,0.513900101184845,-1.040995478630066
1772556102655836000,3.2308359375,0.2351120114326477,0.2942676246166229,-0.7674251794815063
1772556102665767000,3.240766845703125,0.3390204608440399,0.0026505645364522934,-0.6481958031654358
1772556102675698000,3.250697998046875,0.3373378813266754,-0.20123571157455444,-0.6683748364448547
1772556102685629000,3.26062890625,0.21172860264778137,-0.2225043922662735,-0.7383559942245483
1772556102695561000,3.27056103515625,0.060638684779405594,-0.10450877994298935,-0.7963279485702515
1772556102705492000,3.280491943359375,0.02758406102657318,0.03195319324731827,-0.777076244354248
1772556102715423000,3.290423095703125,0.1398288458585739,0.09254010766744614,-0.6806490421295166
1772556102725354000,3.30035400390625,0.34838372468948364,0.044078849256038666,-0.5716627836227417
1772556102735285000,3.310284912109375,0.5638161301612854,-0.16033287346363068,-0.4584667384624481
1772556102745216000,3.320216064453125,0.701272189617157,-0.5472462177276611,-0.3545086085796356
1772556102755147000,3.33014697265625,0.6499876976013184,-0.9994807839393616,-0.2816309630870819
1772556102765078000,3.340078125,0.42422449588775635,-1.3381863832473755,-0.23082175850868225
1772556102775009000,3.350009033203125,0.14866028726100922,-1.4199893474578857,-0.1182941421866417
1772556102784941000,3.359941162109375,-0.011134324595332146,-1.1715010404586792,0.005502330604940653
1772556102794872000,3.3698720703125,0.08704417943954468,-0.6561456322669983,0.06250809133052826
1772556102804802800,3.379802734375,0.38245293498039246,-0.05896676331758499,0.08256547152996063
1772556102814734000,3.389734130859375,0.7195878624916077,0.41581785678863525,0.05169251188635826
1772556102824665000,3.3996650390625,0.8984113931655884,0.577372670173645,-0.052546437829732895
1772556102834595800,3.409595947265625,0.8998827934265137,0.3495986759662628,-0.18843290209770203
1772556102844527000,3.419527099609375,0.824989378452301,-0.2140357494354248,-0.3296847641468048
1772556102854457900,3.429457763671875,0.7802059054374695,-0.9139201045036316,-0.5374433398246765
1772556102864388900,3.439388916015625,0.5993229746818542,-1.4860044717788696,-0.8396701216697693
1772556102874321000,3.44932080078125,0.09129652380943298,-1.6335813999176025,-1.1269104480743408
1772556102884252200,3.459252197265625,-0.7756491899490356,-1.1301343441009521,-1.2979720830917358
1772556102894183000,3.469182861328125,-1.740562081336975,0.003979189321398735,-1.1912249326705933
1772556102904114000,3.479114013671875,-2.5413291454315186,1.4330741167068481,-0.696016252040863
1772556102914045000,3.489044921875,-2.9863176345825195,2.7668275833129883,0.06283494830131531
1772556102923976000,3.498975830078125,-3.0271146297454834,3.700896978378296,0.8351437449455261
1772556102933907000,3.508906982421875,-2.815046787261963,3.891737699508667,1.4242699146270752
1772556102943838000,3.518837890625,-2.4490625858306885,3.275277853012085,1.5931646823883057
1772556102953769000,3.52876904296875,-1.9611181020736694,2.1908771991729736,1.176335334777832
1772556102963701000,3.538700927734375,-1.5220941305160522,1.0231913328170776,0.328052818775177
1772556102973631700,3.5486318359375,-1.1012004613876343,0.011443229392170906,-0.622802197933197
1772556102983563000,3.55856298828125,-0.552962064743042,-0.6014928221702576,-1.4611246585845947
1772556102993494000,3.568493896484375,0.07734659314155579,-0.7670538425445557,-2.0401642322540283
1772556103003424800,3.5784248046875,0.6420634388923645,-0.5704307556152344,-2.3866302967071533
1772556103013356000,3.58835595703125,0.9175072312355042,-0.1796390414237976,-2.5991809368133545
1772556103023287000,3.598287109375,0.7360551357269287,0.32673123478889465,-2.586247205734253
1772556103033217800,3.6082177734375,0.2233915627002716,0.7712754011154175,-2.189326286315918
1772556103043149800,3.61814990234375,-0.23884253203868866,1.1742165088653564,-1.4579315185546875
1772556103053081000,3.6280810546875,-0.3850213289260864,1.5446150302886963,-0.6002129912376404
1772556103063011800,3.63801171875,-0.26680976152420044,1.8230023384094238,0.0035032606683671474
1772556103072942800,3.64794287109375,-0.018632730469107628,1.7267123460769653,0.04764275997877121
1772556103082874000,3.6578740234375,0.17751777172088623,1.2575063705444336,-0.46592339873313904
1772556103092804900,3.667804931640625,0.30695247650146484,0.5789098739624023,-1.2168114185333252
1772556103102736000,3.67773583984375,0.3889867663383484,0.009848471730947495,-1.7873817682266235
1772556103112667000,3.6876669921875,0.3735175132751465,-0.22770176827907562,-1.8659337759017944
1772556103122599000,3.697598876953125,0.3249857425689697,-0.09950539469718933,-1.4740108251571655
1772556103132530000,3.707530029296875,0.2801053524017334,0.21009880304336548,-0.8114131093025208
1772556103142461200,3.717461181640625,0.1847849041223526,0.46563711762428284,-0.18025991320610046
1772556103152392000,3.727391845703125,0.07248818874359131,0.549344539642334,0.29025354981422424
1772556103162323000,3.737322998046875,0.0014585060998797417,0.4362282156944275,0.5586095452308655
1772556103172254000,3.74725390625,-0.009068170562386513,0.1476944088935852,0.6160664558410645
1772556103182185000,3.75718505859375,-0.009914743714034557,-0.22451677918434143,0.523348331451416
1772556103192116000,3.767115966796875,-0.02554377168416977,-0.5808192491531372,0.3909623920917511
1772556103202047000,3.777046875,-0.042026158422231674,-0.8198539614677429,0.30065226554870605
1772556103211979000,3.78697900390625,-0.05186387524008751,-0.8748645186424255,0.25825393199920654
1772556103221910000,3.796909912109375,-0.04938816279172897,-0.7882639765739441,0.2939334213733673
1772556103231840800,3.8068408203125,-0.053614865988492966,-0.7322856783866882,0.42155638337135315
1772556103241772000,3.81677197265625,-0.1192711740732193,-0.7877204418182373,0.590798020362854
1772556103251703000,3.826703125,-0.26194605231285095,-0.8998317718505859,0.730967104434967
1772556103261633800,3.8366337890625,-0.43505632877349854,-1.0075703859329224,0.8416373133659363
1772556103271565000,3.84656494140625,-0.5734896063804626,-1.0385403633117676,0.9026527404785156
1772556103281496000,3.85649609375,-0.6425334215164185,-0.9283103942871094,0.9327788949012756
1772556103291427800,3.866427734375,-0.6023803949356079,-0.6276775598526001,0.930208683013916
1772556103301358800,3.87635888671875,-0.4589819610118866,-0.18442049622535706,0.8856422901153564
1772556103311290000,3.8862900390625,-0.2501416504383087,0.22393371164798737,0.7597429156303406
1772556103321220900,3.896220947265625,-0.005254028365015984,0.3934662342071533,0.5658940672874451
1772556103331152000,3.90615185546875,0.2254132777452469,0.31338629126548767,0.3369181454181671
1772556103341083100,3.916083251953125,0.39034414291381836,0.02974117361009121,0.12169376015663147
1772556103351014000,3.926013916015625,0.5182690620422363,-0.36115360260009766,-0.06550835072994232
1772556103360945400,3.9359453125,0.6190089583396912,-0.7673032283782959,-0.23174284398555756
1772556103370877200,3.945877197265625,0.5895243287086487,-1.0961418151855469,-0.34835895895957947
1772556103380808400,3.955808349609375,0.3610244691371918,-1.209071397781372,-0.3924453854560852
1772556103390739500,3.965739501953125,-0.05421268194913864,-1.0451141595840454,-0.31753119826316833
1772556103400670200,3.975670166015625,-0.6054242253303528,-0.6100794076919556,-0.07000815868377686
1772556103410601500,3.9856015625,-1.133173942565918,0.0737636461853981,0.3681633472442627
1772556103420532500,3.995532470703125,-1.451719880104065,0.7543691992759705,0.9562243819236755
1772556103430463200,4.005463134765625,-1.4699196815490723,1.050580382347107,1.5790733098983765
1772556103440394500,4.01539453125,-1.3128175735473633,0.762660562992096,1.9646551609039307
1772556103450325500,4.025325439453125,-1.0751479864120483,0.08664455264806747,1.8554339408874512
1772556103460257300,4.03525732421875,-0.9016373157501221,-0.701995849609375,1.3201044797897339
1772556103470188300,4.045188232421875,-0.9109042882919312,-1.0594840049743652,0.6302968263626099
1772556103480119600,4.05511962890625,-0.9212446212768555,-0.6495774984359741,0.13882993161678314
1772556103490050300,4.06505029296875,-0.6868755221366882,0.2449260801076889,0.06826867908239365
1772556103499981300,4.074981201171875,-0.19620639085769653,1.1331090927124023,0.28435826301574707
1772556103509912600,4.08491259765625,0.3316725790500641,1.3421536684036255,0.44053375720977783
1772556103519843300,4.09484326171875,0.63099205493927,0.5983651280403137,0.13094006478786469
1772556103529774300,4.1047744140625,0.6024829149246216,-0.5453669428825378,-0.6220354437828064
1772556103539706400,4.114706298828125,0.3769231140613556,-1.347878336906433,-1.2134513854980469
1772556103549637400,4.124637451171875,0.18866294622421265,-1.3045966625213623,-1.3389434814453125
1772556103559568400,4.134568359375,0.07261302322149277,-0.3043211102485657,-1.100195288658142
1772556103569499400,4.14449951171875,-0.02667788416147232,0.9381386041641235,-0.7113238573074341
1772556103579430400,4.154430419921875,-0.23038142919540405,1.6403344869613647,-0.35093092918395996
1772556103589361400,4.164361328125,-0.49466606974601746,1.6359493732452393,-0.03920473903417587
1772556103599292200,4.174292236328125,-0.641944169998169,1.207435131072998,0.1296691745519638
1772556103609223400,4.184223388671875,-0.6203645467758179,0.6625938415527344,0.059449873864650726
1772556103619154400,4.194154541015625,-0.49905386567115784,0.1565467119216919,-0.1404375582933426
1772556103629086200,4.204086181640625,-0.3409225344657898,-0.27366912364959717,-0.2933267056941986
1772556103639017200,4.214017333984375,-0.22214436531066895,-0.7084064483642578,-0.2767725884914398
1772556103648948500,4.223948486328125,-0.19801239669322968,-1.1167223453521729,-0.15246634185314178
1772556103658879200,4.233879150390625,-0.22678692638874054,-1.322651982307434,-0.043370671570301056
1772556103668810200,4.243810302734375,-0.2522384822368622,-1.2771474123001099,0.011869410052895546
1772556103678741500,4.253741455078125,-0.29924842715263367,-1.0427430868148804,0.011998970061540604
1772556103688672300,4.26367236328125,-0.44156643748283386,-0.7022472620010376,-0.04749365150928497
1772556103698603300,4.273603271484375,-0.6173298358917236,-0.2919330894947052,-0.05790746212005615
1772556103708535600,4.28353564453125,-0.7249444127082825,0.09917554259300232,0.0879426896572113
1772556103718466300,4.29346630859375,-0.7393982410430908,0.4011255204677582,0.36124178767204285
1772556103728397300,4.303397216796875,-0.6736107468605042,0.6103397607803345,0.6548312902450562
1772556103738328600,4.31332861328125,-0.5818848609924316,0.6379712224006653,0.8917697668075562
1772556103748259300,4.32325927734375,-0.49060553312301636,0.4665243923664093,1.0303905010223389
1772556103758190300,4.3331904296875,-0.37819066643714905,0.1407204568386078,1.059220790863037
1772556103768121600,4.34312158203125,-0.23913423717021942,-0.16586318612098694,0.9718238115310669
1772556103778052400,4.35305224609375,-0.04908240586519241,-0.27507832646369934,0.7815636992454529
1772556103787984400,4.362984375,0.1850198358297348,-0.14059853553771973,0.5197651386260986
1772556103797915400,4.372915283203125,0.46242502331733704,0.1264239102602005,0.21528156101703644
1772556103807846400,4.382846435546875,0.7980638146400452,0.3151642680168152,-0.09849847853183746
1772556103817777400,4.39277734375,1.1453527212142944,0.2556930482387543,-0.3689045310020447
1772556103827708400,4.40270849609375,1.4363685846328735,-0.017936376854777336,-0.6053799390792847
1772556103837639400,4.412639404296875,1.6227408647537231,-0.5368233919143677,-0.7664011120796204
1772556103847570400,4.4225703125,1.6643263101577759,-1.1842868328094482,-0.8435068130493164
1772556103857501200,4.432501220703125,1.5076743364334106,-1.6563578844070435,-0.8577884435653687
1772556103867433200,4.44243310546875,1.2024846076965332,-1.7822239398956299,-0.8396158218383789
1772556103877364500,4.452364501953125,0.8631276488304138,-1.681425929069519,-0.7038160562515259
1772556103887295500,4.46229541015625,0.5043838620185852,-1.3951774835586548,-0.4182247519493103
1772556103897226200,4.472226318359375,0.14272761344909668,-1.0032531023025513,0.018820879980921745
1772556103907157500,4.482157470703125,-0.22286608815193176,-0.5696483254432678,0.5469363331794739
1772556103917088300,4.492088134765625,-0.5379765629768372,-0.07771511375904083,1.0887868404388428
1772556103927019300,4.502019287109375,-0.7864609360694885,0.4770714044570923,1.5733956098556519
1772556103936950500,4.511950439453125,-0.9116020798683167,1.0519033670425415,1.9162514209747314
1772556103946882600,4.521882568359375,-0.9267850518226624,1.5049058198928833,2.0570998191833496
1772556103956813300,4.531813232421875,-0.8709698915481567,1.6252058744430542,2.003699779510498
1772556103966744300,4.541744384765625,-0.7652314901351929,1.4270637035369873,1.7409356832504272
1772556103976675300,4.55167529296875,-0.7231981754302979,1.110573649406433,1.340923547744751
1772556103986606300,4.5616064453125,-0.7136307954788208,0.7521201372146606,0.9687919616699219
1772556103996537300,4.571537353515625,-0.6570783257484436,0.44146886467933655,0.6517348885536194
1772556104006468400,4.58146826171875,-0.5254446864128113,0.3590584099292755,0.23504741489887238
1772556104016399400,4.5913994140625,-0.3118515610694885,0.6297285556793213,-0.38144850730895996
1772556104026330400,4.601330322265625,-0.015827897936105728,0.603660523891449,-0.9260971546173096
1772556104036262400,4.611262451171875,0.06903522461652756,0.39464080333709717,-1.0278929471969604
1772556104046193400,4.621193359375,0.2505328357219696,0.17374439537525177,-0.8126011490821838
1772556104056124400,4.63112451171875,0.52204430103302,-0.09183094650506973,-0.542421817779541
1772556104066055400,4.641055419921875,0.5994333624839783,-0.47312745451927185,-0.4998588562011719
1772556104075986400,4.650986328125,0.42610448598861694,-0.6743191480636597,-0.8764671087265015
1772556104085917400,4.66091748046875,0.10563407838344574,-0.6415343284606934,-1.4915865659713745
1772556104095848400,4.670848388671875,-0.18182048201560974,-0.4639670252799988,-1.9845436811447144
1772556104105780500,4.680780517578125,-0.3459412455558777,-0.21093156933784485,-2.1673896312713623
1772556104115711500,4.69071142578125,-0.4850316643714905,0.08272461593151093,-2.0451600551605225
1772556104125642200,4.700642333984375,-0.6696728467941284,0.4166184067726135,-1.633610725402832
1772556104135573500,4.710573486328125,-0.8210868835449219,0.7340509295463562,-0.9974154829978943
1772556104145504500,4.72050439453125,-0.816063404083252,0.886569082736969,-0.32241442799568176
1772556104155435300,4.730435302734375,-0.6286340951919556,0.7990161776542664,0.19879081845283508
1772556104165366500,4.740366455078125,-0.35951822996139526,0.5448062419891357,0.4829205274581909
1772556104175297300,4.75029736328125,-0.08255431056022644,0.14222797751426697,0.5609531402587891
1772556104185229300,4.760229248046875,0.15629234910011292,-0.4274299144744873,0.5173513293266296
1772556104195160300,4.770160400390625,0.32631567120552063,-1.0788342952728271,0.3986717164516449
1772556104205091600,4.780091552734375,0.419491171836853,-1.645864725112915,0.25573745369911194
1772556104215022300,4.790022216796875,0.4368516504764557,-1.9908548593521118,0.1502518206834793
1772556104224953300,4.799953369140625,0.4057435393333435,-2.025686502456665,0.1390998363494873
1772556104234884400,4.80988427734375,0.37249451875686646,-1.7471190690994263,0.25233379006385803
1772556104244815400,4.8198154296875,0.37815001606941223,-1.2976582050323486,0.49833130836486816
1772556104254746400,4.829746337890625,0.37128087878227234,-0.867292582988739,0.8254584074020386
1772556104264678400,4.839678466796875,0.33301842212677,-0.5580713152885437,1.097486972808838
1772556104274609400,4.849609375,0.273039847612381,-0.3475170433521271,1.211466670036316
1772556104284540400,4.85954052734375,0.22183498740196228,-0.18696463108062744,1.1398189067840576
1772556104294471200,4.86947119140625,0.22961241006851196,-0.050863541662693024,0.9418367147445679
1772556104304402400,4.87940234375,0.3190852999687195,0.057078905403614044,0.6994765400886536
1772556104314333400,4.88933349609375,0.4887901842594147,0.10212787240743637,0.46541690826416016
1772556104324264200,4.89926416015625,0.668267011642456,0.07718098163604736,0.2272522747516632
1772556104334195500,4.909195556640625,0.7905173897743225,-0.026105986908078194,-0.02838047221302986
1772556104344127500,4.91912744140625,0.8638073205947876,-0.18100768327713013,-0.28026360273361206
1772556104354058200,4.929058349609375,0.8930321335792542,-0.3562183678150177,-0.5064858198165894
1772556104363989800,4.93898974609375,0.899253785610199,-0.5234403610229492,-0.6927028298377991
1772556104373920800,4.948920654296875,0.8874293565750122,-0.6801203489303589,-0.8358328342437744
1772556104383851800,4.958851806640625,0.8359068036079407,-0.813470721244812,-0.8975750207901001
1772556104393782800,4.96878271484375,0.7124918699264526,-0.8902236223220825,-0.866553544998169
1772556104403713800,4.9787138671875,0.49954578280448914,-1.0169405937194824,-0.7555713653564453
1772556104413644800,4.988644775390625,0.2532428205013275,-1.1866633892059326,-0.5850731730461121
1772556104423576800,4.998576904296875,0.05670155957341194,-1.3864541053771973,-0.392525851726532
1772556104433507600,5.008507568359375,-0.0821416825056076,-1.5328452587127686,-0.21174506843090057
1772556104443438800,5.01843896484375,-0.2405073493719101,-1.5420513153076172,-0.044055674225091934
1772556104453369900,5.028369873046875,-0.41387325525283813,-1.3549349308013916,0.05767180398106575
1772556104463300600,5.038300537109375,-0.578779399394989,-0.9062076210975647,0.07924607396125793
1772556104473232000,5.04823193359375,-0.6819833517074585,-0.1234239786863327,-0.03928050398826599
1772556104483162600,5.05816259765625,-0.6842270493507385,0.7470629811286926,-0.2758523225784302
1772556104493093600,5.06809375,-0.6154734492301941,1.264123797416687,-0.5909804105758667
1772556104503025700,5.078025634765625,-0.5422500967979431,1.2464908361434937,-1.0017915964126587
1772556104512957000,5.08795703125,-0.5984372496604919,0.8074120879173279,-1.4578092098236084
1772556104522887700,5.0978876953125,-0.7338539361953735,0.24104373157024384,-1.8560936450958252
1772556104532818700,5.107818603515625,-0.7778273224830627,-0.05459245294332504,-2.0716018676757812
1772556104542749700,5.117749755859375,-0.7047776579856873,0.09269019961357117,-2.0646908283233643
1772556104552680700,5.1276806640625,-0.5440344214439392,0.7174394130706787,-1.9458767175674438
1772556104562611700,5.13761181640625,-0.417135089635849,1.6416337490081787,-1.8565266132354736
1772556104572542700,5.147542724609375,-0.3417975902557373,2.614689588546753,-1.9126886129379272
1772556104582474800,5.157474853515625,-0.23848825693130493,3.2367637157440186,-2.083024263381958
1772556104592405800,5.16740576171875,-0.09275688976049423,3.214409589767456,-2.209705114364624
1772556104602336800,5.177336669921875,0.013607099652290344,2.5016040802001953,-2.1806488037109375
1772556104612267800,5.187267822265625,-0.001518718432635069,1.4307869672775269,-1.9794414043426514
1772556104622198800,5.19719873046875,-0.09968789666891098,0.5944135189056396,-1.5310676097869873
1772556104632129800,5.2071298828125,-0.16258510947227478,0.3248049020767212,-0.8093705773353577
1772556104642060800,5.217060791015625,-0.15610085427761078,0.47667619585990906,0.02947164699435234
1772556104651991800,5.22699169921875,-0.12887465953826904,0.8516669869422913,0.7518236041069031
1772556104661923600,5.236923583984375,-0.03071347065269947,1.07232666015625,1.214193344116211
1772556104671854800,5.246854736328125,0.13582630455493927,0.8936202526092529,1.370737075805664
1772556104681785900,5.256785888671875,0.34481972455978394,0.35310107469558716,1.26409912109375
1772556104691716600,5.266716552734375,0.5541785359382629,-0.45180875062942505,1.0326679944992065
1772556104701648000,5.27664794921875,0.7087912559509277,-1.3124699592590332,0.7910865545272827
1772556104711579000,5.286578857421875,0.7961738109588623,-1.9336837530136108,0.6143198013305664
1772556104721509600,5.296509521484375,0.8377894163131714,-2.1063873767852783,0.5770429968833923
1772556104731441700,5.306441650390625,0.805701494216919,-1.980933427810669,0.716002345085144
1772556104741373000,5.316373046875,0.6907296180725098,-1.6717878580093384,0.9578213691711426
1772556104751303700,5.3263037109375,0.5203760266304016,-1.3016729354858398,1.2033436298370361
1772556104761234700,5.336234619140625,0.3190639615058899,-0.9693636894226074,1.387154221534729
1772556104771166000,5.346166015625,0.09838099032640457,-0.7931021451950073,1.4973913431167603
1772556104781096700,5.3560966796875,-0.10543658584356308,-0.6941651701927185,1.5202093124389648
1772556104791027700,5.36602783203125,-0.21476836502552032,-0.5955292582511902,1.4902878999710083
1772556104800958700,5.375958740234375,-0.2153681069612503,-0.48542192578315735,1.402209758758545
1772556104810890800,5.385890869140625,-0.1483239382505417,-0.3331556022167206,1.2069824934005737
1772556104820821800,5.39582177734375,-0.055090922862291336,-0.20016691088676453,0.9184620976448059
1772556104830752800,5.405752685546875,0.040908318012952805,-0.1619398444890976,0.5564855933189392
1772556104840683800,5.415683837890625,0.14322376251220703,-0.2398841828107834,0.1964978724718094
1772556104850614800,5.42561474609375,0.2875160574913025,-0.4408007264137268,-0.08484252542257309
1772556104860545500,5.435545654296875,0.3379366099834442,-0.6519424915313721,-0.2566419839859009
1772556104870476800,5.445476806640625,0.3817756772041321,-0.8170081973075867,-0.36916568875312805
1772556104880407800,5.45540771484375,0.3793245255947113,-0.9550776481628418,-0.40999966859817505
1772556104890339800,5.46533984375,0.3982040286064148,-1.092752456665039,-0.37969323992729187
1772556104900270600,5.4752705078125,0.5070562362670898,-1.2630599737167358,-0.31983682513237
1772556104910201900,5.485201904296875,0.678827166557312,-1.368009328842163,-0.306380957365036
1772556104920132600,5.495132568359375,0.8080186247825623,-1.2526156902313232,-0.354154109954834
1772556104930063600,5.505063720703125,0.770517885684967,-1.0062658786773682,-0.35760194063186646
1772556104939995000,5.514994873046875,0.5394980311393738,-0.7845507860183716,-0.18856844305992126
1772556104949925600,5.524925537109375,0.13086076080799103,-0.5711119771003723,0.1620400995016098
1772556104959856600,5.534856689453125,-0.3792666792869568,-0.3389109671115875,0.6596850156784058
1772556104969788700,5.54478857421875,-0.634128749370575,0.06408201158046722,1.1127783060073853
1772556104979719700,5.5547197265625,-0.541168212890625,0.5846250653266907,1.2583775520324707
1772556104989650700,5.564650634765625,-0.2670568525791168,1.098454236984253,0.9192519187927246
1772556104999581700,5.574581787109375,-0.03676879405975342,1.4551314115524292,0.22889883816242218
1772556105009512700,5.5845126953125,0.047040294855833054,1.620911955833435,-0.5324245691299438
1772556105019443700,5.594443603515625,0.06242404133081436,1.8069050312042236,-1.1455659866333008
1772556105029374700,5.604374755859375,0.24212604761123657,2.1365959644317627,-1.470851182937622
1772556105039306800,5.614306640625,0.706243097782135,2.2833251953125,-1.5633413791656494
1772556105049237800,5.62423779296875,1.195590853691101,1.7560616731643677,-1.6686419248580933
1772556105059168800,5.634168701171875,1.4783612489700317,0.6119109392166138,-1.9109300374984741
1772556105069099800,5.644099853515625,1.4759440422058105,-0.44074881076812744,-2.185048818588257
1772556105079030800,5.65403076171875,1.322722315788269,-0.6405754089355469,-2.3868651390075684
1772556105088961800,5.6639619140625,1.1448357105255127,0.1462731659412384,-2.4436843395233154
1772556105098892800,5.673892822265625,1.0525987148284912,1.3481338024139404,-2.242560863494873
1772556105108823800,5.68382373046875,1.0746402740478516,2.2413101196289062,-1.8408156633377075
1772556105118755800,5.693755859375,1.069451093673706,2.430013418197632,-1.3939001560211182
1772556105128686600,5.7036865234375,0.9516485333442688,1.9071600437164307,-0.9846271872520447
1772556105138617900,5.713617919921875,0.6897242069244385,1.1257268190383911,-0.5286892056465149
1772556105148548900,5.723548828125,0.3972911834716797,0.590536892414093,0.05923307314515114
1772556105158479600,5.733479736328125,0.11860732734203339,0.6257593631744385,0.7559179067611694
1772556105168411000,5.743410888671875,-0.14175960421562195,1.2482964992523193,1.5276305675506592
1772556105178342000,5.753341796875,-0.33598074316978455,2.0656487941741943,2.244835138320923
1772556105188272600,5.763272705078125,-0.3812173902988434,2.4037389755249023,2.7098388671875
1772556105198204700,5.77320458984375,-0.2861047089099884,2.005617380142212,2.812135934829712
1772556105208136000,5.783135986328125,-0.14211632311344147,0.9524624347686768,2.6082603931427
1772556105218066700,5.793066650390625,-0.1416923552751541,-0.4354487657546997,2.198873281478882
1772556105227997700,5.802997802734375,-0.29611819982528687,-1.6789265871047974,1.7699733972549438
1772556105237929000,5.812928955078125,-0.49153003096580505,-2.466463565826416,1.5143400430679321
1772556105247859700,5.822859619140625,-0.6431084275245667,-2.75412654876709,1.485949158668518
1772556105257790700,5.832790771484375,-0.762544572353363,-2.631438970565796,1.5987275838851929
1772556105267721700,5.8427216796875,-0.9080379605293274,-2.2353322505950928,1.7833434343338013
1772556105277653800,5.85265380859375,-1.0476568937301636,-1.7128359079360962,1.9186615943908691
1772556105287584800,5.862584716796875,-1.1097382307052612,-1.204885482788086,1.9415078163146973
1772556105297515800,5.872515869140625,-1.0413941144943237,-0.8191083073616028,1.8464521169662476
1772556105307446800,5.88244677734375,-0.878158688545227,-0.6176496148109436,1.6374729871749878
1772556105317377800,5.892377685546875,-0.6781851649284363,-0.5398203134536743,1.3090183734893799
1772556105327308500,5.90230859375,-0.43026837706565857,-0.46682265400886536,0.8674444556236267
1772556105337239800,5.91223974609375,-0.16852490603923798,-0.4214645028114319,0.39793312549591064
1772556105347171800,5.922171875,0.08668380975723267,-0.452555388212204,0.05261750519275665
1772556105357102800,5.932102783203125,0.32540932297706604,-0.5607700347900391,-0.11666978895664215
1772556105367033600,5.94203369140625,0.5760259628295898,-0.7294102907180786,-0.24083226919174194
1772556105376964900,5.95196484375,0.7799074649810791,-0.9153795838356018,-0.40196335315704346
1772556105386896000,5.961895751953125,0.9261895418167114,-1.1309787034988403,-0.5554325580596924
1772556105396826600,5.97182666015625,1.0475189685821533,-1.39458429813385,-0.6236217021942139
1772556105406758000,5.9817578125,1.154151439666748,-1.6132361888885498,-0.5962077975273132
1772556105416689000,5.99168896484375,1.1928540468215942,-1.623235821723938,-0.48070594668388367
1772556105426620700,6.00162060546875,1.186637043952942,-1.3577237129211426,-0.30823251605033875
1772556105436552000,6.011552001953125,1.1729907989501953,-0.9264951348304749,-0.12725421786308289
1772556105446483000,6.02148291015625,1.0223720073699951,-0.5199992656707764,0.014576242305338383
1772556105456413700,6.03141357421875,0.7679293155670166,-0.2433386743068695,0.11594467610120773
1772556105466345000,6.041344970703125,0.45434659719467163,-0.1174788549542427,0.2457505613565445
1772556105476276000,6.05127587890625,0.12872053682804108,-0.03835554048418999,0.36869779229164124
1772556105486206700,6.061206787109375,-0.08455749601125717,0.18262404203414917,0.2722434401512146
1772556105496138800,6.071138671875,-0.20939184725284576,0.6974256038665771,-0.09661820530891418
1772556105506070000,6.081070068359375,-0.2171265035867691,1.3961204290390015,-0.6464580297470093
1772556105516000800,6.091000732421875,-0.11060485243797302,1.9937784671783447,-1.27717924118042
1772556105525931800,6.100931884765625,0.01746048592031002,2.248685359954834,-1.9338914155960083
1772556105535863000,6.110863037109375,0.08450795710086823,1.9956008195877075,-2.5038859844207764
1772556105545793800,6.120793701171875,0.0763716846704483,1.437415361404419,-2.8564789295196533
1772556105555724800,6.130724853515625,0.048477474600076675,0.8730401396751404,-2.923887252807617
1772556105565656000,6.140656005859375,0.08577615767717361,0.6370214223861694,-2.625345230102539
1772556105575587800,6.150587890625,0.20555368065834045,0.8454028367996216,-2.065697431564331
1772556105585518800,6.160518798828125,0.3592889904975891,1.3281856775283813,-1.6036593914031982
1772556105595449900,6.170449951171875,0.5233250856399536,1.8887922763824463,-1.5131052732467651
1772556105605380900,6.180380859375,0.6550421714782715,2.5679380893707275,-1.8195797204971313
1772556105615312000,6.190311767578125,0.7240193486213684,2.999671220779419,-2.294818162918091
1772556105625243000,6.200242919921875,0.7272008657455444,3.139441728591919,-2.660978317260742
1772556105635174000,6.210173828125,0.6451352834701538,3.0503523349761963,-2.6739342212677
1772556105645106000,6.22010595703125,0.51194167137146,2.7610394954681396,-2.171673059463501
1772556105655037000,6.230036865234375,0.456371933221817,2.2698776721954346,-1.2121613025665283
1772556105664967700,6.2399677734375,0.5514379739761353,1.6007704734802246,-0.08217542618513107
1772556105674899000,6.24989892578125,0.6677474975585938,0.9698073267936707,0.8929368853569031
1772556105684830000,6.259829833984375,0.7178738117218018,0.610630989074707,1.5412423610687256
1772556105694760700,6.2697607421875,0.6707776188850403,0.4311153292655945,1.8166674375534058
1772556105704692000,6.27969189453125,0.5661515593528748,0.31613996624946594,1.7646857500076294
1772556105714622700,6.289622802734375,0.4654260277748108,0.1611810177564621,1.5535662174224854
1772556105724554800,6.2995546875,0.4019243121147156,-0.13775105774402618,1.3115675449371338
1772556105734485800,6.30948583984375,0.31547996401786804,-0.5958611369132996,1.116307020187378
1772556105744417000,6.3194169921875,0.1668829768896103,-1.233771800994873,1.0030722618103027
1772556105754347800,6.32934765625,0.00048788078129291534,-1.869193196296692,0.9790103435516357
1772556105764278800,6.33927880859375,-0.14949797093868256,-2.1999740600585938,1.018056869506836
1772556105774209800,6.349209716796875,-0.26458224654197693,-2.107557535171509,1.1019266843795776
1772556105784140800,6.359140869140625,-0.3100101053714752,-1.6935911178588867,1.1917906999588013
1772556105794072800,6.36907275390625,-0.2840576171875,-1.212091326713562,1.2807930707931519
1772556105804003800,6.37900390625,-0.177700012922287,-0.8657604455947876,1.2683343887329102
1772556105813934800,6.388934814453125,-0.002417680574581027,-0.7233428359031677,1.0769466161727905
1772556105823865900,6.398865966796875,0.12528912723064423,-0.7806344628334045,0.7325146198272705
1772556105833796900,6.408796875,0.14491236209869385,-0.9210536479949951,0.3284536898136139
1772556105843728000,6.418727783203125,0.05272943526506424,-1.0278903245925903,0.003569616936147213
1772556105853659000,6.428658935546875,-0.12485760450363159,-1.0317023992538452,-0.17568722367286682
1772556105863590000,6.43858984375,-0.3445145785808563,-0.8964113593101501,-0.18447118997573853
1772556105873522000,6.44852197265625,-0.540859043598175,-0.640220582485199,-0.03484334424138069
1772556105883453000,6.458452880859375,-0.6175299882888794,-0.2860555350780487,0.24154528975486755
1772556105893383700,6.4683837890625,-0.5084695219993591,-0.034056052565574646,0.5151703953742981
1772556105903315000,6.47831494140625,-0.27513587474823,-0.06450659036636353,0.682725727558136
1772556105913246000,6.488245849609375,-0.024074895307421684,-0.2901735305786133,0.6730651259422302
1772556105923176700,6.4981767578125,0.11434419453144073,-0.533200204372406,0.551650881767273
1772556105933108000,6.50810791015625,0.08858982473611832,-0.6712701916694641,0.4384266138076782
1772556105943040000,6.5180400390625,-0.10188662260770798,-0.6032404899597168,0.4514201283454895
1772556105952970800,6.527970703125,-0.3906630575656891,-0.3199738562107086,0.6143509745597839
1772556105962901800,6.53790185546875,-0.7319581508636475,-0.1408696472644806,0.8715037703514099
1772556105972833000,6.5478330078125,-1.0973761081695557,-0.6158984899520874,0.9545767903327942
1772556105982763800,6.557763671875,-1.39548659324646,-0.46387332677841187,0.7414588332176208
1772556105992694800,6.56769482421875,-1.361175775527954,-0.361646831035614,0.3191145360469818
1772556106002626000,6.5776259765625,-0.9677672386169434,-0.36039113998413086,-0.13504551351070404
1772556106012556800,6.587556884765625,-0.38715338706970215,-0.327578604221344,-0.5792815685272217
1772556106022488800,6.59748876953125,0.17154349386692047,-0.2796768248081207,-1.1028510332107544
1772556106032419800,6.607419921875,0.6078212261199951,-0.13057735562324524,-1.7456214427947998
1772556106042350800,6.617350830078125,0.7963020205497742,0.4938420057296753,-2.216789722442627
1772556106052281900,6.62728173828125,0.9852666258811951,1.2739274501800537,-2.4034154415130615
1772556106062212900,6.637212890625,1.088943362236023,2.0735645294189453,-1.936660647392273
1772556106072144000,6.647143798828125,1.2430332899093628,2.8076705932617188,-1.0437331199645996
1772556106082075000,6.657074951171875,1.2813434600830078,2.9737775325775146,-0.08889886736869812
1772556106092007000,6.6670068359375,1.0043776035308838,2.6141774654388428,0.5886471271514893
1772556106101937700,6.676937744140625,0.5296910405158997,2.125359058380127,0.8208232522010803
1772556106111869000,6.686868896484375,-0.0025688486639410257,1.5901727676391602,0.7422581315040588
1772556106121800000,6.696800048828125,-0.4221228063106537,0.9675668478012085,0.5516921281814575
1772556106131730700,6.706730712890625,-0.5842664837837219,0.5162201523780823,0.35642197728157043
1772556106141662000,6.716661865234375,-0.5023584365844727,0.4165368676185608,0.14963112771511078
1772556106151592700,6.7265927734375,-0.2681373953819275,0.44501936435699463,-0.09145098924636841
1772556106161524700,6.736524658203125,-0.00048014288768172264,0.28948453068733215,-0.3673988878726959
1772556106171455700,6.746455810546875,0.15502023696899414,-0.15790867805480957,-0.6147071719169617
1772556106181387000,6.756386962890625,0.20784616470336914,-0.7860947847366333,-0.7518855333328247
1772556106191317800,6.76631787109375,0.2803421914577484,-1.2721425294876099,-0.6919700503349304
1772556106201248800,6.776248779296875,0.4599390923976898,-1.3464083671569824,-0.43580180406570435
1772556106211179800,6.7861796875,0.6492879986763,-1.031062126159668,-0.10421134531497955
1772556106221110800,6.79611083984375,0.724755048751831,-0.5635154247283936,0.24410492181777954
1772556106231041800,6.806041748046875,0.7153010964393616,-0.13504290580749512,0.5636930465698242
1772556106240973800,6.815973876953125,0.6676521301269531,0.18473559617996216,0.8382614850997925
1772556106250904800,6.82590478515625,0.5816115140914917,0.303056925535202,1.0314176082611084
1772556106260835800,6.8358359375,0.4423714578151703,0.21957579255104065,1.1022497415542603
1772556106270766800,6.845766845703125,0.28261587023735046,0.030055660754442215,1.0743157863616943
1772556106280697900,6.85569775390625,0.23558416962623596,-0.1884450614452362,0.9864994287490845
1772556106290628900,6.86562890625,0.3120728135108948,-0.376965194940567,0.9038394093513489
1772556106300560000,6.875559814453125,0.36053216457366943,-0.5498906373977661,0.858974277973175
1772556106310492000,6.885491943359375,0.3366992771625519,-0.7813741564750671,0.8645133972167969
1772556106320423000,6.8954228515625,0.26717445254325867,-1.0139166116714478,0.8918793201446533
1772556106330353700,6.905353759765625,0.18481245636940002,-1.157422661781311,0.9029335379600525
1772556106340285000,6.915284912109375,0.11274853348731995,-1.1714431047439575,0.9073141813278198
1772556106350216000,6.9252158203125,0.033993273973464966,-1.192025899887085,0.9124274253845215
1772556106360146700,6.935146728515625,-0.05665770545601845,-1.314688801765442,0.9431664943695068
1772556106370078000,6.945077880859375,-0.15072108805179596,-1.3557766675949097,0.961469829082489
1772556106380009700,6.955009765625,-0.25944119691848755,-1.2609822750091553,0.971873939037323
1772556106389940700,6.964940673828125,-0.3897467255592346,-0.9809194207191467,0.9694930911064148
1772556106399871700,6.974871826171875,-0.543142557144165,-0.5348158478736877,0.9559690356254578
1772556106409802800,6.984802734375,-0.5409851670265198,-0.369180291891098,0.7067099809646606
1772556106419733800,6.994733642578125,-0.3252418041229248,-0.5406643152236938,0.24180203676223755
1772556106429664800,7.004664794921875,-0.18898114562034607,-0.4712141454219818,-0.0800473690032959
1772556106439595800,7.014595703125,-0.051016565412282944,-0.25836047530174255,-0.27192360162734985
1772556106449527800,7.02452783203125,0.1887829750776291,-0.3691439926624298,-0.35237398743629456
1772556106459458800,7.034458740234375,0.3829115033149719,-0.8941398859024048,-0.4045570492744446
1772556106469389600,7.0443896484375,0.45041120052337646,-1.544852614402771,-0.4219333529472351
1772556106479320800,7.05432080078125,0.42687445878982544,-2.0077247619628906,-0.3003498613834381
1772556106489251800,7.064251953125,0.24370117485523224,-2.0197765827178955,0.012732927687466145
1772556106499182600,7.0741826171875,-0.20645150542259216,-1.6313021183013916,0.4656291604042053
1772556106509113900,7.08411376953125,-0.829041063785553,-1.0948727130889893,0.9781841039657593
1772556106519044600,7.094044677734375,-1.3537559509277344,-0.6330931186676025,1.4070276021957397
1772556106528976600,7.1039765625,-1.5868607759475708,-0.2549263834953308,1.6022639274597168
1772556106538907600,7.11390771484375,-1.393419861793518,0.22361816465854645,1.4577834606170654
1772556106548839000,7.1238388671875,-0.7712877988815308,1.0345901250839233,0.9118859767913818
1772556106558769700,7.133769775390625,-0.16184887290000916,2.123345375061035,0.11736413091421127
1772556106568700700,7.14370068359375,0.1821412593126297,2.7625467777252197,-0.6169450283050537
1772556106578631700,7.153631591796875,0.45157164335250854,2.7442939281463623,-1.27986741065979
1772556106588562700,7.163562744140625,0.3913397192955017,2.5451276302337646,-1.9138587713241577
1772556106598494700,7.17349462890625,0.3807257413864136,2.8510618209838867,-2.578767776489258
1772556106608425700,7.18342578125,0.65537428855896,3.3644611835479736,-3.0552825927734375
1772556106618356700,7.193356689453125,0.8284246325492859,3.2675225734710693,-3.0341615676879883
1772556106628287700,7.203287841796875,0.7893339395523071,2.422166109085083,-2.516394853591919
1772556106638218800,7.21321875,0.6165288090705872,1.055591344833374,-1.7362769842147827
1772556106648149800,7.223149658203125,0.35844820737838745,-0.26393401622772217,-1.0142782926559448
1772556106658080800,7.233080810546875,0.22326043248176575,-0.9412214159965515,-0.6703296303749084
1772556106668012800,7.2430126953125,0.3367422819137573,-0.8236849308013916,-0.7317698001861572
1772556106677943800,7.25294384765625,0.5588222146034241,-0.11642909795045853,-0.9031493663787842
1772556106687874800,7.262874755859375,0.6875844597816467,0.6699352860450745,-0.8645761609077454
1772556106697805600,7.2728056640625,0.6681104302406311,1.0732618570327759,-0.47863471508026123
1772556106707736800,7.28273681640625,0.5884004235267639,0.9290327429771423,0.1225653737783432
1772556106717667800,7.292667724609375,0.5247554779052734,0.35573485493659973,0.6451367735862732
1772556106727598600,7.3025986328125,0.5076603889465332,-0.35370513796806335,0.8475175499916077
1772556106737529900,7.31252978515625,0.48828408122062683,-0.9390136003494263,0.7244868278503418
1772556106747462000,7.3224619140625,0.406042218208313,-1.3036916255950928,0.4387752115726471
1772556106757392600,7.332392578125,0.2952549159526825,-1.3971130847930908,0.18370600044727325
1772556106767323600,7.34232373046875,0.18435636162757874,-1.2333382368087769,0.07583147287368774
1772556106777255000,7.3522548828125,0.08145277947187424,-0.9557598829269409,0.1447741836309433
1772556106787185700,7.362185546875,-0.03063380718231201,-0.7258076667785645,0.3610904812812805
1772556106797116700,7.37211669921875,-0.16823381185531616,-0.6267001628875732,0.6546934247016907
1772556106807048000,7.3820478515625,-0.31293824315071106,-0.6253206133842468,0.9642898440361023
1772556106816979700,7.391979736328125,-0.44834572076797485,-0.6679409742355347,1.2339451313018799
1772556106826910700,7.40191064453125,-0.5319676399230957,-0.6899634599685669,1.3957030773162842
1772556106836841700,7.411841796875,-0.5200878977775574,-0.637237548828125,1.3979226350784302
1772556106846772700,7.421772705078125,-0.39445093274116516,-0.4896257817745209,1.253650426864624
1772556106856703700,7.431703857421875,-0.19245465099811554,-0.2808345556259155,0.9985417127609253
1772556106866634800,7.441634765625,0.020432326942682266,-0.07956698536872864,0.7052344679832458
1772556106876565800,7.451565673828125,0.17100279033184052,0.0372656024992466,0.4565510153770447
1772556106886497800,7.461497802734375,0.22928766906261444,0.00013847462832927704,0.316996306180954
1772556106896428800,7.4714287109375,0.20114248991012573,-0.13920915126800537,0.2790816128253937
1772556106906359600,7.481359619140625,0.06712556630373001,-0.28296393156051636,0.3316252529621124
1772556106916290800,7.491290771484375,-0.0897466242313385,-0.3319246172904968,0.43219295144081116
1772556106926221800,7.501221923828125,-0.20285667479038239,-0.2682550847530365,0.561053991317749
1772556106936152600,7.511152587890625,-0.24002212285995483,-0.1614883542060852,0.6752340793609619
1772556106946083800,7.521083740234375,-0.227608323097229,-0.09855678677558899,0.7837554812431335
1772556106956015900,7.531015869140625,-0.20646435022354126,-0.11756850779056549,0.8986561298370361
1772556106965946600,7.540946533203125,-0.24617794156074524,-0.22538259625434875,1.062356948852539
1772556106975878000,7.5508779296875,-0.38934046030044556,-0.432219535112381,1.3244918584823608
1772556106985809000,7.560808837890625,-0.5307229161262512,-0.6376757621765137,1.6327519416809082
1772556106995739600,7.57073974609375,-0.5714020729064941,-0.6422841548919678,1.8486772775650024
1772556107005671000,7.5806708984375,-0.4855491518974304,-0.12413154542446136,1.860379695892334
1772556107015601700,7.5906015625,-0.2819010615348816,1.121026635169983,1.6286660432815552
1772556107025532700,7.60053271484375,-0.04528586566448212,2.669375419616699,1.233443021774292
1772556107035464700,7.610464599609375,0.05946413427591324,3.523439884185791,0.8526598215103149
1772556107045396000,7.62039599609375,0.04709988087415695,3.1758482456207275,0.5564942359924316
1772556107055326700,7.63032666015625,0.03956974297761917,2.025728702545166,0.31987085938453674
1772556107065257700,7.6402578125,0.016047906130552292,0.5963569283485413,0.21223706007003784
1772556107075188700,7.650188720703125,0.09084189683198929,-0.40279680490493774,0.11480607837438583
1772556107085119700,7.66011962890625,0.2389908879995346,-0.35862720012664795,-0.23875011503696442
1772556107095050800,7.67005078125,0.3332369029521942,0.3446103632450104,-0.878035843372345
1772556107104982800,7.679982666015625,0.24412165582180023,0.8824399709701538,-1.503452181816101
1772556107114913800,7.689913818359375,0.08794804662466049,0.9477633833885193,-1.860554814338684
1772556107124844800,7.6998447265625,-0.08016319572925568,0.7838916182518005,-1.8590631484985352
1772556107134775600,7.709775634765625,-0.24155013263225555,0.5807244777679443,-1.5520185232162476
1772556107144706800,7.719706787109375,-0.33395063877105713,0.3810145854949951,-1.0676796436309814
1772556107154637800,7.729637939453125,-0.2854870855808258,0.24210679531097412,-0.5645624995231628
1772556107164568600,7.739568603515625,-0.11310411989688873,0.23163948953151703,-0.22720737755298615
1772556107174500600,7.74950048828125,0.07825963944196701,0.3327474594116211,-0.15655702352523804
1772556107184431900,7.759431884765625,0.1764964610338211,0.5004650950431824,-0.3090040683746338
1772556107194362600,7.769362548828125,0.19063827395439148,0.6384518146514893,-0.5399450063705444
1772556107204293600,7.779293701171875,0.14391151070594788,0.550825834274292,-0.6880087852478027
1772556107214225000,7.789224853515625,0.06787216663360596,0.21137571334838867,-0.6894941329956055
1772556107224155600,7.79915576171875,-0.07068358361721039,-0.21219447255134583,-0.5687714219093323
1772556107234086700,7.809086669921875,-0.2522633969783783,-0.5681657195091248,-0.36198240518569946
1772556107244018700,7.819018798828125,-0.44683822989463806,-0.7727335095405579,-0.06533953547477722
1772556107253949700,7.82894970703125,-0.6101256608963013,-0.8311423063278198,0.29802364110946655
1772556107263880700,7.838880615234375,-0.6755467057228088,-0.8072364330291748,0.6732873320579529
1772556107273811700,7.848811767578125,-0.6176722645759583,-0.7325443625450134,0.9737258553504944
1772556107283742700,7.85874267578125,-0.5142098069190979,-0.6274360418319702,1.1500798463821411
1772556107293673700,7.868673828125,-0.41665881872177124,-0.4411690831184387,1.1821091175079346
1772556107303604700,7.878604736328125,-0.3837887644767761,-0.2661610543727875,1.0780354738235474
1772556107313536800,7.888536865234375,-0.41864264011383057,-0.1967383325099945,0.8952451348304749
1772556107323467800,7.8984677734375,-0.48574575781822205,-0.24668805301189423,0.6925215721130371
1772556107333398800,7.908398681640625,-0.5372222661972046,-0.3927137851715088,0.5241617560386658
1772556107343329800,7.918329833984375,-0.5359992980957031,-0.633739173412323,0.40882766246795654
1772556107353260800,7.9282607421875,-0.45754241943359375,-0.8384323716163635,0.4677028954029083
1772556107363191800,7.93819189453125,-0.2850683927536011,-0.6804336905479431,0.3994700610637665
1772556107373122800,7.948122802734375,-0.11840316653251648,-0.4057897925376892,0.25165611505508423
1772556107383054800,7.958054931640625,0.05855988711118698,-0.11560561507940292,-0.002934887073934078
1772556107392985900,7.96798583984375,0.16425032913684845,-0.027452195063233376,-0.2695029675960541
1772556107402916900,7.977916748046875,0.18907871842384338,-0.0700790137052536,-0.542999804019928
1772556107412847900,7.987847900390625,0.1898985505104065,-0.128304585814476,-0.8179005980491638
1772556107422779000,7.99777880859375,0.18264544010162354,-0.16683439910411835,-0.969052255153656
