time,seconds_elapsed,z,y,x
1772445490518530000,0.071530029296875,0.0009231767617166042,0.005223825573921204,0.0005010282620787621
1772445490528463000,0.081463134765625,0.0002081003040075302,0.006335785612463951,0.002806559205055237
1772445490538395100,0.09139501953125,0.00025310786440968513,-0.000010792165994644165,0.00004965439438819885
1772445490548327200,0.1013271484375,0.0010704216547310352,-0.006192972883582115,0.0015034079551696777
1772445490558259200,0.11125927734375,-0.0009743534028530121,-0.0011279070749878883,-0.0015259385108947754
1772445490568191000,0.12119091796875,0.0003570597618818283,0.005517687648534775,-0.0019459063187241554
1772445490578123000,0.131123046875,-0.002029931638389826,0.002394331619143486,-0.0017973016947507858
1772445490588056000,0.14105615234375,-0.0001354576088488102,-0.0036938628181815147,-0.0012729382142424583
1772445490597988000,0.150988037109375,0.0008027739822864532,-0.004012377001345158,-0.0014175474643707275
1772445490607920000,0.160920166015625,-0.0007387888617813587,0.0016214940696954727,0.0024039382115006447
1772445490617852200,0.17085205078125,-0.0003933771513402462,0.0008201487362384796,-0.00010635703802108765
1772445490627784200,0.1807841796875,-0.0006058835424482822,-0.0005714353173971176,-0.0013313405215740204
1772445490637716000,0.190716064453125,0.0004452662542462349,-0.0029035648331046104,-0.00304375309497118
1772445490647648000,0.20064794921875,-0.000758039765059948,0.0011838320642709732,0.0007662177085876465
1772445490657581000,0.2105810546875,-0.0005548405461013317,0.002827003598213196,-0.0007890686392784119
1772445490667513000,0.22051318359375,-0.0002881125546991825,-0.0001736283302307129,0.001531197689473629
1772445490677445000,0.230445068359375,0.000358769204467535,0.002003505825996399,0.00008456874638795853
1772445490687377200,0.240377197265625,0.00012958236038684845,-0.0013053426519036293,0.0024082567542791367
1772445490697309200,0.25030908203125,0.001837733667343855,0.0010494254529476166,0.000959496945142746
1772445490707241000,0.260240966796875,0.0021344847045838833,0.0011228807270526886,-0.0018417863175272942
1772445490717174300,0.27017431640625,0.0005770684219896793,0.0006877202540636063,-0.0012111496180295944
1772445490727106300,0.280106201171875,0.0011864909902215004,-0.0015108808875083923,-0.0002812827005982399
1772445490737038300,0.290038330078125,-0.000020187348127365112,0.0015695970505475998,-0.0007614511996507645
1772445490746970400,0.299970458984375,-0.0017440516967326403,-0.001887451857328415,0.0017467141151428223
1772445490756902400,0.30990234375,0.0010815621353685856,-0.000028565526008605957,-0.003212357871234417
1772445490766834400,0.31983447265625,0.0014247060753405094,0.0005472432821989059,0.0017827153205871582
1772445490776767500,0.329767578125,-0.0014387243427336216,-0.0008136313408613205,-0.00148711446672678
1772445490786699300,0.33969921875,-0.000301288440823555,-0.0012842128053307533,0.0015249205753207207
1772445490796631300,0.34963134765625,0.0009967363439500332,0.002038879320025444,-0.0006471527740359306
1772445490806563300,0.359563232421875,0.0017410516738891602,0.0005990713834762573,0.0005577793344855309
1772445490816495400,0.369495361328125,-0.00032103434205055237,-0.0005905628204345703,-0.0007234672084450722
1772445490826427400,0.379427490234375,0.000433504581451416,0.0009420290589332581,0.0005506081506609917
1772445490836359400,0.389359375,-0.0007691793143749237,-0.0013906341046094894,0.0020182766020298004
1772445490846292500,0.39929248046875,0.0017994488589465618,-0.00028124265372753143,0.00018262583762407303
1772445490856224300,0.409224365234375,0.00011499971151351929,-0.001585925929248333,0.0004462786018848419
1772445490866156300,0.41915625,0.0022729593329131603,-0.0005867071449756622,0.0021642837673425674
1772445490876088300,0.42908837890625,-0.002670933259651065,0.0007123816758394241,-0.000016046687960624695
1772445490886020400,0.439020263671875,-0.0005233553238213062,-0.0010928455740213394,-0.0013228347525000572
1772445490895952400,0.448952392578125,0.0016623008996248245,-0.0013700807467103004,-0.000636804848909378
1772445490905885400,0.458885498046875,-0.0019314284436404705,0.0004330873489379883,-0.0001091640442609787
1772445490915817500,0.4688173828125,0.001706982497125864,-0.0012100832536816597,0.0002482328563928604
1772445490925749200,0.478749267578125,0.0024282210506498814,0.0012005399912595749,0.00031099002808332443
1772445490935681300,0.488681396484375,-0.0007649087347090244,0.0013930853456258774,-0.0005689188838005066
1772445490945613300,0.49861328125,-0.001225784420967102,0.00033923983573913574,-0.0004954813048243523
1772445490955545300,0.50854541015625,-0.0012870370410382748,0.0013991780579090118,-0.0008289087563753128
1772445490965478400,0.518478515625,0.00038628000766038895,-0.0002806279808282852,0.0009034397080540657
1772445490975410400,0.528410400390625,0.0004366138018667698,-0.0006042011082172394,-0.00048406701534986496
1772445490985342500,0.538342529296875,0.0013617896474897861,-0.0015669576823711395,-0.0019732192158699036
1772445490995274200,0.548274169921875,0.0007713665254414082,0.0020924918353557587,-0.0005614776164293289
1772445491005206300,0.558206298828125,-0.0004499107599258423,-0.00022605620324611664,-0.00036812666803598404
1772445491015138300,0.56813818359375,0.0027935532853007317,0.0013324245810508728,-0.0008807843551039696
1772445491025070300,0.5780703125,0.0027395994402468204,0.0006950031965970993,0.0003580339252948761
1772445491035003400,0.58800341796875,-0.0009470144286751747,0.0012998059391975403,-0.00016101635992527008
1772445491044935400,0.597935302734375,0.0011969110928475857,0.0010767150670289993,0.0011969609186053276
1772445491054867500,0.607867431640625,-0.0008004596456885338,-0.0003600604832172394,0.00030347052961587906
1772445491064799200,0.61779931640625,-0.0018995399586856365,-0.0017173569649457932,0.00010475795716047287
1772445491074731300,0.627731201171875,0.001421155408024788,0.00019239634275436401,-0.001802598126232624
1772445491084663300,0.637663330078125,0.000561978667974472,0.0009399037808179855,-0.0015376126393675804
1772445491094596400,0.647596435546875,0.0018014139495790005,-0.0005631856620311737,0.0009108977392315865
1772445491104528400,0.6575283203125,-0.00002514803782105446,0.0007331464439630508,-0.0011892905458807945
1772445491114460400,0.66746044921875,0.000122124794870615,-0.000783790834248066,-0.0008247038349509239
1772445491124392400,0.677392333984375,0.0011223210021853447,0.0013252925127744675,0.00031544826924800873
1772445491134324200,0.68732421875,0.0009955544956028461,0.00000969134271144867,-0.002852381207048893
1772445491144256300,0.69725634765625,0.0011978419497609138,-0.0005112513899803162,0.0021193446591496468
1772445491154188300,0.707188232421875,0.0006233979947865009,0.002139126881957054,0.0012929663062095642
1772445491164121300,0.717121337890625,-0.0020742719061672688,-0.0007203835994005203,-0.0006227949634194374
1772445491174053400,0.727053466796875,-0.0008359020575881004,-0.0009353002533316612,-0.0006116097792983055
1772445491183985400,0.7369853515625,0.0003488394431769848,-0.000040881335735321045,0.0012783072888851166
1772445491193917200,0.746917236328125,0.002127031795680523,-0.0005346313118934631,0.0009520705789327621
1772445491203849200,0.75684912109375,-0.0009799497202038765,-0.0010071732103824615,-0.0007788399234414101
1772445491213781200,0.76678125,-0.0017709084786474705,-0.0013448623940348625,-0.001463271677494049
1772445491223714300,0.77671435546875,-0.000975342933088541,0.0008330997079610825,0.0016696266829967499
1772445491233646300,0.786646240234375,-0.0021130454260855913,-0.0010838434100151062,0.0021540550515055656
1772445491243578400,0.796578369140625,0.0018604886718094349,-0.0007206955924630165,0.001287274993956089
1772445491253510400,0.806510498046875,0.001993113663047552,-0.0007435986772179604,0.00040283892303705215
1772445491263442200,0.816442138671875,-0.00004404410719871521,-0.0014683110639452934,-0.0024430938065052032
1772445491273374200,0.826374267578125,-0.0006437879055738449,-0.0006970595568418503,0.001030467450618744
1772445491283307300,0.836307373046875,-0.0015821470879018307,-0.0016481578350067139,-0.0017682584002614021
1772445491293239300,0.8462392578125,-0.0008484465070068836,0.000748688355088234,-0.00006703194230794907
1772445491303171300,0.85617138671875,-0.0018896888941526413,-0.0016695614904165268,-0.0023198341950774193
1772445491313103400,0.866103271484375,0.0005031614564359188,-0.0003694053739309311,-0.00044789817184209824
1772445491323035400,0.876035400390625,0.0004912554286420345,-0.0002274084836244583,-0.0001821676269173622
1772445491332967200,0.88596728515625,-0.0016110436990857124,-0.00041010044515132904,-0.0007608728483319283
1772445491342899200,0.895899169921875,0.0024646325036883354,-0.0022589806467294693,-0.00017085764557123184
1772445491352832300,0.905832275390625,0.00010959943756461143,-0.0007849214598536491,-0.0002233218401670456
1772445491362764300,0.915764404296875,-0.0007437020540237427,0.0010537337511777878,0.0010635536164045334
1772445491372696300,0.9256962890625,0.0014182524755597115,0.0010284334421157837,-0.0025642048567533493
1772445491382628400,0.93562841796875,-0.00027408963069319725,-0.0005486998707056046,0.0007602330297231674
1772445491392560400,0.945560302734375,0.0007677390240132809,-0.00184672512114048,-0.00093806441873312
1772445491402492200,0.9554921875,-0.0006679398939013481,0.0012186188250780106,-0.001336676999926567
1772445491412424400,0.965424560546875,-0.001005362719297409,-0.0007891375571489334,0.0032319752499461174
1772445491422357200,0.975357177734375,-0.003017175244167447,-0.002446752041578293,-0.001363491639494896
1772445491432289300,0.985289306640625,0.0020830444991588593,0.0018374752253293991,0.0014517353847622871
1772445491442221300,0.99522119140625,0.0007144594565033913,-0.0008757514879107475,-0.00004890095442533493
1772445491452153300,1.0051533203125,-0.0002687796950340271,-0.000057095661759376526,-0.001028677448630333
1772445491462085400,1.01508544921875,-0.0014645303599536419,0.00100657157599926,-0.00034179259091615677
1772445491472017400,1.025017333984375,0.0006153983995318413,0.0005487725138664246,0.0006486373022198677
1772445491481950200,1.0349501953125,0.0008500362746417522,0.0009198673069477081,-0.0007493030279874802
1772445491491882200,1.04488232421875,0.000370134599506855,-0.0009081270545721054,0.001695479266345501
1772445491501814300,1.054814208984375,0.00037279166281223297,0.0011099353432655334,-0.0018104221671819687
1772445491511746300,1.064746337890625,0.0004465612582862377,0.00017117150127887726,-0.0020256051793694496
1772445491521678300,1.07467822265625,0.0009889877401292324,-0.0008171796798706055,-0.0035992739722132683
1772445491531610400,1.0846103515625,-0.000792134553194046,-0.0007199738174676895,0.0015669921413064003
1772445491541542400,1.09454248046875,-0.00042297132313251495,-0.0007860735058784485,-0.001418108120560646
1772445491551475200,1.10447509765625,0.002252706792205572,-0.0004409272223711014,0.002366510219871998
1772445491561407200,1.1144072265625,-0.000924455001950264,-0.0018410570919513702,-0.002738088369369507
1772445491571339300,1.12433935546875,0.0010864976793527603,0.001226639375090599,0.00001641828566789627
1772445491581271300,1.134271240234375,0.0014938502572476864,0.001303393393754959,0.0006584171205759048
1772445491591203300,1.144203369140625,-0.000789277721196413,0.0009864773601293564,0.0030272984877228737
1772445491601135600,1.154135498046875,0.0010435008443892002,-0.00013871118426322937,-0.00009157508611679077
1772445491611067400,1.1640673828125,0.0008903690613806248,-0.001626618206501007,0.0011662356555461884
1772445491621000200,1.174000244140625,0.002018583007156849,-0.0009631570428609848,-0.00019479263573884964
1772445491630932200,1.18393212890625,0.002313661389052868,-0.0001719314604997635,0.0025133751332759857
1772445491640864300,1.1938642578125,-0.0014913608320057392,-0.0027761077508330345,0.001007644459605217
1772445491650796300,1.20379638671875,-0.00038268696516752243,-0.0011358670890331268,-0.0013348720967769623
1772445491660728600,1.213728515625,-0.0011664843186736107,-0.00043209269642829895,-0.000525464303791523
1772445491670660600,1.22366064453125,-0.00013397680595517159,-0.00004353746771812439,-0.00004982389509677887
1772445491680593400,1.233593505859375,-0.002014803234487772,-0.0041255466639995575,0.00006797816604375839
1772445491690525200,1.243525146484375,-0.0000517871230840683,0.0006665457040071487,-0.0024207457900047302
1772445491700457200,1.253457275390625,-0.0006572837010025978,0.0011722669005393982,-0.0007684892043471336
1772445491710389200,1.26338916015625,-0.0009678080677986145,-0.0003662407398223877,-0.0004627583548426628
1772445491720321500,1.273321533203125,0.0018214513547718525,-0.0003853216767311096,0.0005521774291992188
1772445491730253800,1.28325390625,-0.0010608877055346966,0.0016264300793409348,-0.0010656928643584251
1772445491740185900,1.293185791015625,0.000904950313270092,-0.001936136744916439,0.00039258506149053574
1772445491750118700,1.30311865234375,-0.0004918775521218777,-0.0014868611469864845,-0.0006369929760694504
1772445491760050400,1.313050537109375,-0.00043512042611837387,0.0000836830586194992,0.001223006285727024
1772445491769982500,1.322982421875,0.00005143927410244942,-0.001137375831604004,-0.0002491893246769905
1772445491779914500,1.33291455078125,0.00276756938546896,-0.0010167909786105156,0.0011897338554263115
1772445491789846800,1.3428466796875,0.0009377114474773407,-0.0014250539243221283,-0.00035836175084114075
1772445491799778800,1.35277880859375,0.00023468118160963058,-0.0020691240206360817,0.001149679534137249
1772445491809711600,1.362711669921875,-0.001143504399806261,-0.00039852410554885864,-0.0026410631835460663
1772445491819643600,1.3726435546875,-0.0012614154256880283,0.0007116813212633133,0.00018566753715276718
1772445491829575400,1.382575439453125,0.00012396089732646942,0.0007436387240886688,-0.0003597475588321686
1772445491839507500,1.392507568359375,-0.0008126255124807358,-0.000218905508518219,-0.0009276056662201881
1772445491849439700,1.402439697265625,0.0012891413643956184,0.00043090619146823883,-0.0007859254255890846
1772445491859371800,1.412371826171875,0.0005449582822620869,-0.0023155715316534042,-0.0011187465861439705
1772445491869303800,1.4223037109375,-0.0005695745348930359,-0.0012646885588765144,-0.0006550904363393784
1772445491879236600,1.432236572265625,-0.0009906631894409657,0.0006055552512407303,-0.0003410112112760544
1772445491889168600,1.442168701171875,0.00018858490511775017,-0.0010091187432408333,0.00109895970672369
1772445491899100400,1.452100341796875,-0.000054146163165569305,-0.0007000267505645752,0.0003159269690513611
1772445491909032700,1.46203271484375,-0.0000754515640437603,-0.0016374588012695312,0.0018589626997709274
1772445491918964700,1.47196484375,-0.0017774004954844713,0.0012974366545677185,0.00035626254975795746
1772445491928896800,1.481896728515625,0.00015232618898153305,0.00018476694822311401,-0.0014999601989984512
1772445491938828800,1.491828857421875,0.00025570159777998924,0.0007327757775783539,0.0020273923873901367
1772445491948761600,1.50176171875,-0.0008820006623864174,0.0009543504565954208,0.0032151630148291588
1772445491958693600,1.511693603515625,0.0002514147199690342,0.0002255123108625412,-0.0016164621338248253
1772445491968625700,1.521625732421875,0.00017950916662812233,-0.0007737074047327042,-0.00011603720486164093
1772445491978557700,1.5315576171875,0.00124384555965662,0.0003475695848464966,0.0010452233254909515
1772445491988489700,1.54148974609375,-0.001903211697936058,0.0007478427141904831,-0.0016853157430887222
1772445491998421800,1.551421875,0.0016581770032644272,-0.0019095856696367264,0.0002707419916987419
1772445492008353800,1.561353759765625,0.0002866489812731743,0.0005274731665849686,0.0008877962827682495
1772445492018286600,1.57128662109375,-0.0002513602375984192,0.0014074388891458511,-0.00022448785603046417
1772445492028218600,1.581218505859375,0.00212018471211195,-0.0028871744871139526,-0.0012649847194552422
1772445492038150700,1.591150634765625,-0.0005090259946882725,0.0005965586751699448,0.0007553501054644585
1772445492048082700,1.601082763671875,0.0001820642501115799,-0.0016226526349782944,-0.0016659963876008987
1772445492058014700,1.6110146484375,0.0008778870105743408,0.0002614930272102356,0.0007536802440881729
1772445492067946800,1.62094677734375,0.00105312280356884,0.0004183538258075714,-0.0017060153186321259
1772445492077879600,1.630879638671875,-0.0012522302567958832,-0.00022984296083450317,-0.0023220116272568703
1772445492087811600,1.6408115234375,-0.0036807667929679155,-0.0018335981294512749,-0.0004032040014863014
1772445492097744000,1.650743896484375,0.0022987425327301025,-0.00037107616662979126,-0.0025767507031559944
1772445492107675600,1.660675537109375,-0.00008105859160423279,-0.0025569982826709747,-0.000012658536434173584
1772445492117607700,1.670607666015625,-0.0004609762690961361,-0.001705775037407875,0.0010238764807581902
1772445492127539700,1.680539794921875,0.0012975092977285385,0.0020681899040937424,-0.0006214240565896034
1772445492137471700,1.6904716796875,-0.00292970216833055,-0.00002693571150302887,-0.001314336434006691
1772445492147404500,1.700404541015625,-0.0016447268426418304,0.0006777364760637283,0.001633516512811184
1772445492157336800,1.7103369140625,0.0017117755487561226,-0.0010685399174690247,0.0011673923581838608
1772445492167268900,1.720268798828125,-0.001643541269004345,-0.0009308550506830215,0.0020544910803437233
1772445492177200600,1.73020068359375,0.0017923125997185707,0.001094140112400055,-0.00013675354421138763
1772445492187132700,1.740132568359375,0.0017198743298649788,-0.0018451903015375137,-0.0001170458272099495
1772445492197064700,1.750064697265625,-0.0014320737682282925,-0.0006961710751056671,-0.0018522702157497406
1772445492206996700,1.759996826171875,-0.0014190240763127804,0.0009531248360872269,-0.0013513294979929924
1772445492216929800,1.7699296875,0.0005456856451928616,-0.00031384266912937164,-0.0001020403578877449
1772445492226861800,1.77986181640625,0.0013318508863449097,-0.0006685741245746613,0.0004529627040028572
1772445492236793900,1.7897939453125,0.00009081186726689339,-0.0014396877959370613,0.00042561255395412445
1772445492246725600,1.7997255859375,0.0003025331534445286,0.0007819216698408127,-0.0008034370839595795
1772445492256657700,1.80965771484375,-0.0002963859587907791,0.00043874606490135193,0.0008034007623791695
1772445492266589700,1.819589599609375,-0.001119302585721016,-0.0015192097052931786,0.001912606880068779
1772445492276521700,1.829521728515625,-0.0003063916228711605,-0.002286650240421295,0.0002842806279659271
1772445492286454800,1.839454833984375,-0.00032103899866342545,0.0007810443639755249,-0.00027338508516550064
1772445492296386800,1.84938671875,0.0004734317772090435,-0.00019380450248718262,-0.0010783737525343895
1772445492306318800,1.85931884765625,-0.0008331146091222763,0.0018421821296215057,0.00024361908435821533
1772445492316250600,1.869250732421875,-0.001346515491604805,0.0009696707129478455,0.00012028776109218597
1772445492326182700,1.8791826171875,-0.0004045553505420685,-0.0008647153154015541,-0.000661349855363369
1772445492336114700,1.88911474609375,-0.0005757110193371773,0.00020024552941322327,0.00021422840654850006
1772445492346047700,1.8990478515625,-0.00004627462476491928,-0.002415246330201626,-0.0005815243348479271
1772445492355979800,1.908979736328125,0.0019251606427133083,-0.0007747393101453781,0.00006104726344347
1772445492365911800,1.918911865234375,-0.0012354790233075619,0.00024924613535404205,0.00036517996340990067
1772445492375843600,1.928843505859375,0.0023046485148370266,0.0022413041442632675,-0.0009074350818991661
1772445492385775600,1.938775634765625,0.0017917235381901264,-0.00023410283029079437,-0.000733531080186367
1772445492395707600,1.948707763671875,0.00038930773735046387,0.0013585370033979416,-0.00026152655482292175
1772445492405639700,1.9586396484375,-0.0012296279892325401,-0.0019592279568314552,0.00019893422722816467
1772445492415572700,1.96857275390625,0.0006788568571209908,-0.0016033267602324486,0.0008928757160902023
1772445492425504800,1.9785048828125,0.0009963056072592735,0.001119755208492279,-0.0028741657733917236
1772445492435436800,1.988436767578125,-0.0018263445235788822,-0.00027220509946346283,0.000568079762160778
1772445492445368600,1.99836865234375,0.0008384143002331257,-0.002595546655356884,0.00020588934421539307
1772445492455300600,2.008300537109375,0.0017736423760652542,-0.0005354396998882294,-0.0006062164902687073
1772445492465232600,2.018232666015625,-0.000045030377805233,-0.0004784483462572098,0.0007876818999648094
1772445492475164700,2.02816455078125,0.00244183000177145,0.0004899110645055771,0.00036921538412570953
1772445492485097700,2.03809765625,-0.0018663657829165459,-0.0017575295642018318,0.000009688548743724823
1772445492495029800,2.04802978515625,-0.00024239392951130867,0.002223283052444458,0.0015522884204983711
1772445492504961800,2.0579619140625,0.00026706885546445847,0.00007038377225399017,-0.0016413750126957893
1772445492514893600,2.0678935546875,0.0015185903757810593,-0.00010922178626060486,0.0015377886593341827
1772445492524825600,2.07782568359375,0.0025513642467558384,-0.0018930081278085709,-0.0013994118198752403
1772445492534757600,2.087757568359375,-0.0003920048475265503,-0.0009293956682085991,-0.00043396372348070145
1772445492544689700,2.097689697265625,0.0002250494435429573,0.0023209918290376663,-0.0015607476234436035
1772445492554622700,2.107622802734375,0.0018039490096271038,-0.0012230677530169487,0.0010554306209087372
1772445492564554800,2.1175546875,0.001267855055630207,0.0002912059426307678,0.0011736750602722168
1772445492574486800,2.12748681640625,0.00022854655981063843,-0.00035361386835575104,-0.002085696905851364
1772445492584418600,2.13741845703125,0.00047089438885450363,0.0009462758898735046,-0.0001375945284962654
1772445492594350600,2.1473505859375,-0.0020265053026378155,0.0022908542305231094,0.0011196155101060867
1772445492604282600,2.15728271484375,0.0016521192155778408,-0.0006809663027524948,0.0016732867807149887
1772445492614214700,2.167214599609375,-0.00019333278760313988,0.0009315162897109985,-0.002089405432343483
1772445492624147700,2.177147705078125,-0.001767260953783989,-0.0010424191132187843,-0.00040282588452100754
1772445492634079700,2.187079833984375,-0.0018273380119353533,0.002339661121368408,-0.0007006442174315453
1772445492644011800,2.19701171875,0.0005964050069451332,-0.0007506720721721649,-0.0011555114760994911
1772445492653943600,2.206943603515625,0.0012766816653311253,0.00015819445252418518,-0.00011085439473390579
1772445492663875600,2.21687548828125,0.0019962675869464874,-0.00030253268778324127,0.001296626403927803
1772445492673807600,2.2268076171875,0.00046398770064115524,0.0016603972762823105,0.0011764345690608025
1772445492683739600,2.23673974609375,0.00016358308494091034,-0.0012850584462285042,0.0013157175853848457
1772445492693672700,2.246672607421875,0.0010027545504271984,0.0012361090630292892,0.0008674105629324913
1772445492703604700,2.256604736328125,0.003684557508677244,-0.0000667087733745575,0.0018788790330290794
1772445492713535500,2.266535400390625,0.0001111738383769989,-0.0001203436404466629,-0.0017650574445724487
1772445492723467500,2.276467529296875,-0.0004467582330107689,-0.00041515566408634186,-0.0002883346751332283
1772445492733399600,2.286399658203125,0.000502199400216341,-0.0004838723689317703,0.0016984501853585243
1772445492743331600,2.29633154296875,-0.0017194095999002457,-0.0003083702176809311,0.0009008338674902916
1772445492753263400,2.306263427734375,-0.0006812615320086479,0.00225912407040596,0.0023750895634293556
1772445492763196400,2.316196533203125,-0.0003235992044210434,-0.0029492201283574104,-0.0006454680114984512
1772445492773128400,2.32612841796875,-0.0007191435433924198,0.00021960772573947906,0.00028349459171295166
1772445492783060500,2.336060546875,0.00019352184608578682,-0.0029000192880630493,-0.002163950353860855
1772445492792992500,2.345992431640625,-0.0018269226420670748,0.0012897681444883347,-0.0013666916638612747
1772445492802924500,2.355924560546875,0.002400845754891634,0.00035393238067626953,0.0014290949329733849
1772445492812856600,2.365856689453125,-0.0027724553365260363,-0.000569486990571022,0.0020478134974837303
1772445492822788400,2.375788330078125,0.0007152203470468521,-0.0006608329713344574,0.00004937686026096344
1772445492832721400,2.385721435546875,-0.000018649734556674957,0.0016521457582712173,-0.0023256540298461914
1772445492842653400,2.3956533203125,0.0004532625898718834,-0.0008528232574462891,0.001065082848072052
1772445492852585500,2.40558544921875,0.0009240699000656605,-0.0005070846527814865,-0.0007151104509830475
1772445492862517500,2.415517578125,-0.0026437670458108187,0.0006532538682222366,-0.0020584091544151306
1772445492872449500,2.425449462890625,0.001494984608143568,-0.00004543177783489227,0.001970711164176464
1772445492882381300,2.43538134765625,-0.00003846362233161926,-0.0008542342111468315,0.0014809556305408478
1772445492892313600,2.445313720703125,-0.0008569397032260895,-0.0006152372807264328,-0.0015548793599009514
1772445492902246400,2.455246337890625,0.0007257768884301186,0.001230333000421524,-0.001256871037185192
1772445492912178400,2.465178466796875,0.00009128078818321228,-0.001835167407989502,0.0009972630068659782
1772445492922110500,2.4751103515625,-0.0008019437082111835,-0.0006351470947265625,0.0007394691929221153
1772445492932042500,2.48504248046875,0.0003315946087241173,0.0004332698881626129,-0.001554393209517002
1772445492941974500,2.494974609375,0.00224187970161438,0.000017816200852394104,0.0005082255229353905
1772445492951906600,2.504906494140625,-0.0007436205632984638,-0.001221238635480404,0.0005538882687687874
1772445492961838600,2.514838623046875,-0.00040167057886719704,-0.0011522620916366577,-0.0009169755503535271
1772445492971771400,2.524771484375,-0.0010854890570044518,-0.0014481907710433006,0.0008012447506189346
1772445492981703400,2.534703369140625,0.001643984578549862,-0.00036375224590301514,-0.00040729716420173645
1772445492991635500,2.544635498046875,-0.0012843790464103222,0.00014087185263633728,0.0001463005319237709
1772445493001567500,2.5545673828125,-0.0004105959087610245,-0.0017619570717215538,0.002536487765610218
1772445493011499500,2.56449951171875,-0.00021875742822885513,-0.00005348585546016693,-0.0016697868704795837
1772445493021431600,2.574431640625,0.0006177416071295738,-0.0015323394909501076,0.0005451636388897896
1772445493031363600,2.584363525390625,0.00004973122850060463,0.0002664811909198761,0.0011445702984929085
1772445493041296400,2.59429638671875,0.0011163274757564068,0.001126682385802269,-0.0011295024305582047
1772445493051228400,2.604228515625,-0.00030354736372828484,0.002142680808901787,0.001597357913851738
1772445493061160400,2.614160400390625,-0.0009381789714097977,-0.00021474994719028473,-0.003036542795598507
1772445493071092500,2.624092529296875,-0.0014847512356936932,-0.00011660531163215637,0.0010003261268138885
1772445493081024800,2.634024658203125,0.00029131071642041206,0.0012269597500562668,0.0001342669129371643
1772445493090956500,2.64395654296875,0.0005998681299388409,-0.0005196724086999893,-0.0009004911407828331
1772445493100888600,2.653888671875,0.0013609998859465122,-0.0010259393602609634,-0.0007047485560178757
1772445493110821400,2.6638212890625,-0.00153794651851058,0.0015772264450788498,-0.00003877561539411545
1772445493120753400,2.67375341796875,-0.00017121247947216034,-0.0014206944033503532,0.000649651512503624
1772445493130685400,2.683685546875,0.0004502953961491585,0.00012939982116222382,0.00196212250739336
1772445493140617700,2.69361767578125,0.000613547395914793,0.00030010752379894257,0.0009053796529769897
1772445493150549800,2.7035498046875,0.0012318636290729046,-0.0004988070577383041,0.002179986797273159
1772445493160481500,2.7134814453125,-0.0006944006308913231,-0.0015728594735264778,0.00008967239409685135
1772445493170413600,2.72341357421875,0.001155296340584755,0.0006044935435056686,-0.00003930274397134781
1772445493180346400,2.733346435546875,-0.0007198355160653591,-0.0005880706012248993,0.0006331456825137138
1772445493190278700,2.743278564453125,-0.0006542126648128033,-0.001470239832997322,0.00009997934103012085
1772445493200210700,2.753210693359375,0.0009833648800849915,-0.00022974051535129547,0.0011649774387478828
1772445493210142700,2.763142822265625,-0.0006931675598025322,0.00009337067604064941,-0.00031455326825380325
1772445493220074800,2.77307470703125,0.0003790212795138359,-0.0037860553711652756,0.001270560547709465
1772445493230006500,2.783006591796875,0.001318016555160284,-0.00006758607923984528,0.0024389708414673805
1772445493239938600,2.7929384765625,-0.0017358304467052221,0.000018168240785598755,-0.0008822567760944366
1772445493249871600,2.80287158203125,0.0005517848767340183,-0.0008292095735669136,0.0018207244575023651
1772445493259803600,2.8128037109375,-0.001210961490869522,-0.0003759395331144333,0.00022442638874053955
1772445493269735700,2.822735595703125,0.00016499916091561317,0.0025969818234443665,0.0006911512464284897
1772445493279667700,2.832667724609375,0.0013948469422757626,0.002309892326593399,0.00008581485599279404
1772445493289599700,2.842599853515625,-0.001615720335394144,0.00015093199908733368,0.00033539533615112305
1772445493299531500,2.852531494140625,-0.000832750927656889,-0.001649363897740841,-0.002618582919239998
1772445493309463600,2.862463623046875,-0.00039987266063690186,-0.0008808886632323265,-0.0008945120498538017
1772445493319396600,2.872396728515625,-0.000036617275327444077,0.001028330996632576,0.0013795606791973114
1772445493329328600,2.88232861328125,-0.0007036314345896244,-0.0013277241960167885,-0.0011536935344338417
1772445493339260700,2.8922607421875,-0.0018498559948056936,0.000432625412940979,-0.000240229070186615
1772445493349192700,2.902192626953125,0.00032137101516127586,0.0005390476435422897,0.0007813163101673126
1772445493359124700,2.912124755859375,0.0000417390838265419,0.0009819306433200836,0.0011765295639634132
1772445493369056500,2.922056396484375,-0.0008849333971738815,0.0008435938507318497,-0.0014180252328515053
1772445493378988500,2.931988525390625,0.0009369351901113987,0.0009322762489318848,-0.0003096172586083412
1772445493388921600,2.941921630859375,-0.0026387323159724474,0.0013778544962406158,0.001346789300441742
1772445493398853600,2.951853515625,0.00009154062718153,0.0010705254971981049,-0.0015549911186099052
1772445493408785700,2.96178564453125,-0.0005905753932893276,-0.000333346426486969,-0.00006813090294599533
1772445493418717700,2.9717177734375,-0.0007232008501887321,-0.002320065163075924,0.0006466619670391083
1772445493428649700,2.981649658203125,-0.0005098129622638226,-0.0008287951350212097,-0.0005873264744877815
1772445493438581500,2.99158154296875,0.0008582528680562973,-0.001539858989417553,0.00008592009544372559
1772445493448513500,3.001513427734375,0.0005732676945626736,-0.0026229629293084145,0.0013200575485825539
1772445493458446600,3.011446533203125,0.0010387883521616459,0.0003781542181968689,0.0014662649482488632
1772445493468378600,3.021378662109375,-0.00036962609738111496,-0.0003511793911457062,0.0014319485053420067
1772445493478310700,3.031310546875,-0.0005035828799009323,-0.0013946052640676498,-0.00008498784154653549
1772445493488242700,3.04124267578125,0.002207630779594183,-0.0003342442214488983,-0.0008757449686527252
1772445493498174700,3.0511748046875,0.000028099864721298218,0.0007235649973154068,-0.00001820642501115799
1772445493508106500,3.0611064453125,-0.000006201211363077164,0.0015409067273139954,-0.0010204259306192398
1772445493518038500,3.07103857421875,-0.001404893584549427,0.0006087999790906906,0.002009985037147999
1772445493527971600,3.0809716796875,-0.0009228754788637161,-0.00041635148227214813,-0.0006383368745446205
1772445493537903600,3.090903564453125,-0.00047413306310772896,-0.0007572360336780548,0.0011182837188243866
1772445493547835600,3.100835693359375,-0.00051925890147686,-0.0015592342242598534,-0.0007302844896912575
1772445493557767700,3.110767578125,0.001550283282995224,0.0014858245849609375,-0.00028899870812892914
1772445493567699700,3.12069970703125,-0.0008739028126001358,0.001145014539361,0.0024983910843729973
1772445493577631500,3.130631591796875,0.00012371735647320747,0.0009681805968284607,0.0009851828217506409
1772445493587563500,3.1405634765625,-0.001848495565354824,-0.000376090407371521,-0.0010238923132419586
1772445493597496600,3.15049658203125,-0.0011877655051648617,-0.0014690514653921127,0.0008051665499806404
1772445493607428600,3.1604287109375,-0.00004171440377831459,0.002029556781053543,-0.002351064234972
1772445493617360600,3.170360595703125,-0.0005791406147181988,0.0007302016019821167,0.00005829799920320511
1772445493627292700,3.180292724609375,0.0004895525053143501,0.0007636453956365585,-0.0006955703720450401
1772445493637224700,3.190224609375,-0.0010289819911122322,0.0014190487563610077,-0.00126548670232296
1772445493647156500,3.200156494140625,0.00036971550434827805,0.00026473402976989746,0.0021548736840486526
1772445493657088500,3.210088623046875,-0.0005293674767017365,-0.0005808193236589432,-0.001670224592089653
1772445493667021600,3.220021484375,-0.0017277286387979984,-0.0021220166236162186,-0.0003062337636947632
1772445493676953600,3.22995361328125,-0.0001918836496770382,-0.00045700743794441223,0.0013582417741417885
1772445493686885600,3.2398857421875,0.0013563977554440498,-0.0013454016298055649,-0.001514378935098648
1772445493696817700,3.249817626953125,-0.00003297347575426102,-0.001212775707244873,0.00037060678005218506
1772445493706749400,3.25974951171875,0.00047319475561380386,0.000795409083366394,0.00026259850710630417
1772445493716682000,3.269681884765625,-0.0005715633742511272,0.000039070844650268555,0.002365163527429104
1772445493726614000,3.279614013671875,-0.0002829059958457947,0.0014872290194034576,-0.003342101350426674
1772445493736546000,3.289546142578125,-0.0014768014661967754,0.0009529981762170792,-0.000966295599937439
1772445493746479000,3.29947900390625,-0.0004689306952059269,0.0008744839578866959,0.00006471294909715652
1772445493756411100,3.3094111328125,0.0010581258684396744,0.00039351731538772583,-0.0003552669659256935
1772445493766343200,3.31934326171875,-0.0022573177702724934,-0.0002347603440284729,-0.00037721265107393265
1772445493776275200,3.329275146484375,0.002526252530515194,-0.0004986803978681564,0.000493374653160572
1772445493786207000,3.33920703125,-0.0014835824258625507,-0.0032208096235990524,-0.002200803719460964
1772445493796139000,3.349138916015625,0.002008354291319847,-0.0006769578903913498,-0.001651393249630928
1772445493806071000,3.359071044921875,0.0010815882124006748,-0.00369365606456995,0.0010302281007170677
1772445493816004000,3.369004150390625,0.0008733291178941727,0.0008587520569562912,0.0017143944278359413
1772445493825936100,3.37893603515625,-0.00024008378386497498,0.0001509394496679306,0.0019343886524438858
1772445493835868200,3.3888681640625,0.002986336126923561,0.0023179538547992706,0.002465156838297844
1772445493845800200,3.39880029296875,0.0014328882098197937,0.00009731203317642212,0.0001467689871788025
1772445493855732000,3.40873193359375,-0.0002289246767759323,-0.00018338486552238464,0.0010916590690612793
1772445493865664000,3.4186640625,-0.0015547443181276321,-0.00007048621773719788,0.0015909112989902496
1772445493875596000,3.428595947265625,-0.0019723279401659966,-0.0011107176542282104,-0.0012251157313585281
1772445493885529000,3.438529052734375,-0.00017353380098938942,-0.0005891118198633194,0.0002925293520092964
1772445493895461000,3.448461181640625,0.00031488994136452675,-0.0032488107681274414,-0.00003370828926563263
1772445493905393200,3.45839306640625,0.0019673826172947884,-0.000998321920633316,0.0031060827895998955
1772445493915325200,3.4683251953125,-0.0005626203492283821,0.0004304647445678711,0.0004386603832244873
1772445493925257000,3.478257080078125,-0.00014597270637750626,0.0022204574197530746,0.0008526071906089783
1772445493935189000,3.48818896484375,-0.0006770067848265171,0.0006284192204475403,0.005464403424412012
1772445493945121000,3.49812109375,0.0005390061996877193,-0.0004860199987888336,-0.00034273508936166763
1772445493955054000,3.50805419921875,-0.001868224935606122,-0.0007888209074735641,-0.0006820224225521088
1772445493964986000,3.517986083984375,-0.0008192891255021095,0.0013478361070156097,-0.0005428297445178032
1772445493974918100,3.527918212890625,0.0015051178634166718,-0.0010258397087454796,-0.0012142127379775047
1772445493984850200,3.53785009765625,0.000045062974095344543,0.00087699294090271,-0.001284593716263771
1772445493994782000,3.547781982421875,-0.0014721397310495377,0.0014386530965566635,-0.0005716653540730476
1772445494004714000,3.5577138671875,0.0009226002730429173,-0.0008150199428200722,0.00017844513058662415
1772445494014646000,3.56764599609375,0.0022405986674129963,-0.0011798730120062828,0.0013065608218312263
1772445494024579000,3.5775791015625,0.0006181001663208008,0.0008756574243307114,0.000015109777450561523
1772445494034511000,3.587510986328125,0.000525155570358038,-0.0026602204889059067,-0.00009541213512420654
1772445494044443100,3.597443115234375,-0.0009045135229825974,-0.001269567757844925,0.00002127978950738907
1772445494054375200,3.607375244140625,-0.0005271434783935547,0.000005288049578666687,0.0004918603226542473
1772445494064307000,3.617306884765625,-0.0019232167396694422,0.00038160569965839386,0.0012328717857599258
1772445494074239000,3.627239013671875,-0.0013498379848897457,0.0002263430505990982,-0.000637466087937355
1772445494084171000,3.6371708984375,-0.0006951941177248955,0.00251142680644989,0.00045451801270246506
1772445494094104000,3.64710400390625,-0.0013434072025120258,-0.0006830357015132904,-0.0004664026200771332
1772445494104036000,3.6570361328125,-0.000612377654761076,-0.0002883691340684891,0.0003423178568482399
1772445494113968000,3.666968017578125,-0.001961535308510065,0.000025350600481033325,-0.0009565055370330811
1772445494123900200,3.676900146484375,0.0015181214548647404,0.0022328458726406097,-0.0016809916123747826
1772445494133832000,3.68683203125,0.00028880639001727104,-0.0015893233940005302,-0.000504140742123127
1772445494143764000,3.696763916015625,-0.0004527932032942772,-0.000021869316697120667,0.001638101413846016
1772445494153696000,3.706696044921875,0.0008446988649666309,0.00025350041687488556,0.0012341002002358437
1772445494163629000,3.716629150390625,0.0007202108390629292,0.00021378695964813232,-0.0004010060802102089
1772445494173561000,3.72656103515625,0.0009385901503264904,-0.0005864929407835007,-0.0017925072461366653
1772445494183493000,3.7364931640625,0.0004511983133852482,0.0013912450522184372,-0.00024969596415758133
1772445494193425000,3.7464248046875,-0.00041992170736193657,0.0011648759245872498,-0.00038924533873796463
1772445494203357000,3.75635693359375,0.0002287980169057846,0.0010997932404279709,0.002234457992017269
1772445494213289000,3.7662890625,-0.001252985093742609,0.00023932568728923798,-0.0023837294429540634
1772445494223221000,3.776220947265625,-0.0011100913397967815,-0.0024890778586268425,0.0009519457817077637
1772445494233154000,3.786154052734375,-0.00030901236459612846,0.0015163160860538483,-0.0008185235783457756
1772445494243086000,3.796086181640625,0.0000855475664138794,-0.0014861999079585075,0.0005804747343063354
1772445494253018000,3.80601806640625,0.00019473722204566002,0.0008206292986869812,-0.0004187431186437607
1772445494262950000,3.815949951171875,0.0010853055864572525,-0.00009266100823879242,-0.0005629491060972214
1772445494272882000,3.8258818359375,0.00006238557398319244,-0.0012527341023087502,-0.000614347867667675
1772445494282814000,3.83581396484375,0.002392191905528307,-0.0014005480334162712,0.0011671558022499084
1772445494292746000,3.84574609375,-0.0017402349039912224,-0.0004727020859718323,-0.0027325106784701347
1772445494302679000,3.855678955078125,0.0002395249903202057,-0.0016638189554214478,-0.003565983846783638
1772445494312611000,3.865611083984375,0.0012086494825780392,-0.00012451224029064178,0.000048191286623477936
1772445494322543000,3.875543212890625,0.000026424415409564972,0.0015254765748977661,0.00010780803859233856
1772445494332475000,3.885474853515625,-0.0001240437850356102,0.0007747318595647812,0.001529669389128685
1772445494342407000,3.895406982421875,-0.0014385925605893135,0.0020570214837789536,0.0013528792187571526
1772445494352339000,3.9053388671875,0.0006549181416630745,-0.00001704879105091095,-0.0009512873366475105
1772445494362271000,3.91527099609375,0.0018206262029707432,0.0012696720659732819,0.00020406674593687057
1772445494372203000,3.925203125,0.00023924140259623528,-0.00010611675679683685,-0.0005120579153299332
1772445494382136000,3.935135986328125,0.00120105454698205,0.0013160128146409988,0.0007526939734816551
1772445494392068000,3.945068115234375,0.00022580474615097046,-0.0007255673408508301,0.0012717442587018013
1772445494402000000,3.954999755859375,0.0009065750055015087,0.0004626959562301636,0.0023280195891857147
1772445494411932000,3.964931884765625,-0.0006220792420208454,0.0018118545413017273,0.00031733326613903046
1772445494421864000,3.974864013671875,-0.00012638233602046967,-0.0026225531473755836,0.0018801428377628326
1772445494431796000,3.9847958984375,0.000048321206122636795,-0.0016449075192213058,-0.0013191122561693192
1772445494441728000,3.99472802734375,0.00010964646935462952,-0.00025319866836071014,0.001495150849223137
1772445494451661000,4.0046611328125,0.0006587905809283257,0.0011249873787164688,-0.0019059721380472183
1772445494461593000,4.014593017578125,0.0005478719249367714,-0.00026766397058963776,0.0002944543957710266
1772445494471524900,4.02452490234375,-0.0006071408279240131,-0.0015558358281850815,0.0007344093173742294
1772445494481457000,4.034456787109375,0.0006122714839875698,0.0005368087440729141,-0.0005792006850242615
1772445494491389000,4.044388916015625,-0.0006569912657141685,0.0017898250371217728,0.000417354516685009
1772445494501321000,4.054321044921875,0.0006119059398770332,-0.0003279857337474823,0.0000029420480132102966
1772445494511253000,4.0642529296875,-0.0006245998665690422,0.000933818519115448,0.0013457080349326134
1772445494521186000,4.07418603515625,-0.0012905965559184551,0.001116851344704628,0.0002615237608551979
1772445494531118000,4.0841181640625,-0.0004165470600128174,0.00037915632128715515,-0.0016130749136209488
1772445494541049900,4.0940498046875,0.00023610470816493034,0.0018595270812511444,-0.00001209508627653122
1772445494550982000,4.10398193359375,-0.0014946837909519672,0.0023298412561416626,0.002052120864391327
1772445494560914000,4.113913818359375,0.002150709740817547,-0.0013890201225876808,-0.0014511151239275932
1772445494570846200,4.12384619140625,0.001048161182552576,-0.00044226646423339844,0.0008759545162320137
1772445494580778200,4.1337783203125,-0.0006523649208247662,-0.0007080212235450745,-0.0005780709907412529
1772445494590710300,4.143710205078125,-0.0006710067391395569,-0.00043797679245471954,0.0007500471547245979
1772445494600643000,4.15364306640625,-0.0006076083518564701,-0.0009751878678798676,0.00460527278482914
1772445494610574800,4.163574951171875,0.0005687102675437927,0.0022674761712551117,-0.00010585878044366837
1772445494620507000,4.1735068359375,-0.0002145618200302124,0.0005716420710086823,-0.002691943198442459
1772445494630439200,4.183439208984375,0.0031098616309463978,0.0008099954575300217,0.0013427454978227615
1772445494640371200,4.19337109375,-0.0023283688351511955,0.002314979210495949,0.0017213551327586174
1772445494650303200,4.20330322265625,-0.00019251368939876556,0.0003309231251478195,-0.0025442298501729965
1772445494660235300,4.2132353515625,0.0020896238274872303,0.0022993776947259903,-0.0006044469773769379
1772445494670168000,4.22316796875,-0.0010305354371666908,0.0009662006050348282,0.0020083803683519363
1772445494680099800,4.233099853515625,0.0012173871509730816,0.0011098925024271011,0.0004333946853876114
1772445494690032000,4.2430322265625,0.003244851715862751,-0.0008936040103435516,-0.0011668987572193146
1772445494699964200,4.252964111328125,0.0017856415361166,-0.0029030675068497658,0.0012683635577559471
1772445494709896200,4.262896240234375,0.0013653947971761227,-0.0007376512512564659,-0.0012666992843151093
1772445494719828200,4.272828125,-0.0005871905013918877,-0.0009255176410079002,-0.002463993616402149
1772445494729760300,4.28276025390625,0.0007241498678922653,0.0013509523123502731,0.0009720167145133018
1772445494739692300,4.2926923828125,0.0010557849891483784,0.0004170183092355728,-0.00260885339230299
1772445494749625000,4.302625,-0.0014036442153155804,-0.0008269445970654488,0.0008652405813336372
1772445494759557000,4.31255712890625,-0.002069650450721383,0.0009252820163965225,-0.000322059728205204
1772445494769489200,4.3224892578125,0.001013491302728653,-0.0015786215662956238,0.0035640252754092216
1772445494779421200,4.332421142578125,0.0016846400685608387,0.0004991516470909119,0.0003496157005429268
1772445494789353200,4.342353271484375,-0.0017039661761373281,-0.0039033200591802597,0.0004944922402501106
1772445494799285200,4.35228515625,-0.0011623762547969818,-0.0016446728259325027,0.00205365102738142
1772445494809217300,4.36221728515625,0.00010582106187939644,-0.00007473863661289215,-0.000865706242620945
1772445494819149300,4.3721494140625,0.0018040151335299015,0.0010002274066209793,0.0016344068571925163
1772445494829082400,4.382082275390625,0.00012755533680319786,-0.0024222014471888542,0.000645841471850872
1772445494839014100,4.39201416015625,-0.0019023355562239885,-0.0003189779818058014,0.0023613441735506058
1772445494848946200,4.4019462890625,-0.0005150949582457542,-0.00013042613863945007,-0.0017580334097146988
1772445494858878200,4.411878173828125,0.0002715294249355793,0.0012505017220973969,0.002604534849524498
1772445494868810200,4.421810302734375,-0.0006113084964454174,-0.0015556709840893745,-0.002064252272248268
1772445494878742300,4.4317421875,-0.001199518796056509,0.0010770298540592194,-0.0045560384169220924
1772445494888674300,4.44167431640625,0.00021728267893195152,-0.001039118506014347,0.000262419693171978
1772445494898606000,4.451606201171875,-0.00005992036312818527,-0.0005737375468015671,0.0015805820003151894
1772445494908539100,4.4615390625,0.0014532878994941711,-0.0017639035359025002,-0.0003973478451371193
1772445494918471200,4.47147119140625,0.00006597768515348434,-0.00023713521659374237,-0.0015149638056755066
1772445494928403200,4.4814033203125,0.000391149427741766,-0.00017694756388664246,-0.0001484956592321396
1772445494938335200,4.491335205078125,0.0015506087802350521,0.00006429478526115417,-0.0016689896583557129
1772445494948267300,4.501267333984375,0.00037908414378762245,0.0010291580110788345,-0.00012222584336996078
1772445494958199000,4.511198974609375,0.0022385409101843834,-0.001268169842660427,-0.000504850409924984
1772445494968131000,4.521131103515625,-0.00033513782545924187,-0.0002883933484554291,-0.0012651830911636353
1772445494978063000,4.53106298828125,-0.0004911329597234726,-0.0016451915726065636,0.0003281300887465477
1772445494987996200,4.54099609375,0.0017762822099030018,-0.0007202755659818649,0.0020120469853281975
1772445494997928200,4.55092822265625,-0.0013720402494072914,0.0011868365108966827,-0.001791585236787796
1772445495007860200,4.560860107421875,-0.0022889666724950075,-0.0003908202052116394,0.0009948797523975372
1772445495017792300,4.570792236328125,-0.0006244415417313576,-0.0025316504761576653,-0.0006575379520654678
1772445495027724000,4.58072412109375,0.0011460278183221817,-0.0006115119904279709,0.0007502082735300064
1772445495037656000,4.590656005859375,0.0005481052212417126,0.0002605114132165909,0.0011599184945225716
1772445495047588000,4.600588134765625,0.00029350677505135536,-0.0008162045851349831,-0.00040016043931245804
1772445495057520000,4.61052001953125,0.0004292502999305725,-0.0004308577626943588,-0.00010805763304233551
1772445495067453200,4.620453125,-0.0014781057834625244,-0.0006063599139451981,-0.0007693208754062653
1772445495077385200,4.63038525390625,0.0024127205833792686,0.00004720315337181091,0.0010175853967666626
1772445495087317200,4.640317138671875,0.0021996679715812206,0.00009940005838871002,0.0007153162732720375
1772445495097249000,4.6502490234375,-0.0002801469527184963,0.0004826914519071579,-0.00014358293265104294
1772445495107181000,4.66018115234375,-0.0005837474018335342,0.0018827151507139206,0.00009263958781957626
1772445495117113000,4.670113037109375,-0.0003910791128873825,0.0012898370623588562,0.0013402840122580528
1772445495127045000,4.680045166015625,0.0008233226835727692,0.00083150714635849,-0.000049087218940258026
1772445495136977200,4.68997705078125,-0.0013536675833165646,0.0018527768552303314,-0.0021054306998848915
1772445495146910200,4.69991015625,0.0009073559194803238,-0.001144610345363617,-0.00031285732984542847
1772445495156842200,4.70984228515625,0.002036338672041893,0.0009421855211257935,0.0007381243631243706
1772445495166774000,4.71977392578125,-0.0006238929927349091,-0.00043999403715133667,0.0002904469147324562
1772445495176706000,4.7297060546875,0.0009283474646508694,0.00036898814141750336,0.0005163773894309998
1772445495186638000,4.73963818359375,-0.0017159052658826113,0.000870727002620697,-0.0012748651206493378
1772445495196570000,4.749570068359375,-0.0006494494155049324,-0.00024072639644145966,0.001967259682714939
1772445495206502100,4.759502197265625,-0.001017764676362276,-0.0011797575280070305,-0.00015714392066001892
1772445495216434200,4.76943408203125,-0.001107873860746622,-0.00012399256229400635,-0.0016392385587096214
1772445495226367200,4.7793671875,0.0005882936529815197,0.001409454271197319,-0.0016110092401504517
1772445495236299000,4.789299072265625,0.0009920960292220116,-0.0012105293571949005,0.0006616795435547829
1772445495246231000,4.79923095703125,-0.0014313803985714912,0.0005516838282346725,0.0011090906336903572
1772445495256163000,4.8091630859375,-0.0007459553889930248,-0.0005006613209843636,-0.00044765789061784744
1772445495266095000,4.81909521484375,-0.000019445084035396576,-0.0004876125603914261,-0.0007368773221969604
1772445495276027100,4.829027099609375,0.00014078151434659958,-0.0008822595700621605,-0.0024760840460658073
1772445495285959200,4.838959228515625,-0.0006467150524258614,0.0023391004651784897,-0.00002411194145679474
1772445495295891000,4.848890869140625,-0.00022679055109620094,-0.0002254936844110489,-0.0020152609795331955
1772445495305824000,4.858823974609375,0.001117573119699955,0.0012317877262830734,0.0031174495816230774
1772445495315756000,4.868756103515625,0.0007845512591302395,0.0012356303632259369,0.0008030552417039871
1772445495325688000,4.87868798828125,0.000981359276920557,0.0004180390387773514,-0.00012452341616153717
1772445495335620000,4.8886201171875,0.0007790829986333847,-0.002086557447910309,0.0025107190012931824
1772445495345552100,4.89855224609375,-0.0012462511658668518,0.0008357297629117966,-0.002671792171895504
1772445495355484200,4.908484130859375,-0.000004379544407129288,-0.001826389692723751,-0.0009573996067047119
1772445495365416000,4.918416015625,0.003476638812571764,0.0009044166654348373,0.0007078750059008598
1772445495375348000,4.928347900390625,0.0011403588578104973,0.002101728692650795,0.0011482974514365196
1772445495385280300,4.9382802734375,0.0021736654452979565,-0.0010043168440461159,-0.0005872845649719238
1772445495395213000,4.948213134765625,-0.0001715417020022869,-0.0003351643681526184,-0.00006565172225236893
1772445495405145000,4.95814501953125,-0.001791542861610651,-0.00032051652669906616,-0.0020078951492905617
1772445495415077000,4.9680771484375,0.001310686580836773,-0.002345014363527298,-0.0000962279736995697
1772445495425009200,4.978009033203125,-0.00030079204589128494,0.003112068399786949,0.00018739886581897736
1772445495434941000,4.98794091796875,0.0013115066103637218,-0.00023726746439933777,0.0018216408789157867
1772445495444873200,4.997873291015625,0.0007719499990344048,0.0005760621279478073,-0.0007555000483989716
1772445495454805200,5.00780517578125,-0.0015842495486140251,-0.002387508749961853,-0.0010155821219086647
1772445495464737300,5.0177373046875,0.0018994314596056938,-0.0010466072708368301,0.00352563988417387
1772445495474670000,5.027670166015625,-0.0008123614825308323,-0.0000931769609451294,0.0008102813735604286
1772445495484602000,5.03760205078125,0.001194596290588379,-0.00151024479418993,-0.0009428774937987328
1772445495494534100,5.0475341796875,-0.00017402833327651024,-0.0022597620263695717,-0.0016795927658677101
1772445495504466200,5.057466064453125,-0.000749537255614996,0.0006745085120201111,-0.0013136742636561394
1772445495514398200,5.067398193359375,0.002860855311155319,-0.0003045275807380676,-0.00004680175334215164
1772445495524330200,5.077330322265625,0.0008491030894219875,-0.0005812309682369232,0.0007643969729542732
1772445495534262300,5.08726220703125,0.00000254996120929718,-0.00023674406111240387,0.0014576595276594162
1772445495544194300,5.0971943359375,0.0010643522255122662,-0.0004652421921491623,-0.0017900653183460236
1772445495554126000,5.1071259765625,0.0003399052657186985,0.0019419901072978973,0.0008947327733039856
1772445495564059100,5.11705908203125,-0.0003554457798600197,0.00006419606506824493,0.0005093729123473167
1772445495573991200,5.1269912109375,-0.0007778028957545757,-0.002474089153110981,0.0015230663120746613
1772445495583923200,5.136923095703125,0.0005367333069443703,-0.0006122728809714317,-0.002323070541024208
1772445495593855200,5.146855224609375,-0.0027545427437871695,-0.0016483254730701447,0.00030735600739717484
1772445495603787300,5.156787353515625,0.000043108128011226654,-0.0012187575921416283,0.0011577028781175613
1772445495613719300,5.16671923828125,-0.00018230918794870377,-0.00010215491056442261,0.0010509379208087921
1772445495623651000,5.176651123046875,-0.0006235949695110321,-0.0006036283448338509,-0.0003725215792655945
1772445495633583000,5.1865830078125,0.002979372628033161,-0.000187775120139122,-0.00009597931057214737
1772445495643516200,5.19651611328125,-0.0003090989775955677,0.0003323405981063843,-0.0004038400948047638
1772445495653448200,5.2064482421875,-0.0008756918832659721,-0.00034496746957302094,-0.001544174738228321
1772445495663380200,5.216380126953125,-0.0006642364896833897,0.0003144312649965286,-0.0000445488840341568
1772445495673312300,5.226312255859375,-0.0013687368482351303,-0.0003925897181034088,0.0007512671872973442
1772445495683244300,5.236244384765625,-0.000678179319947958,-0.0005353353917598724,0.0024793921038508415
1772445495693176000,5.246176025390625,-0.004006656352430582,-0.000698222778737545,0.002333449199795723
1772445495703108000,5.256108154296875,0.0022296682000160217,-0.00008809193968772888,0.001225307583808899
1772445495713040100,5.2660400390625,0.00005026720464229584,-0.001065579243004322,0.00006717070937156677
1772445495722974500,5.275974365234375,-0.0006488123908638954,0.0008431077003479004,0.0004490679129958153
1772445495732907500,5.285907470703125,-0.0005180332809686661,0.00023841671645641327,-0.0020218882709741592
1772445495742839600,5.295839599609375,0.001878279261291027,-0.00036106258630752563,0.0026572858914732933
1772445495752771600,5.305771484375,-0.0007001073099672794,0.0020651500672101974,0.00044851936399936676
1772445495762703600,5.31570361328125,0.0004780753515660763,0.00009361281991004944,0.000060496851801872253
1772445495772635400,5.325635498046875,0.00008458690717816353,0.002411043271422386,0.00029485300183296204
1772445495782567400,5.3355673828125,0.00009390804916620255,0.0006397757679224014,-0.0000505596399307251
1772445495792499500,5.34549951171875,0.00023498805239796638,0.00018439814448356628,0.001954573206603527
1772445495802431500,5.355431396484375,-0.0003338633105158806,-0.0021168384701013565,0.0017790710553526878
1772445495812364500,5.365364501953125,0.0009667412377893925,-0.000978974625468254,-0.001978711225092411
1772445495822296600,5.375296630859375,0.0018309368751943111,0.0005840342491865158,-0.0003358069807291031
1772445495832228600,5.385228515625,-0.00034153787419199944,-0.00010274723172187805,0.00046041980385780334
1772445495842160400,5.395160400390625,0.0012244009412825108,-0.00044869258999824524,-0.000215223990380764
1772445495852092400,5.405092529296875,0.0034695155918598175,-0.00035704299807548523,-0.0007034623995423317
1772445495862024400,5.4150244140625,0.0013070288114249706,0.0008616205304861069,0.0018952498212456703
1772445495871956500,5.42495654296875,-0.00006645219400525093,-0.00007502362132072449,-0.001149602234363556
1772445495881888500,5.434888427734375,0.0016640699468553066,-0.0017099389806389809,0.0004581483080983162
1772445495891821600,5.444821533203125,0.0019187708385288715,0.0011564940214157104,0.001637871377170086
1772445495901753600,5.454753662109375,-0.0006924583576619625,0.00038577616214752197,-0.0002614948898553848
1772445495911685400,5.464685302734375,-0.0007461397908627987,-0.00018828175961971283,0.001375327818095684
1772445495921617400,5.474617431640625,0.0012807920575141907,0.0002958811819553375,-0.0021576210856437683
1772445495931549400,5.484549560546875,0.0009982390329241753,-0.00046495720744132996,0.002513793297111988
1772445495941481500,5.4944814453125,0.0012262058444321156,-0.0005927886813879013,0.000060755759477615356
1772445495951413500,5.50441357421875,0.0000788629986345768,-0.001124783419072628,0.0005269590765237808
1772445495961345800,5.514345703125,-0.000014347489923238754,0.0002653859555721283,-0.0007012905552983284
1772445495971277600,5.524277587890625,0.0007899482734501362,-0.0005953274667263031,-0.0018923459574580193
1772445495981210400,5.53421044921875,-0.0005613397806882858,-0.0008382070809602737,-0.0009535811841487885
1772445495991142400,5.544142333984375,-0.00018430687487125397,0.0012103207409381866,-0.0004885569214820862
1772445496001074400,5.554074462890625,0.00007774820551276207,0.0011991355568170547,0.00021025724709033966
1772445496011006700,5.5640068359375,-0.002237119944766164,0.0013511180877685547,0.0013668257743120193
1772445496020938800,5.573938720703125,-0.0009630639106035233,0.002264583483338356,-0.00011042971163988113
1772445496030870800,5.583870849609375,-0.0005291677080094814,-0.0005662310868501663,-0.0010981159284710884
1772445496040802600,5.593802490234375,-0.0005400865338742733,-0.00021389499306678772,-0.0023945430293679237
1772445496050734600,5.603734619140625,-0.0003456925041973591,0.003052603453397751,-0.002199963666498661
1772445496060666600,5.61366650390625,0.000498263631016016,0.0002927705645561218,-0.002198099158704281
1772445496070599700,5.623599609375,-0.0007763314060866833,0.0006351731717586517,-0.0006699366495013237
1772445496080531700,5.63353173828125,-0.000585116446018219,0.0006839092820882797,0.0014800326898694038
1772445496090463700,5.643463623046875,0.0018868600018322468,0.0011003054678440094,-0.000012123025953769684
1772445496100395500,5.6533955078125,-0.0010197144001722336,-0.0010683070868253708,0.001995101571083069
1772445496110327600,5.66332763671875,-0.00015076017007231712,-0.0013035330921411514,0.001168551854789257
1772445496120259600,5.673259521484375,0.004536136984825134,0.0021575111895799637,-0.000045583583414554596
1772445496130191600,5.683191650390625,-0.0015705348923802376,-0.0006263032555580139,-0.0035894187167286873
1772445496140123600,5.69312353515625,-0.000387558713555336,0.0009604077786207199,0.0003845496103167534
1772445496150055700,5.7030556640625,0.0022568898275494576,-0.0012866873294115067,0.0004471512511372566
1772445496159988700,5.71298876953125,0.0004304940812289715,0.002190070226788521,-0.0010106628760695457
1772445496169920500,5.72292041015625,0.0009746612049639225,-0.0009210463613271713,0.002065262757241726
1772445496179852500,5.7328525390625,-0.00029779737815260887,-0.0027311965823173523,0.00014831963926553726
1772445496189784600,5.74278466796875,0.0012919967994093895,-0.0004060976207256317,0.00031915120780467987
1772445496199716600,5.752716552734375,-0.0002670176327228546,0.00017953291535377502,-0.000498172827064991
1772445496209648600,5.762648681640625,0.0011788331903517246,0.0003960561007261276,0.00030848849564790726
1772445496219580700,5.77258056640625,0.002328519243746996,0.0023369677364826202,0.0019018575549125671
1772445496229512400,5.782512451171875,0.00013263802975416183,-0.0005764849483966827,0.0005632312968373299
1772445496239445500,5.792445556640625,-0.0020671330858021975,-0.00041456520557403564,0.00104579608887434
1772445496249377500,5.80237744140625,0.00022737542167305946,-0.0012050671502947807,0.0010268967598676682
1772445496259309600,5.8123095703125,0.0009901048615574837,-0.000203719362616539,-0.0012471769005060196
1772445496269241600,5.82224169921875,0.00039375992491841316,0.0034332983195781708,0.0016277693212032318
1772445496279173600,5.832173583984375,0.0003695250488817692,0.0003656037151813507,0.0002256147563457489
1772445496289105700,5.842105712890625,-0.00011381879448890686,0.00112997367978096,-0.0015411367639899254
1772445496299037400,5.852037353515625,-0.001362841110676527,0.00208844430744648,0.0011121705174446106
1772445496308969500,5.861969482421875,0.0012080390006303787,-0.00017110444605350494,0.0023012030869722366
1772445496318901500,5.871901611328125,-0.0017099864780902863,0.0012747254222631454,0.00030170101672410965
1772445496328834600,5.88183447265625,0.000005963724106550217,-0.0014336705207824707,-0.00138761755079031
1772445496338766600,5.8917666015625,-0.0006142864003777504,0.000064091756939888,-0.0004581743851304054
1772445496348698600,5.90169873046875,-0.00004355330020189285,0.00009130127727985382,0.0015862220898270607
1772445496358630700,5.911630615234375,-0.000781248789280653,-0.0016253730282187462,0.0022826390340924263
1772445496368562400,5.9215625,0.0010365736670792103,-0.0005650445818901062,-0.0006637983024120331
1772445496378494500,5.931494384765625,-0.001574389636516571,-0.0003786236047744751,-0.0012880433350801468
1772445496388426500,5.941426513671875,0.002109205350279808,-0.0017830552533268929,-0.000009538605809211731
1772445496398358500,5.951358642578125,-0.0026876800693571568,-0.0016435058787465096,-0.001225004903972149
1772445496408290600,5.96129052734375,0.0007876073941588402,-0.0009392676874995232,-0.0005343407392501831
1772445496418223600,5.9712236328125,0.0010914742015302181,0.0008202828466892242,0.0010835295543074608
1772445496428155600,5.98115576171875,0.00012221839278936386,0.0019486304372549057,0.0009002881124615669
1772445496438087400,5.99108740234375,0.00217338465154171,0.00044714100658893585,-0.002414547838270664
1772445496448019500,6.00101953125,0.0007179644890129566,-0.00006683915853500366,0.0011495072394609451
1772445496457951500,6.010951416015625,0.002253809478133917,0.0016551613807678223,0.0003193998709321022
1772445496467883500,6.020883544921875,0.0005268733948469162,0.0009343046694993973,-0.0015775887295603752
1772445496477815600,6.030815673828125,0.00009624054655432701,-0.0011469554156064987,-0.002173870801925659
1772445496487747600,6.04074755859375,0.0002578655257821083,-0.001002100296318531,-0.0006760051473975182
1772445496497679400,6.050679443359375,-0.00009473692625761032,-0.0004364456981420517,0.0017306935042142868
1772445496507612400,6.0606123046875,0.0004147076979279518,-0.0009627621620893478,-0.0013578059151768684
1772445496517544400,6.07054443359375,0.0004237624816596508,0.0002503078430891037,-0.001217457465827465
1772445496527476500,6.0804765625,-0.0018788701854646206,0.0008787643164396286,0.0008009616285562515
1772445496537408500,6.090408447265625,-0.00002557644620537758,-0.000697561539709568,0.0032800985500216484
1772445496547340500,6.100340576171875,-0.0007532956078648567,-0.00002958066761493683,0.00001949165016412735
1772445496557272600,6.1102724609375,0.00013327086344361305,0.001287085935473442,0.0012123221531510353
1772445496567204400,6.120204345703125,0.0012998026795685291,0.0019601956009864807,-0.00009819585829973221
1772445496577136600,6.13013671875,0.000592467375099659,0.0004299432039260864,-0.0005328236147761345
1772445496587068700,6.140068603515625,0.0007483726367354393,-0.000806405209004879,0.0010373862460255623
1772445496597001500,6.15000146484375,-0.0001720157451927662,-0.000757402740418911,-0.0015442818403244019
1772445496606933500,6.15993359375,0.0013816389255225658,-0.002278687432408333,-0.0013701096177101135
1772445496616865500,6.169865478515625,0.0012426222674548626,-0.0015183556824922562,0.0007303254678845406
1772445496626797600,6.179797607421875,0.0012054964900016785,-0.0027448544278740883,0.00024095363914966583
1772445496636729600,6.1897294921875,-0.00029359711334109306,0.000218978151679039,-0.001708214171230793
1772445496646661600,6.19966162109375,0.001828277949243784,0.0011688116937875748,-0.0012024082243442535
1772445496656593700,6.20959375,0.0006753955967724323,-0.0001822095364332199,-0.001379242166876793
1772445496666525700,6.219525634765625,-0.0005375631153583527,-0.00028812699019908905,0.0006785131990909576
1772445496676457700,6.229457763671875,-0.0004994799382984638,0.002372903749346733,0.0010324474424123764
1772445496686390500,6.239390625,-0.0006970688700675964,0.0005718432366847992,-0.0004769330844283104
1772445496696322600,6.249322509765625,0.001565286424010992,0.0006725098937749863,0.0000698138028383255
1772445496706254600,6.259254638671875,0.001876175869256258,0.0008943751454353333,0.000904817134141922
1772445496716186600,6.2691865234375,0.0010282252915203571,-0.0005437321960926056,0.0012113461270928383
1772445496726115600,6.279115478515625,-0.00037508970126509666,0.00023138336837291718,0.002524244599044323
1772445496736047600,6.289047607421875,0.0008893790654838085,-0.0017843637615442276,0.002212654799222946
1772445496745979600,6.298979736328125,0.0011585983447730541,0.001605447381734848,0.0009026080369949341
1772445496755911700,6.30891162109375,-0.0016206763684749603,-0.0003471840173006058,0.0012386990711092949
1772445496765843700,6.31884375,0.0019218330271542072,-0.0016951197758316994,0.0015561515465378761
1772445496775776500,6.328776611328125,-0.0029120706021785736,-0.0011579599231481552,0.0013899710029363632
1772445496785708500,6.33870849609375,0.000047812703996896744,0.0008147023618221283,0.0015016039833426476
1772445496795640600,6.348640625,0.0021477150730788708,0.001992618665099144,-0.0005040224641561508
1772445496805572600,6.358572509765625,-0.0006187744438648224,0.000014489516615867615,0.0006365682929754257
1772445496815504600,6.368504638671875,-0.0008209082297980785,0.0005354024469852448,0.0006466889753937721
1772445496825436700,6.378436767578125,-0.00311278342269361,0.000996595248579979,-0.0024914592504501343
1772445496835368700,6.38836865234375,-0.0015713456086814404,-0.0005285982042551041,-0.00010526645928621292
1772445496845300500,6.398300537109375,-0.0018431060016155243,0.001982158049941063,0.0008979905396699905
1772445496855232500,6.408232421875,0.000733768567442894,-0.00005276314914226532,0.0008615050464868546
1772445496865165600,6.41816552734375,-0.00018883682787418365,-0.0006166296079754829,0.00011970475316047668
1772445496875097600,6.42809765625,-0.000895107164978981,0.0014630332589149475,0.0008661886677145958
1772445496885029600,6.438029541015625,-0.0002909773029386997,0.0007663276046514511,-0.0011269552633166313
1772445496894961700,6.447961669921875,0.0006810761988162994,-0.00019374117255210876,0.001913309097290039
1772445496904893400,6.4578935546875,-0.0015208898112177849,0.0007650535553693771,0.0007107099518179893
1772445496914825500,6.467825439453125,-0.0001067514531314373,-0.0009143352508544922,-0.0023636436089873314
1772445496924757500,6.477757568359375,0.0007549095898866653,-0.0003902483731508255,-0.001056276261806488
1772445496934689500,6.487689453125,-0.0012946589849889278,0.0008425284177064896,0.002162952907383442
1772445496944621600,6.49762158203125,0.0005311132408678532,0.001871960237622261,-0.0026478487998247147
1772445496954554600,6.5075546875,0.0011063558049499989,0.0021872781217098236,0.00038256216794252396
1772445496964486700,6.517486572265625,0.00008599366992712021,-0.0003997236490249634,-0.002441531978547573
1772445496974418400,6.52741845703125,-0.0003672763705253601,-0.003609364852309227,-0.0003626681864261627
1772445496984350500,6.5373505859375,0.0006625927053391933,-0.000635175034403801,0.002603566274046898
1772445496994282500,6.547282470703125,-0.0007856343872845173,0.0002471301704645157,-0.001007947139441967
1772445497004214500,6.557214599609375,-0.0002605062909424305,-0.0010780766606330872,-0.000599185936152935
1772445497014146600,6.567146484375,-0.0007665068842470646,-0.000051427632570266724,0.0006658155471086502
1772445497024078600,6.57707861328125,-0.0011275867000222206,-0.0014679869636893272,-0.00044424738734960556
1772445497034010400,6.58701025390625,-0.0001704464666545391,-0.00027489103376865387,0.0022146524861454964
1772445497043943400,6.596943359375,-0.0006109024398028851,-0.0012430083006620407,0.00028266292065382004
1772445497053875500,6.60687548828125,-0.0015185074880719185,0.0015184227377176285,-0.0010505151003599167
1772445497063807500,6.616807373046875,-0.0009803976863622665,0.0009012073278427124,-0.0009681005030870438
1772445497073739500,6.626739501953125,0.00017328374087810516,0.0016993563622236252,0.001244453713297844
1772445497083671600,6.636671630859375,-0.000899098813533783,0.00009015947580337524,-0.00012848619371652603
1772445497093603600,6.646603515625,0.0011914828792214394,0.0003474205732345581,0.002574888989329338
1772445497103535400,6.656535400390625,-0.0015001916326582432,0.0007293988019227982,0.0001027323305606842
1772445497113467400,6.66646728515625,0.0009025121107697487,0.00042366795241832733,0.0009357696399092674
1772445497123399400,6.6763994140625,0.002987560350447893,0.0030532479286193848,-0.000710819847881794
1772445497133331500,6.68633154296875,-0.0014820229262113571,0.00011764466762542725,0.0002969205379486084
1772445497143264500,6.696264404296875,0.0020250887610018253,-0.002108657732605934,0.003534027375280857
1772445497153196500,6.706196533203125,-0.0006202291697263718,0.00012893043458461761,0.000016789883375167847
1772445497163128600,6.716128662109375,0.0014914902858436108,0.0005832556635141373,0.0014629736542701721
1772445497173060400,6.726060302734375,-0.0017274725250899792,0.0005345195531845093,-0.00034717656672000885
1772445497182992400,6.735992431640625,-0.00040693068876862526,-0.0014803912490606308,-0.00043424684554338455
1772445497192924400,6.74592431640625,-0.0006788396276533604,-0.00007157959043979645,-0.0014960495755076408
1772445497202856400,6.7558564453125,-0.00013078656047582626,-0.0026905881240963936,-0.0008431151509284973
1772445497212788500,6.76578857421875,-0.001760374754667282,-0.00042956508696079254,0.00012467708438634872
1772445497222720500,6.775720458984375,-0.0007880451157689095,-0.0004231315106153488,0.00040392857044935226
1772445497232653600,6.785653564453125,0.0005475301295518875,0.0008786208927631378,0.0007400196045637131
1772445497242585300,6.79558544921875,0.000732653308659792,0.000230494886636734,0.00017798040062189102
1772445497252517400,6.805517333984375,-0.0012324932031333447,0.0009476840496063232,-0.001958673819899559
1772445497262449400,6.815449462890625,-0.0013258554972708225,0.000909954309463501,0.0015948107466101646
1772445497272381400,6.82538134765625,-0.00024354690685868263,-0.0013119205832481384,0.00009731575846672058
1772445497282313500,6.8353134765625,-0.0028892771806567907,-0.0008760569617152214,0.00015410594642162323
1772445497292245500,6.84524560546875,0.000285477377474308,0.0014419592916965485,-0.0011822683736681938
1772445497302177500,6.855177490234375,0.001184624619781971,-0.0008529564365744591,0.00026782136410474777
1772445497312109600,6.865109619140625,0.0012405510060489178,-0.0036005396395921707,0.0002933880314230919
1772445497322042400,6.87504248046875,0.0013892981223762035,0.0002704411745071411,0.001422688364982605
1772445497331974400,6.884974365234375,-0.00040354207158088684,-0.00026671774685382843,-0.0008162315934896469
1772445497341906400,6.894906494140625,0.0012492830865085125,-0.00021153874695301056,-0.000545138493180275
1772445497351838500,6.90483837890625,-0.0017766007222235203,-0.0013814643025398254,-0.0010966788977384567
1772445497361770800,6.914770751953125,-0.0006743762642145157,0.0007811132818460464,0.0009744307026267052
1772445497371702500,6.92470263671875,0.002026601694524288,-0.00017815828323364258,-0.0005222652107477188
1772445497381634600,6.934634521484375,-0.001918854657560587,0.0001505594700574875,0.0008587073534727097
1772445497391566600,6.944566650390625,-0.000036798883229494095,-0.00039991550147533417,0.0021948153153061867
1772445497401498600,6.95449853515625,-0.0017055305652320385,-0.00022689253091812134,0.0007467428222298622
1772445497411430700,6.9644306640625,0.00011687073856592178,0.00040720589458942413,0.0004575233906507492
1772445497421363700,6.97436376953125,0.001519184559583664,0.0013149790465831757,0.00003607757389545441
1772445497431295700,6.984295654296875,-0.0008092173375189304,0.002339497208595276,-0.001826537773013115
1772445497441227500,6.9942275390625,-0.0010787923820316792,0.00036361441016197205,0.000990530475974083
1772445497451159600,7.00415966796875,-0.00015227869153022766,0.0016733575612306595,-0.0019227014854550362
1772445497461091600,7.014091552734375,-0.00023511052131652832,-0.0001473836600780487,0.001237352378666401
1772445497471023600,7.024023681640625,0.0003289468586444855,0.00012132897973060608,0.00043360982090234756
1772445497480955600,7.03395556640625,-0.0019346724729984999,0.000940125435590744,0.0010500550270080566
1772445497490887400,7.043887451171875,-0.00036101043224334717,0.00014117732644081116,0.0007981192320585251
1772445497500819500,7.0538193359375,-0.00006935186684131622,0.000813707709312439,-0.0003469223156571388
1772445497510751500,7.06375146484375,0.001743728294968605,0.0013276971876621246,-0.0004079090431332588
1772445497520684500,7.0736845703125,0.0015020803548395634,-0.001175103709101677,0.001026851125061512
1772445497530616600,7.083616455078125,0.0006554611027240753,-0.0015450166538357735,-0.0013904999941587448
1772445497540548600,7.093548583984375,0.00023241201415657997,-0.0010396111756563187,0.0007679397240281105
1772445497550480600,7.103480712890625,0.0017120642587542534,-0.00027768127620220184,-0.00001769326627254486
1772445497560412400,7.113412353515625,-0.0008235564455389977,0.0008671469986438751,0.0012800553813576698
1772445497570344400,7.123344482421875,0.000882997177541256,0.001369420439004898,0.0017639519646763802
1772445497580276500,7.1332763671875,-0.0005529634654521942,0.0008128434419631958,-0.003710438497364521
1772445497590208500,7.14320849609375,-0.0009399205446243286,-0.0006055571138858795,-0.0035834060981869698
1772445497600140500,7.153140625,0.0022220476530492306,-0.0008939206600189209,-0.0005024252459406853
1772445497610073600,7.163073486328125,-0.0016704285517334938,-0.000192178413271904,-0.0006528934463858604
1772445497620005600,7.173005615234375,0.00019461195915937424,0.00014050863683223724,-0.00013983715325593948
1772445497629937400,7.1829375,-0.0015923692844808102,-0.0015348847955465317,0.002818136475980282
1772445497639869400,7.192869384765625,-0.00010792072862386703,0.0015995800495147705,0.0017194552347064018
1772445497649801500,7.202801513671875,0.00007397355511784554,-0.0006816843524575233,-0.00199032761156559
1772445497659733500,7.2127333984375,-0.0001166914589703083,-0.00047373585402965546,0.0007612640038132668
1772445497669665500,7.22266552734375,0.00045908382162451744,0.0007252190262079239,-0.00011971034109592438
1772445497679597600,7.23259765625,-0.0008698352612555027,0.0009218174964189529,0.001314239576458931
1772445497689529300,7.242529296875,0.001397846732288599,-0.0007024453952908516,0.00029105227440595627
1772445497699462400,7.25246240234375,-0.00038658780977129936,0.0008776821196079254,0.00030279066413640976
1772445497709394400,7.26239453125,-0.001538937445729971,0.0005035083740949631,0.0012886924669146538
1772445497719327200,7.2723271484375,0.0018329732120037079,-0.0005961675196886063,-0.0004606088623404503
1772445497729259300,7.28225927734375,0.00016663363203406334,0.00045178644359111786,-0.00160124059766531
1772445497739191300,7.29219140625,-0.0007619699463248253,-0.0006825728341937065,-0.0013598920777440071
1772445497749123300,7.302123291015625,-0.00191911356523633,0.002298302948474884,-0.001088782213628292
1772445497759055400,7.312055419921875,0.000825241208076477,0.0010752473026514053,0.0010623876005411148
1772445497768987400,7.3219873046875,-0.00029062293469905853,-0.0028225556015968323,0.0024213986471295357
1772445497778919200,7.331919189453125,-0.004101985599845648,-0.0012602433562278748,0.0009578503668308258
1772445497788851200,7.341851318359375,0.0003486890345811844,-0.001176353543996811,0.0012598531320691109
1772445497798784300,7.3517841796875,0.0006883013993501663,-0.00013403408229351044,0.0010934602469205856
1772445497808716300,7.36171630859375,-0.0007495391182601452,0.0008934140205383301,0.00028945133090019226
1772445497818648300,7.3716484375,0.0011513936333358288,0.0023695435374975204,0.0026503661647439003
1772445497828580400,7.381580322265625,-0.0016023148782551289,0.0033146999776363373,-0.0010013598948717117
1772445497838512400,7.391512451171875,-0.000154916662722826,0.0002128053456544876,0.00037376768887043
1772445497848444200,7.401444091796875,0.0008533564396202564,-0.0008894773200154305,-0.0032172389328479767
1772445497858376200,7.411376220703125,-0.00046115368604660034,-0.00014242343604564667,0.0024508191272616386
1772445497868308200,7.42130810546875,0.0008086413145065308,0.0004133768379688263,0.0002835392951965332
1772445497878240300,7.431240234375,0.0008534793742001057,0.001761551946401596,0.0011167721822857857
1772445497888172300,7.44117236328125,0.0008127330802381039,-0.000689355656504631,0.0008525867015123367
1772445497898105300,7.451105224609375,-0.003013384062796831,0.0025281086564064026,-0.00009755417704582214
1772445497908037400,7.461037353515625,-0.00012891413643956184,0.0029486212879419327,-0.0008813226595520973
1772445497917969200,7.47096923828125,0.0017501171678304672,0.0003425758332014084,0.001548142172396183
1772445497927901200,7.480901123046875,0.0005021598190069199,0.00028318725526332855,0.0012866193428635597
1772445497937833200,7.490833251953125,0.00003423308953642845,-0.0005622729659080505,0.001389017328619957
1772445497947765200,7.50076513671875,-0.0012733791954815388,-0.0016536368057131767,-0.0035567395389080048
1772445497957697300,7.510697265625,-0.0002905735746026039,0.0005337633192539215,-0.001337607391178608
1772445497967629300,7.52062939453125,-0.00023304903879761696,-0.00326443649828434,-0.0006505120545625687
1772445497977561300,7.530561279296875,-0.0008179373107850552,0.000054780393838882446,-0.0012001506984233856
1772445497987493400,7.540493408203125,0.00006569968536496162,-0.00004215911030769348,-0.0010893633589148521
1772445497997426200,7.55042626953125,0.00004313793033361435,0.0009622164070606232,-0.0005545904859900475
1772445498007358200,7.560358154296875,-0.002406704006716609,-0.0005075819790363312,-0.0006086528301239014
1772445498017290200,7.570290283203125,0.0007695723325014114,-0.0006037130951881409,0.001767229288816452
1772445498027222300,7.58022216796875,0.0007866164669394493,-0.002170717343688011,-0.0018828995525836945
1772445498037154300,7.590154296875,0.00017623603343963623,-0.00035386718809604645,0.00032550469040870667
1772445498047086300,7.60008642578125,0.002865229733288288,-0.0015333816409111023,0.0007159234955906868
1772445498057018400,7.610018310546875,-0.00287617277354002,0.0000881347805261612,-0.0010130656883120537
1772445498066950400,7.619950439453125,-0.00036880653351545334,0.0006250273436307907,-0.0008058715611696243
1772445498076882400,7.62988232421875,0.000055184587836265564,0.001982716843485832,-0.0005566868931055069
1772445498086815200,7.639815185546875,-0.00115202646702528,-0.0009922999888658524,0.0006688991561532021
1772445498096747500,7.64974755859375,0.0021366304717957973,0.0017988141626119614,0.0010611983016133308
1772445498106679300,7.65967919921875,0.0012758970260620117,0.0007745623588562012,-0.002169748768210411
1772445498116611300,7.669611328125,0.0005770414136350155,0.0018293652683496475,0.0022965408861637115
1772445498126543400,7.67954345703125,0.0021536326967179775,0.0003630276769399643,-0.000055563636124134064
1772445498136475400,7.689475341796875,-0.0013676825910806656,-0.0005006436258554459,-0.0006338432431221008
1772445498146407400,7.699407470703125,0.00048481207340955734,-0.0013352781534194946,0.002036241814494133
1772445498156339500,7.70933935546875,-0.000025991350412368774,-0.0006461599841713905,0.001013031229376793
1772445498166271200,7.719271240234375,0.00033779675140976906,-0.0002826377749443054,0.0017568515613675117
1772445498176203300,7.729203369140625,-0.0009675640612840652,-0.0006098570302128792,0.0002478063106536865
1772445498186136300,7.73913623046875,0.00008331937715411186,-0.0016002869233489037,0.0010414281859993935
1772445498196068400,7.749068359375,0.0006383988074958324,0.0024207551032304764,-0.0023711780086159706
1772445498206000400,7.75900048828125,-0.00003591366112232208,-0.0013782437890768051,-0.00002173706889152527
1772445498215932400,7.768932373046875,0.0005674283020198345,0.00240415520966053,0.0010900665074586868
1772445498225864400,7.778864501953125,0.001755197998136282,0.00018281303346157074,-0.0003797318786382675
1772445498235796200,7.788796142578125,-0.00003130221739411354,-0.0009826170280575752,0.0021748626604676247
1772445498245728300,7.798728271484375,0.0010360931046307087,-0.0002491828054189682,-0.0018153516575694084
1772445498255660300,7.808660400390625,-0.0005678916350007057,-0.00009525194764137268,-0.0001725824549794197
1772445498265592300,7.81859228515625,-0.001008911058306694,0.0008206106722354889,-0.0005632685497403145
1772445498275524400,7.8285244140625,0.0029357662424445152,-0.0006479071453213692,-0.00017766933888196945
1772445498285457400,7.83845751953125,0.001877958420664072,-0.0002580210566520691,0.0010774778202176094
1772445498295389400,7.848389404296875,0.000755449291318655,-0.0008068038150668144,-0.0007289303466677666
1772445498305321200,7.8583212890625,-0.0024768293369561434,-0.00006058625876903534,0.0012165093794465065
1772445498315253200,7.868253173828125,-0.0003364523872733116,0.0011687669903039932,-0.001675519160926342
1772445498325185300,7.878185302734375,0.0003029727376997471,-0.0022113164886832237,0.0029605114832520485
1772445498335117300,7.888117431640625,-0.0026427980046719313,-0.0016499925404787064,0.00016677193343639374
1772445498345049300,7.89804931640625,0.0011796369217336178,-0.00012267008423805237,0.0013060718774795532
1772445498354981400,7.9079814453125,0.0013965270482003689,0.0010908599942922592,-0.00045508798211812973
1772445498364913200,7.9179130859375,-0.0006868639029562473,0.002429630607366562,-0.0005786586552858353
1772445498374845200,7.92784521484375,-0.0015308954752981663,0.00041300803422927856,0.0033660177141427994
1772445498384778200,7.9377783203125,0.00022865505889058113,0.0020279474556446075,0.00036383606493473053
1772445498394710300,7.947710205078125,0.0005376311019062996,0.0007243882864713669,-0.00122115109115839
1772445498404642300,7.957642333984375,-0.00023734895512461662,-0.0007834937423467636,-0.00027732737362384796
1772445498414574300,7.96757421875,0.0015714452601969242,-0.001456165686249733,-0.0007870802655816078
1772445498424506400,7.97750634765625,0.0009663752280175686,-0.0015150215476751328,-0.0009103845804929733
1772445498434438100,7.987438232421875,-0.002224824158474803,-0.002777126617729664,0.0009444970637559891
1772445498444370200,7.9973701171875,0.0012508672662079334,-0.0012167803943157196,-0.000011045485734939575
1772445498454302200,8.00730224609375,0.0022874660789966583,-0.0014809202402830124,0.00015475694090127945
1772445498464234200,8.017234130859375,-0.000045995693653821945,0.002095704898238182,0.0005960427224636078
1772445498474166300,8.027166259765625,0.0005808230489492416,-0.0002926532179117203,0.00017496105283498764
1772445498484099300,8.037099365234376,-0.0003867032937705517,0.0004895180463790894,-0.0018003061413764954
1772445498494031000,8.047031005859376,0.0007449798285961151,0.00058034248650074,0.0018514851108193398
1772445498503963100,8.056963134765626,0.0010160896927118301,0.0007571764290332794,-0.0003149965777993202
1772445498513895200,8.066895263671874,-0.0004065730608999729,-0.00035445019602775574,0.0010105390101671219
1772445498523827200,8.0768271484375,-0.0017290988471359015,-0.00003886595368385315,0.0020377198234200478
1772445498533759200,8.08675927734375,-0.0004595690406858921,-0.001209581270813942,-0.0004150569438934326
1772445498543691500,8.09669140625,0.0022643120028078556,-0.0007768170908093452,0.0015261219814419746
1772445498553623300,8.106623291015625,0.0009487178176641464,0.00019123218953609467,0.0019172225147485733
1772445498563555300,8.116555419921875,0.0012850752100348473,-0.00030358321964740753,-0.0014769760891795158
1772445498573487400,8.1264873046875,0.004406492691487074,-0.0003922507166862488,-0.002486579120159149
1772445498583420200,8.136420166015625,0.00017952360212802887,0.0012642350047826767,0.0016122926026582718
1772445498593352200,8.146352294921876,0.001922648400068283,0.0005286559462547302,0.0001708604395389557
1772445498603284500,8.156284423828126,-0.00010454980656504631,-0.00014965049922466278,-0.0011186422780156136
1772445498613216500,8.166216552734374,-0.0017111529596149921,0.0012180320918560028,-0.002632620744407177
1772445498623148300,8.176148193359374,0.0007767719216644764,-0.0017077168449759483,-0.0001566801220178604
1772445498633080300,8.186080322265624,0.0001835264265537262,-0.0006456188857555389,0.0014776429161429405
1772445498643012400,8.196012451171875,-0.0016556524205952883,0.0003264341503381729,0.0003830837085843086
1772445498652944400,8.2059443359375,0.0003889128565788269,0.00010266900062561035,-0.00021655578166246414
1772445498662876400,8.21587646484375,0.00023977598175406456,-0.00004780106246471405,-0.0006365366280078888
1772445498672808400,8.225808349609375,-0.0017537488602101803,0.0021999720484018326,-0.0011912379413843155
1772445498682741500,8.235741455078125,-0.0014839707873761654,0.002329401671886444,0.0022863177582621574
1772445498692673300,8.24567333984375,0.0009028627537190914,-0.00022103823721408844,0.0008737044408917427
1772445498702605300,8.255605224609376,0.000045058783143758774,-0.0004921481013298035,0.0016196556389331818
1772445498712537300,8.265537353515626,0.0023473333567380905,0.0003173165023326874,0.0002665296196937561
1772445498722468900,8.27546875,0.002428293228149414,-0.0014310488477349281,-0.00028474535793066025
1772445498732400600,8.285400634765624,-0.0009570405818521976,0.0014028679579496384,-0.0006591193377971649
1772445498742332700,8.295332763671874,-0.0014364095404744148,-0.0015465831384062767,0.0021497169509530067
1772445498752264700,8.3052646484375,0.0011593257077038288,0.0013894587755203247,0.002353285439312458
1772445498762196700,8.31519677734375,-0.002773097949102521,0.000652829185128212,0.00061850156635046
1772445498772128800,8.325128662109375,0.0007109479047358036,-0.00021617859601974487,-0.0009989310055971146
1772445498782061800,8.335061767578125,0.0011514346115291119,0.001934058964252472,-0.0009291563183069229
1772445498791993900,8.344993896484375,-0.0004048887640237808,-0.0011873254552483559,0.00014066416770219803
1772445498801925600,8.354925537109375,0.0019221813417971134,0.0028963666409254074,-0.0001437617465853691
1772445498811857700,8.364857666015626,0.0022988715209066868,-0.0019314512610435486,0.001123226247727871
1772445498821789700,8.374789794921876,0.001115894876420498,0.0002161208540201187,0.0004108306020498276
1772445498831721700,8.3847216796875,-0.002766478108242154,0.0012590792030096054,-0.000064031220972538
1772445498841653800,8.39465380859375,-0.0006897449493408203,0.0007959567010402679,0.00008324161171913147
1772445498851585800,8.404585693359374,-0.0003480324521660805,-0.00005205720663070679,-0.0028688954189419746
1772445498861517600,8.414517578125,-0.0026199750136584044,-0.0014717886224389076,-0.0004877634346485138
1772445498871449600,8.42444970703125,0.000227414071559906,-0.001355205662548542,0.00069405697286129
1772445498881382700,8.434382568359375,-0.00009163282811641693,-0.00000844523310661316,-0.0013911975547671318
1772445498891314700,8.444314697265625,-0.0004060543142259121,-0.0013151951134204865,-0.0021048355847597122
1772445498901246700,8.454246826171875,-0.000706991646438837,0.002468092367053032,-0.0005274461582303047
1772445498911178800,8.4641787109375,-0.0003309505991637707,0.0015753433108329773,-0.00042392127215862274
1772445498921110800,8.47411083984375,0.00001898873597383499,0.0010861214250326157,-0.0018583005294203758
1772445498931042600,8.48404248046875,0.0011376566253602505,0.0009626727551221848,0.001094559207558632
1772445498940974600,8.493974609375,-0.0015454781241714954,-0.0001020580530166626,0.00028895214200019836
1772445498950907000,8.503906982421874,0.0011123400181531906,0.000322878360748291,0.0010037990286946297
1772445498960839000,8.5138388671875,0.00011764932423830032,-0.0012193592265248299,-0.000505681149661541
1772445498970771000,8.52377099609375,0.0030048349872231483,-0.0011657150462269783,0.0023000743240118027
1772445498980703700,8.533703857421875,-0.000692698173224926,-0.0023931656032800674,0.00003638770431280136
1772445498990635800,8.5436357421875,0.0001861443743109703,-0.0044851116836071014,-0.0004198392853140831
1772445499000567600,8.553567626953125,0.0019768537022173405,-0.0005124751478433609,-0.0009681843221187592
1772445499010499800,8.563499755859375,0.001079002395272255,0.00026603974401950836,-0.00014481134712696075
1772445499020432000,8.573431884765625,0.0004779272712767124,0.0010199807584285736,-0.0013107433915138245
1772445499030364000,8.583364013671876,0.00044576963409781456,-0.0001528225839138031,0.0000737188383936882
1772445499040296000,8.5932958984375,0.0003831852227449417,0.0012780949473381042,-0.0003763549029827118
1772445499050228000,8.60322802734375,0.0010720626451075077,-0.00012554042041301727,0.0005830321460962296
1772445499060159700,8.61315966796875,0.0012036226689815521,-0.001324760727584362,0.0013617407530546188
1772445499070091800,8.623091796875,0.00153287872672081,0.0018912255764007568,-0.001193310134112835
1772445499080024800,8.63302490234375,0.001223419327288866,0.0008414071053266525,-0.002499590627849102
1772445499089956900,8.642956787109375,0.0005982648581266403,0.0008745566010475159,0.0008740173652768135
1772445499099889000,8.652888916015625,-0.001716820988804102,-0.0013949889689683914,0.0011158324778079987
1772445499109821000,8.662821044921875,0.000795445404946804,-0.0020390767604112625,-0.0017332034185528755
1772445499119753000,8.6727529296875,0.0009957151487469673,-0.00008857809007167816,-0.0014770077541470528
1772445499129684700,8.682684814453125,0.0019587846472859383,0.0008163508027791977,0.001736832782626152
1772445499139616800,8.69261669921875,0.0013814116828143597,-0.00041722506284713745,0.002231115475296974
1772445499149548800,8.702548828125,-0.0008917134255170822,0.0013761650770902634,0.0008590705692768097
1772445499159480800,8.712480712890626,0.0010904772207140923,0.00009545125067234039,-0.00030100252479314804
1772445499169412900,8.722412841796874,-0.002221996197476983,0.0013950150460004807,0.00006914325058460236
1772445499179346000,8.732345947265625,0.0005042818374931812,0.0009286962449550629,-0.0001593567430973053
1772445499189277700,8.742277587890625,0.0024065887555480003,0.00019288063049316406,-0.0005897916853427887
1772445499199209700,8.752209716796875,0.00028884271159768105,0.00019900687038898468,0.000250435434281826
1772445499209141800,8.762141845703125,-0.0023388874251395464,0.0032349899411201477,0.00039830058813095093
1772445499219073800,8.77207373046875,0.0006891265511512756,-0.0006846506148576736,0.0006084246560931206
1772445499229005800,8.782005859375,-0.000024409964680671692,0.0017324835062026978,-0.0014011682942509651
1772445499238937900,8.791937744140625,0.001427545677870512,0.00030476413667201996,-0.00004535354673862457
1772445499248869600,8.80186962890625,0.00020768959075212479,-0.0023412173613905907,0.001113186590373516
1772445499258801700,8.8118017578125,-0.001159843523055315,0.0014101117849349976,0.0005842829123139381
1772445499268733700,8.821733642578126,0.0002679326571524143,-0.0015137922018766403,-0.0011666249483823776
1772445499278666800,8.831666748046874,0.0016181552782654762,-0.001726311631500721,0.0009465934708714485
1772445499288598800,8.841598876953125,0.0011227522045373917,-0.0006084106862545013,-0.0016665840521454811
1772445499298530800,8.85153076171875,-0.0006301403045654297,0.002253156155347824,0.00042959023267030716
1772445499308462800,8.861462890625,0.0009045368060469627,-0.0006370618939399719,0.0003823479637503624
1772445499318394600,8.87139453125,-0.0006685927510261536,-0.0015025893226265907,0.00022335723042488098
1772445499328326700,8.88132666015625,0.0007491325959563255,0.002435373142361641,-0.001783805899322033
1772445499338258700,8.8912587890625,-0.00142001174390316,-0.00010474957525730133,0.0002894653007388115
1772445499348190700,8.901190673828125,0.0005972189828753471,-0.0005109105259180069,0.0004957458004355431
1772445499358122800,8.911122802734376,0.001963686663657427,0.0006728637963533401,-0.0017173411324620247
1772445499368054800,8.9210546875,0.00027769338339567184,0.0024117156863212585,-0.0003760112449526787
1772445499377987800,8.93098779296875,0.001019117422401905,-0.00045784004032611847,0.000795779749751091
1772445499387919600,8.940919677734374,-0.0007083937525749207,-0.0036082668229937553,0.00008490681648254395
1772445499397851600,8.9508515625,-0.000662587583065033,-0.0010092882439494133,-0.0008112471550703049
1772445499407783700,8.96078369140625,-0.0007864478975534439,0.0004282630980014801,0.0009044483304023743
1772445499417715700,8.9707158203125,0.0002644350752234459,0.0010897926986217499,0.0018677134066820145
1772445499427647700,8.980647705078125,-0.0010099774226546288,0.00022609718143939972,0.0009257392957806587
1772445499437579800,8.990579833984375,-0.001205985900014639,0.00039147958159446716,-0.0018985429778695107
1772445499447511600,9.000511474609375,-0.00009100046008825302,0.001090141013264656,-0.0012470409274101257
1772445499457443800,9.01044384765625,0.0014078263193368912,-0.00006966665387153625,0.0008248984813690186
1772445499467375900,9.0203759765625,-0.0023526400327682495,0.0000730510801076889,0.0012614643201231956
1772445499477308000,9.030307861328126,0.0007267729379236698,0.0018909238278865814,0.001622854731976986
1772445499487240700,9.04024072265625,-0.0005743950605392456,0.00012397952377796173,-0.0003414470702409744
1772445499497172700,9.0501728515625,-0.00017065973952412605,0.0008086785674095154,0.0012540528550744057
1772445499507104800,9.060104736328125,-0.0010376335121691227,0.0011515021324157715,0.00046567805111408234
1772445499517036800,9.070036865234375,-0.000942558515816927,0.00024070218205451965,-0.0004818746820092201
1772445499526968800,9.07996875,-0.0007581687532365322,0.0013083741068840027,-0.00009564775973558426
1772445499536900900,9.08990087890625,-0.0004801345057785511,0.001361902803182602,-0.000990736298263073
1772445499546833000,9.0998330078125,-0.0026072650216519833,0.0006688684225082397,0.0005485843867063522
1772445499556765000,9.109764892578125,-0.0009443871676921844,0.002498192712664604,0.00010356958955526352
1772445499566697000,9.119697021484376,-0.0000034691765904426575,-0.001566711813211441,-0.0019080573692917824
1772445499576628700,9.129628662109376,0.0007723099552094936,-0.000043917447328567505,0.002216113731265068
1772445499586560800,9.139560791015626,0.0009339801035821438,-0.000032003968954086304,0.00018236041069030762
1772445499596493800,9.149493896484374,0.0002793748863041401,0.0011592265218496323,-0.00011058710515499115
1772445499606425900,9.15942578125,0.0015706205740571022,0.0016223657876253128,0.0007214993238449097
1772445499616358000,9.16935791015625,0.00029097171500325203,0.002250606194138527,0.00010045059025287628
1772445499626290000,9.1792900390625,0.002182495780289173,0.00033248215913772583,-0.0006009507924318314
1772445499636221700,9.1892216796875,0.002249607350677252,-0.0024872729554772377,0.00025339145213365555
1772445499646153700,9.19915380859375,-0.0017369419801980257,0.00035048462450504303,0.0001906799152493477
1772445499656085800,9.209085693359375,-0.0017670358065515757,0.0016572978347539902,-0.001884722150862217
1772445499666017800,9.219017822265625,0.00032226648181676865,-0.0011577876284718513,0.0003746878355741501
1772445499675949800,9.22894970703125,-0.0007275515235960484,-0.0016595274209976196,-0.0008698077872395515
1772445499685881900,9.2388818359375,-0.0006318492814898491,0.0008380711078643799,-0.0011134762316942215
1772445499695815000,9.24881494140625,-0.000603885855525732,-0.0011806050315499306,-0.00017710868269205093
1772445499705746700,9.25874658203125,0.0013811509124934673,-0.0010838648304343224,0.0021319054067134857
1772445499715678700,9.2686787109375,-0.00023245858028531075,0.00015184283256530762,-0.0018098391592502594
1772445499725611300,9.278611328125,0.003112361766397953,0.000285247340798378,0.000541098415851593
1772445499735543300,9.288543212890625,0.000294737983494997,0.0004306565970182419,-0.00013587716966867447
1772445499745475300,9.298475341796875,0.0010755187831819057,0.0005644652992486954,-0.0011717183515429497
1772445499755407400,9.308407470703125,-0.0007870960980653763,0.001705363392829895,-0.0015363050624728203
1772445499765339400,9.31833935546875,-0.002031484851613641,-0.00027457065880298615,-0.0005883313715457916
1772445499775271200,9.328271240234375,0.0006756186485290527,-0.0005667200312018394,0.0014053108170628548
1772445499785203200,9.338203125,-0.000577129889279604,0.00033792294561862946,-0.0005577327683568001
1772445499795136300,9.34813623046875,0.0011696373112499714,0.0001786649227142334,0.0008540088310837746
1772445499805068300,9.358068359375,0.0018268544226884842,-0.0006688535213470459,-0.0013410840183496475
1772445499815000300,9.368000244140624,-0.0017641517333686352,0.0005239751189947128,0.00002192240208387375
1772445499824932400,9.377932373046875,0.001086660660803318,0.0006135981529951096,-0.0006914567202329636
1772445499834864400,9.387864501953125,-0.001551200170069933,-0.0016487576067447662,0.0012902012094855309
1772445499844796200,9.397796142578125,0.00013473257422447205,-0.00122770294547081,0.00010572653263807297
1772445499854728200,9.407728271484375,0.0011190366931259632,0.0011680759489536285,-0.0017520952969789505
1772445499864660200,9.41766015625,0.0006100954487919807,-0.000054599717259407043,-0.00058705173432827
1772445499874592300,9.42759228515625,0.0004162173718214035,0.0006697811186313629,0.000014290213584899902
1772445499884524300,9.437524169921875,0.0005863290280103683,-0.00018633902072906494,0.000955536961555481
1772445499894456000,9.4474560546875,0.0005876608192920685,-0.0007485328242182732,0.0008772406727075577
1772445499904389400,9.457389404296874,0.0008751577697694302,-0.0016883611679077148,-0.001850091852247715
1772445499914321200,9.467321044921874,0.0012946058996021748,0.0011785328388214111,0.0028653014451265335
1772445499924253200,9.477253173828124,-0.0009667160920798779,0.0005300790071487427,-0.001672482118010521
1772445499934185200,9.487185302734375,-0.00114514771848917,0.0006520505994558334,0.0002636350691318512
1772445499944117200,9.4971171875,-0.00010242173448204994,0.0013492293655872345,-0.0021018218249082565
1772445499954049300,9.50704931640625,-0.000005216803401708603,-0.0005639856681227684,0.00001911912113428116
1772445499963981000,9.51698095703125,-0.0012121107429265976,0.0005072802305221558,-0.0010151872411370277
1772445499973913000,9.5269130859375,-0.0006613689474761486,0.00011313334107398987,0.00011399295181035995
1772445499983845000,9.53684521484375,0.0004798225127160549,-0.000383058562874794,-0.0014277640730142593
1772445499993777200,9.546777099609375,-0.0007050177082419395,-0.00099265668541193,-0.0007073786109685898
1772445500003709400,9.55670947265625,-0.0013587744906544685,0.0009803678840398788,0.0011292081326246262
1772445500013642200,9.566642333984374,0.0010346085764467716,0.0000879429280757904,0.002487420104444027
1772445500023574300,9.57657421875,0.00021241139620542526,0.0011134762316942215,-0.000218844972550869
1772445500033506000,9.586506103515624,0.0009032352827489376,0.0014338549226522446,0.0019463049247860909
1772445500043438000,9.59643798828125,0.00031482381746172905,-0.0005411505699157715,-0.0013864943757653236
1772445500053370000,9.6063701171875,0.001126555260270834,0.02197188138961792,0.007012050598859787
1772445500063302400,9.616302490234375,-0.0008233287371695042,0.2236541211605072,0.0461159348487854
1772445500073234400,9.626234375,-0.004358408506959677,0.33713382482528687,0.07180212438106537
1772445500083166500,9.63616650390625,0.000822349451482296,0.04319894313812256,0.007721400819718838
1772445500093098200,9.64609814453125,0.00426368648186326,-0.13615962862968445,-0.029991623014211655
1772445500103030300,9.6560302734375,0.0006601829081773758,0.04898367077112198,0.010839521884918213
1772445500112962300,9.66596240234375,-0.0010426421649754047,0.053653523325920105,0.013767135329544544
1772445500122895400,9.675895263671874,0.0015103123150765896,-0.08626026660203934,-0.02273934707045555
1772445500132827400,9.685827392578124,-0.0003134203143417835,-0.0843995213508606,-0.015615124255418777
1772445500142759400,9.695759521484375,0.001210837159305811,-0.09440360218286514,-0.02323869615793228
1772445500152691500,9.70569140625,0.0034798504784703255,-0.13581442832946777,-0.03182579204440117
1772445500162623200,9.715623291015625,0.004697173833847046,-0.15031510591506958,-0.03618662804365158
1772445500172555300,9.72555517578125,-0.0007929322309792042,-0.07549386471509933,-0.013844840228557587
1772445500182487300,9.7354873046875,-0.0027696373872458935,0.031454525887966156,0.006981897633522749
1772445500192419300,9.74541943359375,-0.0013653524219989777,0.06990018486976624,0.012943916022777557
