time,seconds_elapsed,z,y,x
1772555466570940000,0.07693994140625,0.4908317985981703,-0.215640865695104,0.48946599013768133
1772555466580872000,0.086871826171875,0.5899456683009863,-0.20792437303364275,0.48938971003107723
1772555466590804000,0.096803955078125,0.5740139396756887,-0.1840447541438043,0.5132246129963547
1772555466600735000,0.10673486328125,0.46715924658775326,-0.17321853196397421,0.5628180074006319
1772555466610666800,0.116666748046875,0.241044552347064,-0.13857238519228995,0.5591285782981663
1772555466620598800,0.126598876953125,-0.015875030001997945,-0.05528364193513989,0.4325839730951935
1772555466630530800,0.13653076171875,-0.18781974263787268,-0.067052551792562,0.2768555233807303
1772555466640462800,0.146462890625,-0.2786795787364244,-0.07855579645112157,0.24081229622745884
1772555466650395000,0.156394775390625,-0.3476186749279499,-0.027164704975113273,0.19169249241799116
1772555466660326000,0.166325927734375,-0.4686474393188953,0.022050065375119447,0.1155915691725444
1772555466670258000,0.1762578125,-0.5766279215663671,0.17053060805425047,0.07058483127166983
1772555466680190000,0.18618994140625,-0.6679460228264331,0.3496468197546899,0.0293568744072807
1772555466690122000,0.1961220703125,-0.8034124778926373,0.44602344651333986,-0.07658487997064367
1772555466700054000,0.206053955078125,-0.8484446287959814,0.48992798162624235,-0.14302416783622465
1772555466709985800,0.21598583984375,-0.799162419232726,0.45719563258662815,-0.08136449719630182
1772555466719917800,0.225917724609375,-0.6150549751162528,0.40916371534541246,-0.038485852798726405
1772555466729848800,0.235848876953125,-0.33539106151759623,0.3390591555710882,-0.10411326715899631
1772555466739780900,0.24578076171875,-0.1113572652041912,0.23599464854635296,-0.19498532341830432
1772555466749713000,0.255712890625,0.04774082534015178,0.12537870322875677,-0.2971716411027126
1772555466759644700,0.265644775390625,0.1236310558438301,0.053223494534939526,-0.40567864970862866
1772555466769576700,0.27557666015625,0.040709027007222176,-0.00024323417134582996,-0.48399460952188816
1772555466779508700,0.2855087890625,-0.1186941839635372,-0.01487666661441326,-0.4817394510062411
1772555466789440000,0.29543994140625,-0.32020693638920783,0.009278846607357264,-0.4570137366810813
1772555466799372000,0.3053720703125,-0.46576165474951264,0.014770868152379988,-0.4194706263588741
1772555466809303800,0.3153037109375,-0.4756728079110384,0.026839199347794055,-0.3735476275630295
1772555466819235800,0.32523583984375,-0.38792379730939863,0.03301744959130883,-0.32507980312258006
1772555466829167900,0.33516796875,-0.21759821030795573,0.05742715676985681,-0.2960358602721244
1772555466839100000,0.345099853515625,-0.03148001089096069,0.07958681999929249,-0.28766470309421416
1772555466849032000,0.355031982421875,0.1492459740936756,0.08951097877286374,-0.2717935820823535
1772555466858962700,0.364962646484375,0.30012217973768707,0.11051080444268882,-0.23142606198918073
1772555466868894700,0.374894775390625,0.39804362478554245,0.11597900672070681,-0.20232081740554422
1772555466878826800,0.38482666015625,0.3209989635497331,0.10976144738011062,-0.19878285253774375
1772555466888758800,0.3947587890625,0.10398585965335369,0.0691196403902024,-0.21694895261898636
1772555466898690800,0.40469091796875,-0.18500293165147302,0.020844123651459812,-0.23588256647400557
1772555466908622800,0.414622802734375,-0.5036754980802536,-0.020259382566064594,-0.23789266418740151
1772555466918555000,0.424554931640625,-0.6804711578786373,-0.01529379604794085,-0.2075429907669313
1772555466928486000,0.43448583984375,-0.672910951757431,0.03145692227631807,-0.11645667070243507
1772555466938418000,0.44441796875,-0.5243108743518591,0.08416706046164035,-0.014159056396968663
1772555466948350000,0.454349853515625,-0.35261282995343207,0.12846147167496383,0.0660873143564444
1772555466958281700,0.46428173828125,-0.2753822907567024,0.13599625109396873,0.09807406005999073
1772555466968213800,0.4742138671875,-0.23371347880661486,0.11156762001924216,0.08620778164216317
1772555466978145800,0.484145751953125,-0.182281982254982,0.08557254334539174,0.10995681468858383
1772555466988077800,0.494077880859375,-0.14205986198186873,0.03276647050492465,0.13787568076555617
1772555466998008800,0.5040087890625,-0.09868716872334479,-0.018749635590240357,0.1381581144361291
1772555467007940900,0.51394091796875,-0.05423486353456974,-0.0741281892672181,0.1343764952718746
1772555467017873000,0.523872802734375,0.0026081366717815397,-0.11089388547614216,0.11029749961872584
1772555467027805000,0.533804931640625,0.05024199450612068,-0.13184563422054052,0.08268266712278127
1772555467037737000,0.543737060546875,0.02719838804900646,-0.15221549142375587,0.06347599021373317
1772555467047669000,0.5536689453125,-0.045808395972847936,-0.1843492169830948,0.06162364034531638
1772555467057599700,0.563599853515625,-0.08589782977700233,-0.2324386365652084,0.051304189510690046
1772555467067531800,0.57353173828125,-0.0628197365283966,-0.251843375063315,0.024984821919072416
1772555467077463800,0.5834638671875,-0.05245265629291534,-0.25799714845269917,-0.03770491328779608
1772555467087395800,0.593395751953125,-0.013978840991854667,-0.27341215972751376,-0.07600090607022866
1772555467097327900,0.603327880859375,0.0204302090883255,-0.2739874023322016,-0.10559941406352445
1772555467107259600,0.613259765625,0.01514554668366909,-0.2823362746130675,-0.12987711975970304
1772555467117191700,0.623191650390625,-0.05010989255905151,-0.3035319151159376,-0.15271486491379327
1772555467127123000,0.633123046875,-0.06163666422367096,-0.3110520084224641,-0.1801805529963225
1772555467137055000,0.643054931640625,-0.09168401196300983,-0.31703342091962694,-0.22345902863275258
1772555467146986800,0.65298681640625,-0.10074468577504157,-0.3271742181185633,-0.2752540977997705
1772555467156918800,0.662918701171875,-0.0887789381712675,-0.33831294031366704,-0.3221665825570002
1772555467166850800,0.672850830078125,-0.04810439795553684,-0.3192158795252442,-0.330513335946016
1772555467176782800,0.682782958984375,-0.02318330718874931,-0.31414953604638574,-0.3446862016726285
1772555467186715000,0.69271484375,-0.06292670403420925,-0.3385449955038726,-0.3720612614627927
1772555467196645600,0.702645751953125,-0.10572247418761253,-0.3600970482289791,-0.3449695851912722
1772555467206577700,0.71257763671875,-0.16650281384289264,-0.3515951773434877,-0.30390138774914666
1772555467216509700,0.722509765625,-0.21943536260724067,-0.3489040385633707,-0.2451565177105367
1772555467226442000,0.73244189453125,-0.24133564424812792,-0.27324790907651186,-0.22117751183314246
1772555467236374000,0.7423740234375,-0.2685544905632734,-0.16399609171897173,-0.20298357389690352
1772555467246306000,0.75230615234375,-0.2901572505623102,-0.08175678444951773,-0.1547093905987218
1772555467256236800,0.76223681640625,-0.26428631172478195,-0.006576894172281026,-0.0854811022022739
1772555467266168800,0.7721689453125,-0.1350163732111454,0.03196574858129024,0.0074955068545416
1772555467276100900,0.782100830078125,-0.02462298460304737,0.024917145244032143,0.09637920230822637
1772555467286033000,0.792032958984375,-0.0021913725644350053,-0.01640519135594368,0.15145409686351194
1772555467295965000,0.80196484375,-0.013349895438551902,-0.07048764080777764,0.17637352539617568
1772555467305896700,0.811896728515625,-0.08583411689102649,-0.08487740068808197,0.1992872401296161
1772555467315828700,0.821828857421875,-0.13411328689157961,-0.029245675967633722,0.2526675509277731
1772555467325760000,0.831760009765625,-0.12823942642211913,0.06794482445716858,0.2749174497239292
1772555467335692000,0.841692138671875,-0.16797463996112347,0.13812296092435716,0.2243667728611268
1772555467345623800,0.851623779296875,-0.29155367335677146,0.15576368542462588,0.18786076876800506
1772555467355555800,0.861555908203125,-0.26541969966888423,0.21346929380968213,0.16461385829113423
1772555467365487900,0.87148779296875,-0.2235515657544136,0.2655782512314617,0.23395313278138635
1772555467375420000,0.881419921875,-0.21934008553922174,0.27285350293144583,0.25345046320008113
1772555467385351000,0.891350830078125,-0.13662556197345255,0.3112771954804659,0.05591629098260309
1772555467395282700,0.90128271484375,0.22690262974798678,0.27756416484043,0.18028447002852335
1772555467405214700,0.911214599609375,0.18885259281694888,0.2571225575752556,0.1486036758684553
1772555467415146800,0.921146728515625,0.08092121040821075,0.4347200352758169,0.11216572290970943
1772555467425078800,0.931078857421875,0.28657763850986956,0.2287897586688399,1.0428578514147548
1772555467435010800,0.9410107421875,0.46152620913684367,0.03441547982096672,1.0763590659350155
1772555467444943400,0.950943359375,0.5625765998601913,0.012077829676121473,0.8930963290143757
1772555467454874600,0.96087451171875,0.5494704500496387,-0.02151946562975645,0.7847587038923054
1772555467464806700,0.970806640625,0.6271516556233168,-0.07013955802246928,0.6263438463717699
1772555467474738400,0.980738525390625,0.5871271037489175,-0.1694393056862056,0.593605725178495
1772555467484670500,0.99067041015625,0.4648316804230213,-0.3151008454218507,0.5912807893622666
1772555467494602500,1.0006025390625,0.3477273959994316,-0.40882308521419763,0.525034841244854
1772555467504534500,1.010534423828125,0.2934036851376295,-0.4212102731004357,0.3703133948821574
1772555467514466600,1.020466552734375,0.2336421671360731,-0.37165786829367276,0.2306929802079685
1772555467524397300,1.030397216796875,0.17770751394629478,-0.28102336538359524,0.0927221228390932
1772555467534329300,1.040329345703125,0.18104630298018454,-0.1757202856518328,-0.0108014165321365
1772555467544261400,1.050261474609375,0.1946025346457958,-0.06948401672318577,-0.11195829983726144
1772555467554193400,1.060193359375,0.19434826762378216,-0.008248480646312237,-0.213347603658773
1772555467564125400,1.07012548828125,0.15038520725667476,0.031294571321457625,-0.31432569633089
1772555467574057500,1.080057373046875,0.024965514430403707,0.055890083395689724,-0.42028431736193594
1772555467583988500,1.089988525390625,-0.14348784895837305,0.1079582704156637,-0.4592140597369522
1772555467593920500,1.09992041015625,-0.2867418891608715,0.20049685338139533,-0.44527887522373344
1772555467603852500,1.1098525390625,-0.3587719371050596,0.30429551989957687,-0.4476723462315276
1772555467613784600,1.11978466796875,-0.3991670758575201,0.3574231528446078,-0.4350033822618425
1772555467623716400,1.12971630859375,-0.41375323509275913,0.39081805744618175,-0.4363487689888105
1772555467633648400,1.1396484375,-0.36812428734004493,0.41890974107310175,-0.42477910803053526
1772555467643580400,1.149580322265625,-0.2976701104104519,0.4194057078965008,-0.403927202931419
1772555467653511400,1.159511474609375,-0.2503355277836323,0.40785745505243537,-0.39880229766573755
1772555467663443500,1.169443359375,-0.21050269908905028,0.3652461015552282,-0.37663317248821254
1772555467673375500,1.17937548828125,-0.22993337574601172,0.2940817305296659,-0.3277045256029814
1772555467683307500,1.1893076171875,-0.24806875189542768,0.22875439509451387,-0.2569411365937441
1772555467693239600,1.199239501953125,-0.25908523595035077,0.1914956546716392,-0.1661737645516172
1772555467703171600,1.209171630859375,-0.2523053665518761,0.14247399574071168,-0.10723323494358919
1772555467713102600,1.2191025390625,-0.18799217659533024,0.07598755339831113,-0.09469113962342962
1772555467723034400,1.229034423828125,-0.10417816735506057,0.02363835747987032,-0.09595156974699348
1772555467732966400,1.23896630859375,0.0029307927548885343,-0.000023819267004728315,-0.11404553617378696
1772555467742898400,1.2488984375,0.1307633919417858,-0.006994681192934513,-0.1523395653279964
1772555467752830500,1.25883056640625,0.22120237227976322,0.018929449136555195,-0.2167567545151338
1772555467762762500,1.268762451171875,0.25330022280812264,0.04434519155248999,-0.2813357923336327
1772555467772694300,1.2786943359375,0.25221008948385715,0.06419540879577398,-0.33714638075232506
1772555467782625500,1.28862548828125,0.19958266114592552,0.0815811356216669,-0.3481304969076067
1772555467792557600,1.2985576171875,0.10439560949802398,0.050343993575870986,-0.3101512601904571
1772555467802489600,1.308489501953125,0.0019786065965890884,-0.029175679471343755,-0.19405951381027697
1772555467812421600,1.318421630859375,-0.08409224165976047,-0.11456292937770485,-0.08133806584710254
1772555467822353400,1.328353515625,-0.15441314759850502,-0.20861805438622832,0.037956851355405524
1772555467832285400,1.338285400390625,-0.2172200246453285,-0.27576617550775406,0.17464114864561706
1772555467842216400,1.348216552734375,-0.23746143316328525,-0.2963841622531414,0.2902666292209178
1772555467852148500,1.3581484375,-0.253536369651556,-0.28911110251024363,0.3605150544453412
1772555467862080500,1.36808056640625,-0.2687432911336422,-0.2701271467074752,0.3876823167037219
1772555467872012300,1.37801220703125,-0.2678016263693571,-0.2381698736935854,0.3461032653963193
1772555467881944300,1.3879443359375,-0.24452947185337542,-0.19325345812439917,0.2935997739653103
1772555467891876400,1.39787646484375,-0.21638123573362825,-0.13190920097604394,0.2604093972261995
1772555467901808400,1.407808349609375,-0.177654906976223,-0.08676964417546987,0.26280367195159193
1772555467911739400,1.417739501953125,-0.09500643438398837,-0.05552125008329749,0.21929220954319462
1772555467921671400,1.42767138671875,-0.0308913973480463,-0.049807402481138706,0.15735815154183655
1772555467931603500,1.437603515625,0.025179449442028996,-0.042348318646848196,0.1000419534663204
1772555467941535500,1.447535400390625,0.06626257045865058,-0.02848652816340327,0.05977137267529033
1772555467951467500,1.457467529296875,0.1277098495900631,-0.0013517068699002265,0.039089152454119175
1772555467961399600,1.467399658203125,0.21627777535915374,0.00802066323980689,-0.02052427144679241
1772555467971330300,1.477330322265625,0.24780805513262746,-0.003169569946825504,-0.1101488392625004
1772555467981262300,1.487262451171875,0.15674129828512667,-0.006000701719522476,-0.21421307964799924
1772555467991194400,1.4971943359375,0.052366147053241725,0.025713702449202538,-0.2912536857631989
1772555468001126400,1.50712646484375,0.013768997633457182,0.11134411346167325,-0.35007089038565753
1772555468011058700,1.51705859375,0.04012216702997684,0.1680206710599363,-0.3907428002528846
1772555468020990500,1.526990478515625,0.04698270044922828,0.18185367384031415,-0.4149318504180759
1772555468030922500,1.536922607421875,0.034816461837291715,0.16977438285946844,-0.41040604355670507
1772555468040853500,1.546853515625,0.04163198707103729,0.1477398073144257,-0.39743126504085957
1772555468050785500,1.55678564453125,0.06769172647893429,0.12575140899866818,-0.36130390326809136
1772555468060717600,1.566717529296875,0.09888064546883106,0.09894479674622415,-0.33043000504411757
1772555468070649300,1.5766494140625,0.08239537461400032,0.04085764169767499,-0.29917662424957375
1772555468080581400,1.586581298828125,0.04695113626718521,-0.02242313647121191,-0.29127262792568653
1772555468090513400,1.596513427734375,-0.013005612045526504,-0.049761371382325885,-0.276584743615333
1772555468100445400,1.606445556640625,-0.05758651205003261,-0.048002837277203794,-0.24435060815513132
1772555468110376400,1.61637646484375,-0.0830628986120224,-0.03951324135139584,-0.19553185138516127
1772555468120308500,1.62630859375,-0.10034428828060626,-0.015831044729799033,-0.13765205547697842
1772555468130240500,1.636240478515625,-0.10700374616980551,0.0011443477295339107,-0.08181182083869352
1772555468140172500,1.646172607421875,-0.10679507185518741,0.01660685140788555,-0.03819795750174671
1772555468150104600,1.6561044921875,-0.09261164820194244,-0.010732552547007798,0.01694519825046882
1772555468160036600,1.66603662109375,-0.10377250916361808,-0.05840104330331087,0.06000540976002812
1772555468169967400,1.67596728515625,-0.11904489709734915,-0.10010244234874843,0.14265008295997977
1772555468179899400,1.6858994140625,-0.11849953817427157,-0.11033055250495671,0.2394411722710356
1772555468189831400,1.69583154296875,-0.09192717306911945,-0.10383856013715266,0.3106443774696439
1772555468199763500,1.705763427734375,-0.06550152295827866,-0.08106544118449091,0.3033612712567672
1772555468209695500,1.715695556640625,-0.05978431435525417,-0.04686725737601519,0.27694100970709695
1772555468219627300,1.725627197265625,-0.024536475363373753,-0.006179857678711414,0.23993003350021316
1772555468229559300,1.735559326171875,0.04382043702602386,0.045849166374653576,0.17248932264028116
1772555468239490600,1.745490478515625,0.10882686994373798,0.117643651997298,0.0913725713936612
1772555468249422600,1.755422607421875,0.13738017973303793,0.1570053560487926,0.031264285781048236
1772555468259354400,1.765354248046875,0.14834288777410984,0.16659633734524248,-0.01604139954484999
1772555468269286400,1.775286376953125,0.1366027656197548,0.19108298221752046,-0.04836834612134844
1772555468279218400,1.785218505859375,0.09406243153214454,0.17588672825992108,-0.060030087543558326
1772555468289150500,1.795150390625,0.013802315381169319,0.15142828656882046,-0.020409348963387308
1772555468299081500,1.80508154296875,-0.04951543379724026,0.1572888491652906,0.04880492917401716
1772555468309013200,1.81501318359375,-0.1073614735662937,0.16870105453953146,0.12321445613326504
1772555468318945300,1.8249453125,-0.1215045652091503,0.16359160257130861,0.16668012490486725
1772555468328877600,1.834877685546875,-0.0663181000381708,0.16781711131185292,0.1612757451106794
1772555468338809600,1.8448095703125,0.02377075168788433,0.15851999839544295,0.13123163050804287
1772555468348741600,1.85474169921875,0.10634089834690093,0.1345499247431755,0.0788101913372986
1772555468358672400,1.86467236328125,0.12570552403032778,0.07322817168757319,0.05823772423407063
1772555468368604400,1.8746044921875,0.14318915827274323,0.040238779146969314,0.057297374644037335
1772555468378536400,1.884536376953125,0.1591805081307888,0.01355287066474557,0.07887792281126603
1772555468388468500,1.894468505859375,0.12656184859871863,-0.034226971511542796,0.10647479039225727
1772555468398400500,1.904400390625,0.11565116300582885,-0.05982610767036676,0.13461833207057788
1772555468408332300,1.914332275390625,0.11340309181809424,-0.06696969581469893,0.12701194872008637
1772555468418264300,1.924264404296875,0.1437345171958208,-0.09040157093703746,0.08924116712184622
1772555468428195600,1.934195556640625,0.15981354533731937,-0.10135565728023647,0.02735312195299193
1772555468438127600,1.944127685546875,0.1600952848881483,-0.11555720111206173,-0.018159378079511224
1772555468448059100,1.95405908203125,0.11998714638352394,-0.10585559904798865,-0.04230491789653897
1772555468457991200,1.9639912109375,0.06148819566369056,-0.08051599060818553,-0.028436989933252332
1772555468467923200,1.973923095703125,-0.00811199478507042,-0.06097571609690785,-0.01189803439611569
1772555468477855200,1.983855224609375,-0.07739245176017284,-0.0389627678617835,-0.05436331221982836
1772555468487786000,1.993785888671875,-0.09958382530212402,0.0026965456075966356,-0.09222790958136319
1772555468497718000,2.003718017578125,-0.11460896047651767,0.02559226802662015,-0.12404242225685157
1772555468507650000,2.013650146484375,-0.15949907256066798,0.0123271282620728,-0.1632289432713762
1772555468517582000,2.02358203125,-0.26378186933398245,-0.007096826393157243,-0.1585939038818702
1772555468527513900,2.033513916015625,-0.3499281209141016,0.0007869125939905643,-0.10699854940488003
1772555468537446100,2.043446044921875,-0.40832361125946043,-0.007457184138149023,-0.03559560211678035
1772555468547378200,2.053378173828125,-0.43506957936584945,-0.054675154647976155,0.04080939124231227
1772555468557309200,2.06330908203125,-0.4279483491837978,-0.09403262091577053,0.12625520293549633
1772555468567241200,2.0732412109375,-0.3606967676877975,-0.1343237147718668,0.2264900486254133
1772555468577173000,2.083173095703125,-0.24347382532060144,-0.18633213442862032,0.30111128210658206
1772555468587105000,2.09310498046875,-0.11109247678816318,-0.2247365377552807,0.35441863726638256
1772555468597037000,2.103037109375,-0.009568038812279701,-0.2545538761310279,0.38941787179205567
1772555468606969000,2.112968994140625,0.10165887801051139,-0.26427505967840553,0.4248260889774188
1772555468616900000,2.122900146484375,0.1817237638503313,-0.2486392452597618,0.4210839433070272
1772555468626832100,2.13283203125,0.21452654777765273,-0.23182532697245478,0.40352636704556644
1772555468636764200,2.14276416015625,0.22324060010910032,-0.19643252655193208,0.3521715524593368
1772555468646696200,2.1526962890625,0.17349544920921325,-0.1593864059664309,0.3001359525347128
1772555468656628200,2.162628173828125,0.09789514156281948,-0.1265549804665148,0.2612863261912018
1772555468666560300,2.172560302734375,0.0062111295998096465,-0.08659355695620179,0.20489052176307887
1772555468676492000,2.182491943359375,-0.0943342342108488,-0.027402093927562234,0.14855652139163575
1772555468686423000,2.192423095703125,-0.14036825563311575,0.016144494593143464,0.09417419394408352
1772555468696355000,2.20235498046875,-0.14821546200215815,0.046713674249500035,0.052057446430251
1772555468706287000,2.212287109375,-0.1522387261688709,0.06136544606685638,0.017549255957687273
1772555468716219100,2.22221923828125,-0.13757657908797263,0.04819792145788669,-0.007270465927012264
1772555468726151000,2.23215087890625,-0.08901508501470089,0.03506955981552601,-0.005974389101332053
1772555468736083000,2.2420830078125,0.00047755438387393946,0.0201709736302495,-0.009861523599829523
1772555468746014200,2.25201416015625,0.09252455444037913,-0.00034559856727719307,-0.06721560600032098
1772555468755946200,2.2619462890625,0.12409224361479282,-0.023911767593771217,-0.1439500870421063
1772555468765878300,2.271878173828125,0.0662532181084156,-0.032653730845451354,-0.16811099795820192
1772555468775810000,2.28181005859375,0.02282616431415081,-0.0023909867897629737,-0.1604883027937263
1772555468785742000,2.2917421875,0.018477905976772308,0.014912906971573828,-0.13998649890706874
1772555468795674000,2.301674072265625,0.054931613627076145,0.007051818207651377,-0.15272533150888049
1772555468805605000,2.311605224609375,0.11870236726999282,-0.005911562131345272,-0.18014875135226174
1772555468815537000,2.321536865234375,0.16602642850279806,-0.01820025807917118,-0.20710859967134893
1772555468825469000,2.331468994140625,0.21704875973165033,-0.04597366953715682,-0.2199683004401624
1772555468835401000,2.34140087890625,0.24647242261469363,-0.07298515671193599,-0.22016700135003775
1772555468845333000,2.3513330078125,0.2176654303252697,-0.09854498377367854,-0.19137551715699955
1772555468855265000,2.36126513671875,0.14325111759304998,-0.09988134694397449,-0.14350948540144598
1772555468865197000,2.371197021484375,0.08943535625338554,-0.10766557107940315,-0.0898953841137234
1772555468875128000,2.381128173828125,0.03763268830180168,-0.10280760965421795,-0.08863391281054354
1772555468885060000,2.39106005859375,-0.020272388178110123,-0.09091551180854439,-0.090569840176031
1772555468894992100,2.4009921875,-0.07741174098253249,-0.05145195481777191,-0.09917135377740487
1772555468904924200,2.410924072265625,-0.1286602821826935,-0.007527619025856256,-0.09911032603885978
1772555468914856200,2.420856201171875,-0.16758242577314375,0.0045674540460109705,-0.11604303013393655
1772555468924788000,2.4307880859375,-0.21463877598047254,0.003994622594118118,-0.12391238440270536
1772555468934719000,2.440718994140625,-0.2849848163604736,-0.021348346846550702,-0.10556346596730873
1772555468944651000,2.450651123046875,-0.3071972326904535,-0.045691053203493356,-0.059692727081663906
1772555468954583300,2.460583251953125,-0.28933541278541086,-0.04158084140568971,-0.007036834126006579
1772555468964515300,2.470515380859375,-0.2816664855927229,-0.07412979670241475,0.0008981909487396478
1772555468974447000,2.480447021484375,-0.23957038814127443,-0.09263473681658506,-0.010893033488478976
1772555468984379100,2.490379150390625,-0.16926935594677925,-0.08930223139300941,-0.016350054502068088
1772555468994311200,2.500311279296875,-0.04932955583631992,-0.05484145112559199,-0.028034512362873645
1772555469004242200,2.5102421875,0.048593058255314826,-0.02908025627285242,-0.062020416543981986
1772555469014174000,2.520174072265625,0.14414251347482204,-0.004230331046134233,-0.10638251813207752
1772555469024106000,2.53010595703125,0.20857728398442268,-0.0011252046376466751,-0.15860552125442773
1772555469034038000,2.5400380859375,0.20421616616547106,0.004440320535004138,-0.2177353720226325
1772555469043970000,2.549969970703125,0.17628478766679762,0.0168508892968297,-0.25152126696947963
1772555469053902000,2.559902099609375,0.1571890420526266,0.048043023157119745,-0.2693738989210687
1772555469063833000,2.5698330078125,0.11933365091085434,0.06027881987392902,-0.2426297026466578
1772555469073765000,2.57976513671875,0.11600655231475829,0.058959261707961556,-0.18389654131215064
1772555469083697200,2.589697265625,0.15244564691781998,0.023170155446231362,-0.1324131684428081
1772555469093629200,2.599629150390625,0.1978226657360792,-0.019935557439178228,-0.09241291989260353
1772555469103561200,2.609561279296875,0.24085107560157776,-0.05881824580207467,-0.06889777780044823
1772555469113493200,2.6194931640625,0.2400023498177528,-0.11014219032600521,-0.05911173972277902
1772555469123425000,2.629425048828125,0.14103168797791002,-0.16159458353519437,-0.04928297218165826
1772555469133356000,2.63935595703125,0.036922494205832476,-0.19686799535974858,-0.020071924569411204
1772555469143288000,2.6492880859375,-0.03896598273217678,-0.1858322220824659,0.009649645831261296
1772555469153220000,2.65922021484375,-0.06908581118583679,-0.15373217959702015,0.014458730038354406
1772555469163152000,2.66915185546875,-0.0967050549954176,-0.13312719846367835,0.015605743507365695
1772555469173084000,2.679083984375,-0.1325409230083227,-0.1451873463526368,0.02113153489124961
1772555469183016000,2.689015869140625,-0.14742168127596378,-0.11308671934530139,0.014410441908729262
1772555469192947200,2.698947265625,-0.15169219820201396,-0.09281476955860853,0.019316592140484135
1772555469202879200,2.708879150390625,-0.19781740503907203,-0.09588131752237677,0.04534958738863933
1772555469212811000,2.71881103515625,-0.24713000974059104,-0.11150251889377832,0.07896382012958637
1772555469222743000,2.728742919921875,-0.2642196762293577,-0.10222571811303496,0.09532332744658924
1772555469232675000,2.738675048828125,-0.2612181563258171,-0.0769695501729846,0.08866357729644514
1772555469242607000,2.748607177734375,-0.24856618002355096,-0.08147899042144417,0.07648761644151526
1772555469252538000,2.7585380859375,-0.28169863429665565,-0.09400763260498643,0.07705517349666915
1772555469262470000,2.768469970703125,-0.3193202166825533,-0.09892945304661989,0.06371051592223811
1772555469272402200,2.778402099609375,-0.35741526179909705,-0.08374182078689336,0.05764853073584381
1772555469282334200,2.788334228515625,-0.3661614628344774,-0.040892274619638916,0.03492620125550311
1772555469292266200,2.798266357421875,-0.352376098588109,-0.00025178280398249623,0.009188154382910579
1772555469302198300,2.8081982421875,-0.3316103739351034,0.04372150669619441,-0.002875306557852309
1772555469312130000,2.818130126953125,-0.24132629189789293,0.08221475735008717,-0.023833510159212163
1772555469322061000,2.82806103515625,-0.12435761655271052,0.10251929423213005,-0.06859378531861585
1772555469331993000,2.8379931640625,0.021069091513752938,0.10732201833873986,-0.10168624094147234
1772555469341925000,2.847925048828125,0.16813304539322851,0.10114712909609079,-0.12182742222165688
1772555469351857200,2.857857177734375,0.32824352785050864,0.06750994017124176,-0.1057584405501373
1772555469361789000,2.867788818359375,0.4806675474584102,0.0030690321817994116,-0.11316845194515772
1772555469371721000,2.877720947265625,0.5960340483039617,-0.042432489798963066,-0.10876854561893269
1772555469381652200,2.88765234375,0.6485153461694717,-0.0914447963796556,-0.09086637543719261
1772555469391584300,2.897584228515625,0.6586264058172703,-0.13166428630426524,-0.055279513749293976
1772555469401516300,2.907516357421875,0.6262871477484703,-0.1638959923453629,-0.03812350402604788
1772555469411448000,2.917447998046875,0.5417307957082986,-0.17095095235817134,-0.04277975973351858
1772555469421380000,2.927380126953125,0.414396793693304,-0.16436149096526204,-0.0360244311212562
1772555469431312100,2.93731201171875,0.29454350282251834,-0.1552710796020925,0.0023829039480071515
1772555469441243600,2.94724365234375,0.22528993385434148,-0.1445155115056783,-0.0036538463324308395
1772555469451175700,2.95717578125,0.1637070456445217,-0.13974018686264753,-0.0020518088301178065
1772555469461107500,2.967107421875,0.0750192928880453,-0.1526551980152726,0.008073882131231948
1772555469471039500,2.97703955078125,-0.003989361897110939,-0.17037804784104227,0.041439295776840294
1772555469480971500,2.986971435546875,-0.08809738564789295,-0.1895204090759158,0.06543599257455207
1772555469490903600,2.996903564453125,-0.17888474103212357,-0.1917325321674347,0.08698112236852758
1772555469500835600,3.006835693359375,-0.24942075102627276,-0.19338694831095635,0.06490121441099327
1772555469510766600,3.0167666015625,-0.31290275085568425,-0.18414309995174408,0.04048095387239009
1772555469520698600,3.02669873046875,-0.38049101696014404,-0.1794637099638581,0.04878141586768906
1772555469530630700,3.036630615234375,-0.44266427227854727,-0.16829576167427002,0.07597372580235824
1772555469540562700,3.046562744140625,-0.4824766427069902,-0.14847535504736006,0.09629098516865633
1772555469550494700,3.05649462890625,-0.5031190332412719,-0.14662475874461234,0.10853976923120208
1772555469560426500,3.066426513671875,-0.4864759414762258,-0.12985899044796823,0.07331203231243416
1772555469570357500,3.076357421875,-0.4250310004323721,-0.107822515206784,-0.008519105148082599
1772555469580289500,3.08628955078125,-0.3584849368572235,-0.08819456241205334,-0.0783184074986726
1772555469590221600,3.0962216796875,-0.27000702745914457,-0.026882161706686017,-0.11000764069352298
1772555469600153600,3.106153564453125,-0.17654899156093595,0.008789674850925803,-0.1209566672691144
1772555469610085400,3.11608544921875,-0.077964698690176,0.029419278968870637,-0.1510393329170067
1772555469620017400,3.126017333984375,-0.014898293924331665,0.033014088590443136,-0.15879344504196197
1772555469629948700,3.13594873046875,0.018409516915678978,0.022085355884209273,-0.15446485951943323
1772555469639880700,3.145880615234375,0.04190554331541061,-0.009020341801643371,-0.11841979660210199
1772555469649812700,3.155812744140625,0.015045008918642997,-0.027568755731359123,-0.06750582111855037
1772555469659744500,3.16574462890625,-0.018638064974546432,-0.0029261896450072525,-0.0044042902403976765
1772555469669676500,3.175676513671875,-0.07832359513044357,0.0026389702014625073,0.06704829574255272
1772555469679608600,3.185608642578125,-0.15985504639148712,0.044826910654827946,0.1332619946913328
1772555469689540600,3.19554052734375,-0.24173019652366637,0.09570150397606193,0.16184947161171584
1772555469699471400,3.205471435546875,-0.3393605496704578,0.1325139619361609,0.1733811021145433
1772555469709403400,3.2154033203125,-0.40418928793370723,0.15865115049444137,0.21474406298585236
1772555469719335700,3.225335693359375,-0.42440497748851774,0.17071085999198257,0.2825874728951603
1772555469729267700,3.235267822265625,-0.41253099982142444,0.17342201864682136,0.3611442191943526
1772555469739199700,3.24519970703125,-0.3277899388641119,0.15909940571859477,0.43211719583366065
1772555469749131800,3.2551318359375,-0.1443967804968357,0.10796937633156775,0.4503517580412328
1772555469759062500,3.2650625,0.06588906097114086,0.02445610360354185,0.4122495525315404
1772555469768994600,3.27499462890625,0.2784673972904682,-0.07530709685347974,0.33824411286115647
1772555469778926600,3.284926513671875,0.4561737421929836,-0.13537198171578346,0.24388879932966082
1772555469788858600,3.294858642578125,0.5691758519947528,-0.16122195083051918,0.15334261402385307
1772555469798790700,3.304790771484375,0.5571802937746048,-0.164128924318403,0.06914045484936795
1772555469808722400,3.314722412109375,0.48511108286380766,-0.14236096382029353,0.002794151630019769
1772555469818653700,3.32465380859375,0.37322716343700885,-0.09860131707079708,-0.021925881873024626
1772555469828585700,3.334585693359375,0.19556641124188898,-0.03944024918042123,0.0038288923720829187
1772555469838517800,3.344517822265625,0.03731295482814312,-0.008839578407257794,0.05865219591963104
1772555469848449800,3.35444970703125,-0.070471128064394,0.008147431424632668,0.10034147526901215
1772555469858381600,3.364381591796875,-0.09947451970875262,0.048228243530914185,0.12846010170178487
1772555469868313600,3.374313720703125,-0.05548398681282997,0.0818039115268737,0.10758005735357291
1772555469878245600,3.38424560546875,0.043296120890974996,0.11499489105418324,0.05582139750707429
1772555469888176600,3.3941767578125,0.16505086146891115,0.1311157855760306,-0.04000169158861972
1772555469898108400,3.4041083984375,0.21024434041380882,0.1299451343614608,-0.1657489084693603
1772555469908040400,3.41404052734375,0.18445231203138826,0.12716843618974089,-0.2670138917914592
1772555469917972500,3.423972412109375,0.11597966430783271,0.12384674442112445,-0.3089587259376421
1772555469927904500,3.433904541015625,0.003734510353207588,0.10208850159943103,-0.33323344509229064
1772555469937836500,3.44383642578125,-0.1272170976370573,0.07992043586783111,-0.34822003835458304
1772555469947767600,3.453767578125,-0.16758359481692314,0.09150660956948994,-0.346207821749337
1772555469957699600,3.463699462890625,-0.15568506723046302,0.12137589732818305,-0.3483011407667771
1772555469967631600,3.473631591796875,-0.14843348866701125,0.14456585345342754,-0.3381230802973732
1772555469977563600,3.483563720703125,-0.13742752600610256,0.15765812086910008,-0.2930099000470713
1772555469987495700,3.49349560546875,-0.07238076107800007,0.15180449947007,-0.21703515133140608
1772555469997427700,3.503427734375,-0.03216039437055587,0.1273891662683338,-0.13170985161219723
1772555470007358500,3.5133583984375,-0.0490080687969923,0.08343472759909927,-0.009100599397043697
1772555470017290500,3.52329052734375,-0.046328620454669,0.03253543822802603,0.09072790768141857
1772555470027222500,3.533222412109375,-0.010536007061600685,-0.02036971107274294,0.16114349703313782
1772555470037154600,3.543154541015625,0.037513445836305614,-0.043088177228718993,0.16522086600726468
1772555470047086600,3.553086669921875,0.06011281565725803,-0.05511581108756363,0.13103903054539112
1772555470057018600,3.5630185546875,0.08517711428701877,-0.0558480708848685,0.08626140239238739
1772555470066950700,3.57295068359375,0.1012228246808052,-0.03971585125140845,0.05157409249325282
1772555470076881700,3.582881591796875,0.11365385170876979,0.005532134359702468,0.01843302565542981
1772555470086813700,3.592813720703125,0.11277414626479149,0.039234716670960186,0.012160439058812334
1772555470096745500,3.602745361328125,0.11959317862987517,0.041017289238795634,-0.03294457615134306
1772555470106677500,3.612677490234375,0.0911141031205654,0.018004516311362385,-0.08252320224475115
1772555470116609500,3.622609619140625,0.0446510426312685,-0.01381312903612852,-0.12298931474103592
1772555470126541600,3.63254150390625,-0.012370821273326874,-0.0068132602114230395,-0.11685251075276173
1772555470136472600,3.64247265625,-0.04331541011333465,0.017624430952593684,-0.0692730317204725
1772555470146404600,3.652404541015625,-0.10463818608224391,0.04875482468828558,-0.015522417172044514
1772555470156336600,3.662336669921875,-0.1516951208114624,0.04936711136773228,0.019454477657657114
1772555470166268700,3.6722685546875,-0.1607622243642807,0.04301080114357173,0.01173310789167881
1772555470176200700,3.68220068359375,-0.15101298376619815,0.045290801839530465,0.012296970585826784
1772555470186132700,3.6921328125,-0.1430155552715063,0.04896525256857276,0.04044128858228214
1772555470196063500,3.7020634765625,-0.12489186955988406,0.03478204811103642,0.06243203411875292
1772555470205995500,3.71199560546875,-0.08252338490784168,0.04862542615495622,0.1194816262804903
1772555470215927600,3.721927490234375,-0.019927520263195036,0.060361821982264516,0.16248862803177908
1772555470225859600,3.731859619140625,0.05413374124765396,0.04164879207536578,0.1573962550625205
1772555470235791600,3.74179150390625,0.13579086471498011,0.017419409899786114,0.12555837064459918
1772555470245723400,3.751723388671875,0.19055179795026778,-0.0009560586158186197,0.0511815221122466
1772555470255655400,3.761655517578125,0.19613924269378183,0.02737074894122779,-0.033453849980887025
1772555470265586700,3.771586669921875,0.18281214360892772,0.08318060670755803,-0.0981502945008222
1772555470275518700,3.781518798828125,0.11935469369888305,0.12521240675114095,-0.18429894810058176
1772555470285450800,3.79145068359375,0.034815292793512344,0.14937588408365846,-0.2391423902538605
1772555470295382500,3.801382568359375,-0.030564065089821815,0.15507752979137002,-0.24170250479914246
1772555470305314600,3.811314453125,-0.07734685905277729,0.1710074317857623,-0.21677063691001383
1772555470315246600,3.82124658203125,-0.11765958021879196,0.14129501508921383,-0.16100450868755578
1772555470325177600,3.831177490234375,-0.10218494771122932,0.08763006039708852,-0.09418245944892988
1772555470335109600,3.841109619140625,-0.04933189392387867,0.02221095502525568,-0.039836125763365995
1772555470345041400,3.85104150390625,0.0003442833930253982,-0.017852467554807662,0.025543889707094057
1772555470354973400,3.860973388671875,0.043002106380462646,-0.034596389345824714,0.0486482590412721
1772555470364905500,3.870905517578125,0.06705225953161716,-0.05938435525223613,0.009874026888376101
1772555470374837800,3.880837646484375,0.02669336113631725,-0.07793664163947105,-0.04091017560251057
1772555470384768500,3.8907685546875,-0.05778408044874668,-0.08556172969043255,-0.08271722697950899
1772555470394700500,3.900700439453125,-0.17231997568905352,-0.06490414158701896,-0.12471521608503534
1772555470404632600,3.910632568359375,-0.2773784330099821,-0.00008957797959446906,-0.15848215060308574
1772555470414564600,3.920564697265625,-0.31766543521285057,0.05942950956821441,-0.18615931687867268
1772555470424496600,3.93049658203125,-0.3241635650604963,0.10219926849752664,-0.20899673323919996
1772555470434428700,3.9404287109375,-0.29095746102929115,0.13490319516025484,-0.19725195317603647
1772555470444359200,3.950359130859375,-0.22235621849000453,0.15756138249635696,-0.1852949003353715
1772555470454291200,3.960291259765625,-0.1377396606951952,0.1620003878571093,-0.14818464673878623
1772555470464223200,3.97022314453125,-0.06561375116109848,0.15494447799623012,-0.10302494219932705
1772555470474155300,3.9801552734375,0.005036825123429298,0.1524870749067515,-0.08562060200450941
1772555470484087300,3.99008740234375,0.08610182791650295,0.16785094051621854,-0.07112825853256509
1772555470494019000,4.00001904296875,0.1559077700704336,0.1712180788617581,-0.06576996463611721
1772555470503951000,4.009951171875,0.19272972651123998,0.16423326147571204,-0.04903689303267747
1772555470513882000,4.019882080078125,0.1940969232112169,0.12742409145124256,-0.010841401482652871
1772555470523814100,4.029814208984375,0.1922591863900423,0.08672448985949158,0.025220292909070848
1772555470533746200,4.03974609375,0.211648361992836,0.06361256740652024,0.0667899188010022
1772555470543678000,4.049677978515625,0.21701251937448976,0.04875007544793188,0.12276921485010533
1772555470553610000,4.05960986328125,0.21535598433911798,0.046129517685994506,0.16583244030065833
1772555470563542000,4.0695419921875,0.19372575181126594,0.02129318259321153,0.19447773922234773
1772555470573473300,4.079473388671875,0.1600911932349205,-0.012797376122325657,0.21198555805794894
1772555470583405000,4.089405029296875,0.10671791496574878,-0.04985241066664457,0.24505338612962513
1772555470593337000,4.099337158203125,0.010142039307951926,-0.08487849666662514,0.30825342721249904
1772555470603269000,4.10926904296875,-0.08632277719080447,-0.10997947404496371,0.3984180110558867
1772555470613201200,4.119201171875,-0.12986089014410973,-0.13215331193022428,0.4373247744141146
1772555470623133200,4.12913330078125,-0.1274830550968647,-0.15735665370449423,0.4497713643373921
1772555470633064000,4.13906396484375,-0.10547755951583385,-0.19307152568623423,0.42489842356126756
1772555470642996000,4.148995849609375,-0.07641513116061686,-0.20895400834232566,0.38358248016946017
1772555470652928000,4.158927978515625,-0.051103579771518706,-0.21262634017951784,0.33117534351870415
1772555470662860000,4.168860107421875,-0.04903261871635914,-0.18551826076246797,0.3138021473808214
1772555470672792300,4.178792236328125,-0.015772154149413107,-0.1535036315381527,0.2883093942059204
1772555470682724400,4.188724365234375,0.05653963334560394,-0.1222234540682286,0.25499297993434594
1772555470692655000,4.198655029296875,0.12817863614559172,-0.12932495663650334,0.22889643391370773
1772555470702587100,4.208587158203125,0.18142507316470144,-0.14196085858680307,0.1743604685407132
1772555470712519200,4.218519287109375,0.21782032862603662,-0.16908493929058313,0.11054337327172979
1772555470722451200,4.228451171875,0.1867161653101444,-0.19708039600141344,0.0388581019109115
1772555470732383200,4.23838330078125,0.09486439556479453,-0.18966661261357365,-0.015955246498202905
1772555470742315000,4.24831494140625,-0.018072832307219504,-0.16367219352684914,-0.052380778366792946
1772555470752247000,4.2582470703125,-0.08091185805797577,-0.11118256622441113,-0.07427567144650965
1772555470762178300,4.26817822265625,-0.13224807754158974,-0.08249759287945926,-0.10976453438634053
1772555470772110300,4.2781103515625,-0.16394319248795508,-0.07096154192984104,-0.1499950936942361
1772555470782042000,4.2880419921875,-0.1686257973462343,-0.06281513341851531,-0.18598533028494565
1772555470791974100,4.29797412109375,-0.17456746235489845,-0.05391293810382485,-0.17950800576331094
1772555470801906200,4.30790625,-0.21190262901484966,-0.03776164844371378,-0.1844971010211855
1772555470811838200,4.317838134765625,-0.24774083511531353,-0.008745105056837201,-0.21211926744021475
1772555470821769200,4.327769287109375,-0.28180677084624767,0.029328605010733005,-0.20071672494346274
1772555470831701000,4.337700927734375,-0.2862520598173141,0.05611592804081738,-0.19736103957369922
1772555470841633000,4.347633056640625,-0.25711539718210696,0.05524199475049972,-0.21400747407330198
1772555470851565000,4.35756494140625,-0.2028764419943094,0.04452091344557702,-0.2339936291885562
1772555470861497000,4.3674970703125,-0.177244572609663,0.03696136491149664,-0.27615353085752575
1772555470871429000,4.37742919921875,-0.1270727207303047,0.059674058913812035,-0.29237472568238154
1772555470881360100,4.387360107421875,-0.10281155517697334,0.08472250238731503,-0.26725756435422227
1772555470891292200,4.397292236328125,-0.1097714573174715,0.08769903398007153,-0.24768848387356845
1772555470901224200,4.40722412109375,-0.12227554958164691,0.07386332778595388,-0.2060061183221638
1772555470911156200,4.41715625,-0.09408873501718043,0.06586743366122245,-0.1756526272431016
1772555470921088300,4.427088134765625,-0.02688917596936226,0.054898807336017486,-0.1347159289598465
1772555470931020000,4.43702001953125,0.053364510440826414,0.013050985557213424,-0.11153676822325215
1772555470940951000,4.446950927734375,0.10224690703153609,-0.025158625849708915,-0.07577686978969722
1772555470950883000,4.456883056640625,0.11769289796650409,-0.06056932725310325,-0.06943628685763105
1772555470960815000,4.466815185546875,0.104024438098073,-0.06797923818342387,-0.053833315262664105
1772555470970747100,4.4767470703125,0.07211188100874423,-0.05918766363635659,-0.0438522660695482
1772555470980679000,4.486678955078125,0.045617257314920424,-0.04657024719081819,-0.01800437018088996
1772555470990611200,4.496611083984375,0.04839490533471107,-0.02095050663538277,0.028347959942929445
1772555471000542200,4.506542236328125,0.05682546454966068,-0.011899258238822222,0.0009562778115272521
1772555471010474200,4.51647412109375,0.03378302713632583,-0.006475260428711772,-0.05038098285170272
1772555471020406300,4.52640625,-0.006236848562955856,0.002776259780302644,-0.04968268012292683
1772555471030338000,4.536338134765625,-0.030208091259002683,0.0196066177457571,-0.031093331394623964
1772555471040270000,4.54627001953125,-0.0321375980168581,0.02705649536028504,-0.009873798559512943
1772555471050202000,4.5562021484375,-0.019532967987656594,0.014862565023824572,-0.027066633161809295
1772555471060133000,4.566133056640625,-0.007532733592391014,0.009224047680199146,-0.0020394882046617566
1772555471070065000,4.57606494140625,0.0296060337126255,0.020492533734813332,0.01966412008665502
1772555471079997200,4.5859970703125,0.043998131680488585,0.004664923071116209,0.000262724323105067
1772555471089929200,4.59592919921875,0.02127893487215042,-0.005508022831752896,-0.0035094328930601474
1772555471099861200,4.605861328125,0.006255553263425827,-0.00844414934888482,-0.004084766829293221
1772555471109793300,4.615793212890625,-0.013618775507807731,-0.003573839898779988,0.01637313398355618
1772555471119724000,4.62572412109375,-0.016748305705189703,0.004828589200228452,0.015534911327436566
1772555471129656000,4.635656005859375,-0.0010585691422224045,0.000020896657556295395,0.03640818800814449
1772555471139588000,4.645588134765625,0.0044803602844476695,-0.028869536131620407,0.057103441240824754
1772555471149520100,4.65552001953125,-0.008987608575820922,-0.030355244644731282,0.032790435902401806
1772555471159452200,4.6654521484375,-0.06346797130405903,-0.01146145134344697,0.010259181147906929
1772555471169384200,4.67538427734375,-0.12795008808672428,0.007949863025918602,-0.003402940311282873
1772555471179315200,4.685315185546875,-0.14670213482975958,0.047851226912066336,-0.007877437110524623
1772555471189247200,4.695247314453125,-0.13095745320916174,0.06013415070623159,-0.0008358297696337103
1772555471199179300,4.70517919921875,-0.1011924295425415,0.05235511420257389,-0.00321868805186823
1772555471209111300,4.715111328125,-0.06042904199957847,0.03545614798031747,-0.01404441704135388
1772555471219043000,4.72504296875,0.00602057546377182,0.0071015756335109466,-0.014876502217631786
1772555471228975000,4.73497509765625,0.05677753375470638,-0.021850378084555266,-0.017366145342588422
1772555471238906000,4.744906005859375,0.10996668762862681,-0.032968934274464845,-0.030459399138949808
1772555471248838100,4.754838134765625,0.14665186594724655,-0.04433313578851521,-0.04045183737576007
1772555471258770200,4.764770263671875,0.15145429779291153,-0.06239340087510645,-0.02352656766846776
1772555471268702000,4.774701904296875,0.12203940273821354,-0.08790003644488752,0.017758067269623277
1772555471278634000,4.784634033203125,0.055773909670114516,-0.11538038324043154,0.042216746422741556
1772555471288566000,4.79456591796875,-0.024558687195181846,-0.10589892673306167,0.09633938175449147
1772555471298497300,4.804497314453125,-0.10618073934912681,-0.12893676103651522,0.13290875167371705
1772555471308429300,4.81442919921875,-0.16163082389235495,-0.15019801412150263,0.14391042175199836
1772555471318361000,4.824361083984375,-0.24251579394340514,-0.14928608690835535,0.0981764609885402
1772555471328293000,4.834293212890625,-0.2920978632360697,-0.11734649568162858,0.08894441266497596
1772555471338225200,4.84422509765625,-0.2544768653720617,-0.09131203684546053,0.10651324097281321
1772555471348157200,4.8541572265625,-0.18915537515580652,-0.07583375107608735,0.08551679457016288
1772555471358088000,4.864087890625,-0.116516255402565,-0.0975888520926237,0.09602319194478913
1772555471368020000,4.87402001953125,-0.07107903082966804,-0.12915690659321843,0.1264782802348025
1772555471377952000,4.883951904296875,-0.08727379430532455,-0.15007365708947182,0.09922481926400215
1772555471387884000,4.893884033203125,-0.13879589174985885,-0.11740187913067639,0.06918459538519382
1772555471397816000,4.903816162109375,-0.139494979929924,-0.056365518887713545,0.054682716899923975
1772555471407748000,4.913748046875,-0.07790449293553829,0.008328048688545822,0.014160809962637721
1772555471417680100,4.92368017578125,0.012302432212233544,0.04126731847710907,-0.025483766150847076
1772555471427611100,4.933611083984375,0.1004997711032629,0.050369347212836146,-0.05493175975754857
1772555471437543200,4.943543212890625,0.1836702217429876,0.05708828020431101,-0.03227368201930076
1772555471447475700,4.953475830078125,0.2331055760413408,0.049939796689152716,-0.003786898127570748
1772555471457407700,4.96340771484375,0.2355985619008541,0.01679039128124714,0.013870923637971282
1772555471467339800,4.97333984375,0.22117080809772013,-0.00893770501948893,0.0033649098558351394
1772555471477270500,4.9832705078125,0.19951251851916313,-0.0041352001085877416,0.02514591249860823
1772555471487202600,4.99320263671875,0.16129764641523361,-0.005298617864772677,0.05173300024885684
1772555471497134600,5.003134521484375,0.07469955941438675,-0.019535086879506707,0.0539935655919835
1772555471507066600,5.013066650390625,0.0059796589314937585,-0.02247040967904031,0.07782879735082388
1772555471516998700,5.02299853515625,-0.008382043898105622,-0.004760638530552387,0.10141484012156725
1772555471526930700,5.0329306640625,0.003592471534013748,0.029308073679357765,0.10409929343257099
1772555471536861700,5.04286181640625,0.041275428718328476,0.02702252002544701,0.06786445269733667
1772555471546793700,5.052793701171875,0.08944646216928959,0.020292261922359466,0.0332447555411607
1772555471556725800,5.062725830078125,0.11740297510921954,0.00363967167660594,0.0238299710618332
1772555471566657800,5.07265771484375,0.1408633456736803,0.005265227051824331,0.009646693539060652
1772555471576589800,5.08258984375,0.14663842194378376,-0.007467047945037484,0.00014887041877955197
1772555471586521600,5.092521484375,0.09847557179927825,-0.03395063878819346,-0.016475151319615543
1772555471596452600,5.10245263671875,0.04074585188627243,-0.03372873966582119,-0.03200896666850894
1772555471606384600,5.112384521484375,-0.027240473625063894,-0.022189400780573486,-0.04688486609794199
1772555471616316700,5.122316650390625,-0.0838514186412096,-0.0017021277427673339,-0.02669752585478127
1772555471626248700,5.132248779296875,-0.11879121459722518,-0.002210296460613608,-0.015973375809937716
1772555471636180700,5.1421806640625,-0.13606675904691218,-0.01008994379453361,-0.011311850272305309
1772555471646112800,5.15211279296875,-0.11617255653142929,-0.01243877194300294,-0.011162979853525757
1772555471656043800,5.162043701171875,-0.06493102959394455,-0.01539060748592019,-0.030484478781279176
1772555471665975800,5.171975830078125,-0.01712006162703037,-0.02077982624359429,-0.025424966902006418
1772555471675907600,5.181907470703125,0.018057634738087653,-0.04922660691849887,-0.04722405319074169
1772555471685839600,5.191839599609375,0.004427753314375877,-0.06418174559660256,-0.06036443406445905
1772555471695771600,5.201771728515625,-0.0545329696983099,-0.06004625322706997,-0.025271712569054215
1772555471705703700,5.21170361328125,-0.153698861849308,-0.05120901290737092,0.009151420835405587
1772555471715635000,5.221635009765625,-0.21007775167524814,-0.046097953503951426,0.013387834562454373
1772555471725566700,5.231566650390625,-0.23469430653750895,-0.05005049052201211,-0.0025553653049282727
1772555471735498800,5.241498779296875,-0.23430735304653644,-0.055496773229166865,0.00495575924385339
1772555471745430800,5.2514306640625,-0.21005846245288848,-0.06621383594609796,0.02213401733152568
1772555471755362800,5.26136279296875,-0.14457622871696948,-0.08317651505433023,0.015402023929078131
1772555471765294800,5.271294921875,-0.07122574582397938,-0.10136632480472325,-0.019656594367325305
1772555471775225600,5.2812255859375,-0.006568272474408149,-0.11505202806890011,-0.03894238266088068
1772555471785157600,5.29115771484375,0.03936521118283272,-0.1189351531125605,-0.02343253270946443
1772555471795089700,5.301089599609375,0.039596681851148605,-0.09291567264981568,-0.00019508418068289756
1772555471805021700,5.311021728515625,0.01205810206234455,-0.06395853129997849,0.01084772162558511
1772555471814953700,5.32095361328125,-0.003525836038589477,-0.057731327348202466,0.03192580016339198
1772555471824885500,5.330885498046875,-0.019008651852607725,-0.05411335604675114,0.03436013290453702
1772555471834816800,5.340816650390625,-0.03871405379772186,-0.05053535142950713,0.046779104168526826
1772555471844748800,5.350748779296875,-0.04994447286427021,-0.06368132179379463,0.06063183456268161
1772555471854680800,5.360680908203125,-0.026641923210024832,-0.06114464292302727,0.03477631248999387
1772555471864612900,5.37061279296875,-0.002800444373488426,-0.019117007597908377,0.02597796114226803
1772555471874544600,5.380544677734375,-0.020894319468736648,-0.006499152760952711,0.0507646301407367
1772555471884476700,5.3904765625,-0.025704934620857236,-0.002959069001302123,0.03599182575959712
1772555471894407700,5.40040771484375,-0.03829261351525783,-0.010315350048243998,-0.003600782704632729
1772555471904339700,5.410339599609375,-0.04007423623502254,0.014440905545651911,-0.013980302296578883
1772555471914271700,5.420271728515625,-0.0271574715167284,0.05276574083007872,0.0043619032702408725
1772555471924203500,5.43020361328125,0.00003565583527088165,0.06357150474376976,0.0014470022042281925
1772555471934135600,5.440135498046875,0.007220014381408691,0.06698240916579962,-0.00796219278452918
1772555471944067800,5.45006787109375,-0.03498363509774208,0.05686733093000948,-0.008056921863276511
1772555471953998800,5.459998779296875,-0.07009761857688426,0.04887516313232481,0.009774776898138224
1772555471963930600,5.4699306640625,-0.05856850882470607,0.06148885325081646,0.005032258546166121
1772555471973862700,5.479862548828125,-0.0532955368578434,0.06809826145321131,-0.0023101035732775925
1772555471983794700,5.489794677734375,-0.017884616258740424,0.05472293931245804,-0.03852348139537498
1772555471993726700,5.499726806640625,0.010984335350990295,0.03276099061220884,-0.06116853525526821
1772555472003658800,5.50965869140625,0.006538461858034134,0.03777143918536603,-0.04692061326475814
1772555472013589500,5.519589599609375,0.023072832551598546,0.04784092471376061,-0.037369452522043135
1772555472023521500,5.529521484375,0.039921091499924656,0.06055471420586109,-0.030095004539657383
1772555472033453800,5.539453857421875,0.036710897281765936,0.05474273999147117,-0.03681795611912384
1772555472043385900,5.5493857421875,0.059089317828416824,0.037712548604980106,-0.04632328669242561
1772555472053318000,5.55931787109375,0.07627367686331271,0.04623648519180715,-0.07141909470530226
1772555472063250000,5.56925,0.10174480272829532,0.0511157086007297,-0.08208291113134474
1772555472073180700,5.5791806640625,0.08668693432807922,0.039583676239103076,-0.11789762675836682
1772555472083112700,5.58911279296875,0.03515899166464805,0.03034823038205504,-0.11556394138010218
1772555472093044700,5.599044677734375,-0.004701309558749199,0.034348698195070027,-0.09689261345677078
1772555472102976800,5.608976806640625,-0.05032441209256649,0.039281697617843746,-0.05968543882435187
1772555472112908500,5.618908447265625,-0.04942717099189758,0.012341887439787386,-0.05634095070203766
1772555472122840600,5.628840576171875,-0.019169395372271535,-0.008604016085714102,-0.08362531826775521
1772555472132771800,5.638771728515625,-0.00886836611032486,-0.013619213899224996,-0.07858098569130524
1772555472142703900,5.648703857421875,-0.0011585223853588103,-0.021866452436521647,-0.04158349002050236
1772555472152636000,5.658635986328125,-0.00008358663022518158,-0.030969650216028093,-0.02108114727772772
1772555472162567700,5.668567626953125,-0.020959785920381543,-0.04044277728646994,-0.01566555196978152
1772555472172499700,5.678499755859375,-0.03567395544946193,-0.02868628851920366,-0.011902308712434024
1772555472182431700,5.688431640625,-0.05324351440966129,-0.028451018458604812,-0.024350195543654262
1772555472192362800,5.69836279296875,-0.07981295690536498,-0.011262786966189741,-0.05823843662012368
1772555472202294800,5.708294677734375,-0.07064882271885871,0.009143895116075872,-0.05537389576816931
1772555472212226600,5.7182265625,-0.06687865653038025,0.02800612423531711,-0.04907567240679636
1772555472222158600,5.72815869140625,-0.07635492540597916,0.018878157340735197,-0.020515366621129214
1772555472232090600,5.738090576171875,-0.08594692961573601,0.017422259443998337,0.003085782387200743
1772555472242022700,5.748022705078125,-0.08849076887965202,0.010709829258546232,-0.01144734975285828
1772555472251953700,5.75795361328125,-0.06983633729219436,0.004851823945343494,-0.011343633650057017
1772555472261885700,5.7678857421875,-0.03159808431267738,0.017669658333808184,-0.00734044415699318
1772555472271817700,5.777817626953125,0.009324293184280396,0.013084376370161771,0.012262995250988751
1772555472281749800,5.787749755859375,0.027510522738099098,-0.007404065711423755,0.01690713126240298
1772555472291681800,5.797681884765625,0.06115326462090015,-0.018263751769438386,0.02839417370483279
1772555472301613800,5.80761376953125,0.0941775823444128,-0.02225289447084069,0.04321995038222521
1772555472311544600,5.817544677734375,0.11294891830980777,-0.0259092250213027,0.041839729803893715
1772555472321476600,5.8274765625,0.08963058656454086,-0.025845073743909597,0.052664253216981885
1772555472331408600,5.83740869140625,0.050473465174436564,-0.024048545715957877,0.0735468822479248
1772555472341340700,5.847340576171875,-0.007561959686875343,-0.015243088774010538,0.06341315411059185
1772555472351272700,5.857272705078125,-0.03187222507894039,0.0033428076218813656,0.06187401664350181
1772555472361204700,5.867204833984375,-0.05376315436959266,0.028014599802717564,0.05557263321066275
1772555472371135700,5.8771357421875,-0.05520984604656696,0.03122252899855375,0.049503560696355996
1772555472381067800,5.88706787109375,-0.006976268753409385,0.030396526503190396,0.02639178437385708
1772555472390999800,5.896999755859375,0.03791092072129249,0.026792729857563972,-0.00881024271491915
1772555472400931800,5.906931884765625,0.06860416514873505,0.008506693191081285,-0.017202040822058916
1772555472410863600,5.916863525390625,0.0842477244824171,0.008885682571306824,-0.027630093997158107
1772555472420795600,5.926795654296875,0.08152268343269825,0.0062668053098022935,-0.02794131537079811
1772555472430726700,5.9367265625,0.011050386324524878,-0.012372647904232143,-0.018063845283165573
1772555472440658700,5.94665869140625,-0.06205225928723812,-0.028460882265493273,-0.0027950740786269307
1772555472450590200,5.956590087890625,-0.10467033478617667,-0.035413843208551406,0.01151471590064466
1772555472460522200,5.966522216796875,-0.14462883568704127,-0.03678936934545636,-0.003636931730248034
1772555472470454300,5.976454345703125,-0.14975041648447512,-0.03180405521355569,-0.04184931961614638
1772555472480386300,5.98638623046875,-0.11467384240627287,-0.022854148299619553,-0.07545253320615739
1772555472490317000,5.996317138671875,-0.07585340562462806,-0.014860811458155512,-0.06630626346990466
1772555472500249000,6.0062490234375,-0.034739889469742775,-0.015615794543921946,-0.056152570256777105
1772555472510181000,6.01618115234375,-0.005247837525606155,-0.030549086716398596,-0.03911934666298329
1772555472520113200,6.026113037109375,0.010838789400458335,-0.04538425227664411,-0.014579327635653316
1772555472530045200,6.036045166015625,-0.018252280527353285,-0.07058627887666225,0.009098521604388952
1772555472539977200,6.045977294921875,-0.03828326116502285,-0.09377937680706382,0.031155856970511375
1772555472549908200,6.055908203125,-0.06166998197138309,-0.09152363376952707,0.0310905366493389
1772555472559840300,6.06584033203125,-0.05113982012867927,-0.07699344250522554,0.018703385295718907
1772555472569772300,6.075772216796875,-0.04889291798472404,-0.06038827159777283,-0.0010333616357296705
1772555472579704300,6.085704345703125,-0.038728082323074335,-0.04433065157048404,-0.019898330701328813
1772555472589636400,6.09563623046875,-0.018805238234996795,-0.02892674621157348,-0.019356661572679876
1772555472599568100,6.105568115234375,0.0033007951110601425,-0.02854870667941868,-0.013159268237277864
1772555472609499100,6.1154990234375,0.01699555846452713,-0.01563376859202981,-0.004070135515742004
1772555472619431200,6.12543115234375,-0.009176993668079376,-0.02228811191469431,0.020009901317022738
1772555472629363200,6.13536328125,-0.029992402681708333,-0.03843129133358598,0.023709340356849132
1772555472639295000,6.145294921875,-0.07799158669710159,-0.041000703430175776,0.02289575895164162
1772555472649227300,6.155227294921875,-0.1006605146229267,-0.02752506272010505,0.029260690873675048
1772555472659159300,6.1651591796875,-0.0776946495771408,0.01586107454188168,0.024631387105211615
1772555472669090300,6.17509033203125,-0.029635844328999517,0.033214725729078055,0.013294219728559254
1772555472679022300,6.185022216796875,0.027899229794740674,0.046161812520399685,0.008094970585033298
1772555472688954000,6.1949541015625,0.08287234447598457,0.038067937913909555,0.0008924918603152037
1772555472698886100,6.20488623046875,0.11300737049877643,0.03369322996102273,-0.005749138111248612
1772555472708818200,6.214818115234375,0.09894961905181407,0.015477043660357594,0.004199826310016214
1772555472718749200,6.224749267578125,0.07194120061695575,0.0018671090461313724,0.029578926509991287
1772555472728681200,6.23468115234375,0.007497077757120132,0.0013533143050968646,0.028856822780519722
1772555472738613200,6.24461328125,-0.06797638863921165,0.013895985013991594,0.03591580138131976
1772555472748545300,6.254545166015625,-0.10825286944806575,0.017742796635255218,0.05802673009820282
1772555472758477300,6.264477294921875,-0.12801730810403822,0.010209916912391781,0.07138773145265877
1772555472768409300,6.274409423828125,-0.1429629483014345,-0.005155702262744307,0.0874739565199241
1772555472778340000,6.284340087890625,-0.12612404170334338,-0.01435191208794713,0.10464154708310962
1772555472788272000,6.294272216796875,-0.09221358879506587,-0.03070493486523628,0.09701075994372367
1772555472798204200,6.3042041015625,-0.03876198459267616,-0.04783179155923426,0.0820786733476445
1772555472808136200,6.31413623046875,0.000006429740786552429,-0.06023461540602147,0.05610584503822028
1772555472818068200,6.324068115234375,0.01760638383924961,-0.05227342726849019,0.05283738129418343
1772555472828000300,6.334000244140625,0.020730068817734718,-0.044770431227236986,0.05541238288134336
1772555472837931300,6.34393115234375,-0.02672784792780876,-0.05331862547248602,0.049195261932164426
1772555472847863300,6.35386328125,-0.10156009381115436,-0.061885232157260175,0.04710395220872014
1772555472857795300,6.36379541015625,-0.13020400449335576,-0.04011661407202482,0.036653321875631806
1772555472867727400,6.373727294921875,-0.12380348980128765,-0.010959200909733771,0.05147559142168611
1772555472877659400,6.383659423828125,-0.08266951538026332,-0.006672536566480994,0.06321907457690686
1772555472887591200,6.393591064453125,-0.035576340293884276,-0.010625585041195153,0.05884250346049666
1772555472897522200,6.403522216796875,-0.018018471771478653,-0.023791502214968202,0.0359700888518244
1772555472907454200,6.4134541015625,-0.04711421787440777,-0.04029029013849795,0.04104446950666606
1772555472917386200,6.42338623046875,-0.05330488920807838,-0.03464395481459796,0.041068544501997525
1772555472927318300,6.433318359375,-0.06148118140101432,-0.03208747526481748,0.04915482032392174
1772555472937250000,6.44325,-0.07186579729318618,-0.021879531113803384,0.04525909152701497
1772555472947182000,6.45318212890625,-0.05823825395703315,-0.010527239233255386,0.017268603252246974
1772555472957113300,6.46311328125,-0.013821604603528976,0.015953867391869426,0.016143946603871882
1772555472967045400,6.47304541015625,0.05716390272378921,0.0297187733720988,-0.01684409422986209
1772555472976977200,6.48297705078125,0.06448153226077556,0.02903239854313433,-0.036102629190310834
1772555472986909200,6.4929091796875,0.05424421588480472,0.014203297397494315,-0.046614378593489526
1772555472996841200,6.50284130859375,0.028351065215468405,0.0258322873275727,-0.03417651996593922
1772555473006773200,6.512773193359375,-0.02208849768936634,0.035282691109552976,-0.0267260943621397
1772555473016704300,6.522704345703125,-0.0527811575949192,0.040824031689018006,-0.017178696479089556
1772555473026636000,6.532635986328125,-0.06363280647695065,0.05218479913696646,-0.011751995255239307
1772555473036568000,6.542568115234375,-0.05085808057785034,0.05890007886663079,-0.010609072297811507
1772555473046500000,6.5525,-0.029643443113565444,0.05040902163609862,-0.004767762391082942
1772555473056432000,6.56243212890625,-0.04613981988430023,0.04352057729661465,-0.009881707871332765
1772555473066364400,6.572364501953125,-0.04352466894984245,0.04170191050209105,-0.007442424960434436
1772555473076295200,6.582295166015625,-0.011434417206048965,0.06664769731871784,-0.004230732904933393
1772555473086227200,6.592227294921875,0.013633388555049895,0.06908771088197826,-0.02104596636649221
1772555473096159200,6.6021591796875,0.04222527678906917,0.06473521476089954,-0.0388209847709164
1772555473106091300,6.61209130859375,0.09085457540154457,0.06393252007588744,-0.026572693898715076
1772555473116023300,6.622023193359375,0.06882511442303657,0.05458842621259391,-0.028342005126178262
1772555473125955000,6.631955078125,-0.006539630901813507,0.03147584617249667,-0.016639876894652843
1772555473135886000,6.641885986328125,-0.04209551292955875,0.048524596128985284,0.00767623371630907
1772555473145818000,6.651818115234375,-0.05249474186897277,0.07712167199477553,0.026815014754608273
1772555473155750400,6.66175048828125,-0.036328035444021224,0.0801458421215415,0.028584033721126615
1772555473165682400,6.671682373046875,0.007821487405896187,0.044765462791174646,0.032946393649093804
1772555473175614200,6.6816142578125,0.06195639769732952,0.023059023221954703,0.04005363183841109
1772555473185546200,6.691546142578125,0.09978022465705871,-0.002704217457398772,0.05094669044306501
1772555473195477200,6.701477294921875,0.11759820542037486,-0.022040274633467197,0.06168348077377304
1772555473205409300,6.7114091796875,0.1042857193827629,-0.029382746350765227,0.0470206213068217
1772555473215341300,6.72134130859375,0.05947627131938934,-0.019104294246807693,0.031108729893155395
1772555473225273000,6.731273193359375,-0.003296703457832336,0.006313055604323744,0.04162672637403011
1772555473235205000,6.741205078125,-0.06705576666295528,0.00003507131338119507,0.049844958012551066
1772555473245137200,6.75113720703125,-0.07137655247151851,-0.014602891174331306,0.04409751866804436
1772555473255068400,6.761068359375,-0.1027957730859518,-0.02629376735948026,0.07061829971643165
1772555473265000200,6.771000244140625,-0.08911211564838886,-0.0578139641303569,0.08869273945884779
1772555473274932200,6.78093212890625,-0.06741875475645065,-0.08204458841495216,0.007169526303187013
1772555473284864300,6.7908642578125,-0.0709592038422823,-0.05408047669045627,-0.1290836952265352
1772555473294796300,6.80079638671875,-0.09033201283216476,-0.009111819477379322,-0.17128529887907207
1772555473304728300,6.810728271484375,-0.06685352208912372,0.021367563003674147,-0.15150518772993235
1772555473314659000,6.8206591796875,-0.03328910613954067,0.03261602918356657,-0.12524044553553684
1772555473324591000,6.830591064453125,0.010490998876094818,0.02212218076325953,-0.08434921209551394
1772555473334523100,6.840523193359375,0.024805355432629583,-0.017823314525559544,-0.03999804745996371
1772555473344455200,6.850455078125,-0.011689853271842002,-0.06014898294918239,-0.02393069148994982
1772555473354387200,6.86038720703125,-0.057216509693861,-0.07874065149873495,-0.015156743931118398
1772555473364319200,6.8703193359375,-0.12092238140702247,-0.08409552959538996,0.013105309560336172
1772555473374250200,6.880250244140625,-0.1557768371671438,-0.08430551908425986,0.01855798547565937
1772555473384182300,6.890182373046875,-0.1515945830464363,-0.0573528494246304,-0.052140558136440814
1772555473394114300,6.9001142578125,-0.10546177742481232,-0.00942417336218059,-0.12449611170794814
1772555473404046300,6.91004638671875,-0.04851473232209682,0.028754604515060782,-0.14579722187928854
1772555473413978000,6.91997802734375,-0.005493921241164207,0.05007599028944969,-0.16620742935920133
1772555473423910100,6.92991015625,0.008912789773941039,0.04838555298447609,-0.1709359739847481
1772555473433841200,6.939841064453125,0.015579261925816535,0.056385538762435315,-0.1360400719693862
1772555473443772700,6.949772705078125,0.014210311660170553,0.04524886239394545,-0.09776925016082823
1772555473453705000,6.959705078125,0.020509704065322876,0.003381166870892048,-0.050629459453746674
1772555473463637000,6.969636962890625,0.041350832042098044,-0.01351480367667973,-0.036008119307272136
1772555473473569000,6.979569091796875,0.09883680632710456,-0.0301980813216418,-0.015148871151916682
1772555473483501000,6.9895009765625,0.15959610319435596,-0.05632248346358537,0.01714819174297154
1772555473493431800,6.999431884765625,0.19163433248996734,-0.0808601278707385,0.010479710297100245
1772555473503363800,7.00936376953125,0.15051789372563362,-0.08351444177180528,-0.022906937932781875
1772555473513296000,7.0192958984375,0.05773030443489551,-0.04339176328517496,-0.008115063524991273
1772555473523228000,7.029227783203125,-0.06162205117642879,0.003566533375158906,0.017294066487066447
1772555473533159700,7.03915966796875,-0.09789981773793696,0.04840557285919785,-0.004912943015433847
1772555473543091000,7.049091064453125,-0.0790191761791706,0.07384966458678245,-0.03948014279939234
1772555473553023000,7.05902294921875,-0.06647825903594494,0.06066672321297228,-0.04968523740619421
1772555473562955000,7.068955078125,-0.030204584127664563,0.05073277369774878,-0.06480648989882319
1772555473572887000,7.078886962890625,-0.021041618984937668,0.033259076327458025,-0.0766232209533453
1772555473582818800,7.08881884765625,-0.04720072711408138,0.010277429190650582,-0.04463036516942084
1772555473592750800,7.098750732421875,-0.09381751686036587,0.011954787818342447,-0.027476218609698115
1772555473602681900,7.108681884765625,-0.13579378732442854,0.01586085534617305,-0.003693666886165738
1772555473612614000,7.11861376953125,-0.15209376474022865,0.03948964128009975,0.002892506571114063
1772555473622546000,7.1285458984375,-0.12586685207188128,0.04212722324207425,0.006730659961886704
1772555473632477700,7.138477783203125,-0.07868015348315238,0.01829809243045747,0.0060314256513491265
1772555473642409700,7.14840966796875,-0.014063596665859221,-0.011156696243211627,0.002009659321978688
1772555473652341800,7.158341796875,0.03541501225233078,-0.0038788141947239635,-0.015471052310988305
1772555473662273000,7.16827294921875,0.06484335131049156,-0.0026594284676015375,-0.0033278657810762525
1772555473672204800,7.178204833984375,0.07736614827513694,-0.01883154172003269,0.008113054230995476
1772555473682136800,7.18813671875,0.037570728981494904,-0.025127646189555524,0.005517959703877568
1772555473692068900,7.19806884765625,-0.007002572238445281,-0.022368775935471055,0.013625333112757652
1772555473702001000,7.2080009765625,-0.028027240088582036,-0.039518648178875446,0.02153258083965629
1772555473711933000,7.217932861328125,-0.07386778476536274,-0.043450726930797094,0.026996673198137432
1772555473721863700,7.22786376953125,-0.09036357701420783,-0.023259002773463724,0.04175663636401295
1772555473731795700,7.237795654296875,-0.059493806976079935,-0.030275895798206328,0.07279854809865355
1772555473741727700,7.247727783203125,-0.03077157036066055,-0.03453983685299754,0.09032560135768726
1772555473751659800,7.25765966796875,-0.0134065940618515,-0.04322466308996081,0.10670078116785735
1772555473761591800,7.267591796875,0.012416413980722426,-0.0338300811484456,0.09074342491095885
1772555473771523800,7.27752392578125,0.0018926818788051604,-0.03298062471225858,0.05697607026780024
1772555473781454800,7.287454833984375,-0.018885317733883855,-0.040387978359311814,0.01468061431935057
1772555473791387000,7.297386962890625,-0.036026422148942944,-0.033083646695315834,-0.02109269158504903
1772555473801319000,7.30731884765625,-0.010776830080151557,-0.016892244220525026,-0.01861707698544487
1772555473811251000,7.3172509765625,0.059656304061412806,-0.01017974096983671,0.029360607584193347
1772555473821182700,7.3271826171875,0.09977437943816185,-0.05663417976126074,0.05495519543206319
1772555473831114800,7.33711474609375,0.09267653013169765,-0.08224237600937485,0.06773991300221532
1772555473841045800,7.347045654296875,0.07163724923431873,-0.06891615370735525,0.06173734811916947
1772555473850977800,7.356977783203125,0.016357845082879064,-0.047985886142402887,0.045961467642709614
1772555473860909800,7.366909912109375,-0.06478431459963321,-0.007930646868795157,0.0052315805105492465
1772555473870841900,7.376841796875,-0.12453648025095462,0.02332870700880885,-0.040287458860594774
1772555473880774000,7.38677392578125,-0.14520517427027224,0.04868950436711311,-0.06102238651653751
1772555473890706000,7.396705810546875,-0.11346095948517322,0.07046732867211103,-0.06757458463897928
1772555473900637000,7.406636962890625,-0.07833060939311981,0.04891323012039065,-0.05792526075141504
1772555473910569000,7.41656884765625,-0.023923896422982215,0.03651464405730367,-0.011774590679537504
1772555473920500700,7.426500732421875,0.025140870997309682,0.027867373351752756,0.016313567549735307
1772555473930432800,7.436432861328125,0.08372808452248573,-0.00990881507396698,0.02916998038291931
1772555473940364800,7.44636474609375,0.11505202806890011,-0.0413930637486279,0.041352987466566266
1772555473950296800,7.456296875,0.09112813164591789,-0.06054945350885391,0.030079660840053108
1772555473960227800,7.466227783203125,-0.0013315408647060394,-0.06194222304150462,0.012937971903104334
1772555473970159900,7.476159912109375,-0.08408113574385642,-0.038365824881941075,0.008112853301595896
1772555473980092000,7.486091796875,-0.10343757812082767,-0.0064782561033964155,0.01258764236178249
1772555473990024000,7.49602392578125,-0.08028232798278331,-0.0024476854130625722,0.03866599513860419
1772555473999956000,7.5059560546875,-0.03767126674652099,-0.011460866821557282,0.028238289023376998
1772555474009888000,7.515887939453125,0.022111294043064115,-0.046249271608144044,0.036816348683927205
1772555474019818800,7.52581884765625,0.04924889181554317,-0.09940452321246265,0.07011172016747295
1772555474029750800,7.535750732421875,0.04705518116354942,-0.152788761267066,0.0959365365746431
1772555474039682800,7.545682861328125,0.03768880240321159,-0.16929587862752377,0.0975381813513115
1772555474049614800,7.55561474609375,0.02171907985508442,-0.1326205641157925,0.12042378423511982
1772555474059547000,7.565546875,0.010372925454378127,-0.09035261722877622,0.13747224193066357
1772555474069478700,7.575478759765625,-0.00819733498096466,-0.059104369267076254,0.12133355602379887
1772555474079410000,7.585409912109375,0.006421557480096817,-0.054718263137340545,0.09067750180158764
1772555474089342000,7.595342041015625,0.0012380173623561857,-0.07751110970377921,0.05095142141710966
1772555474099274000,7.60527392578125,-0.035030396848917005,-0.09062157036326825,0.05491762163434177
1772555474109205800,7.615205810546875,-0.097362642121315,-0.0985745021291077,0.04794971885047853
1772555474119137800,7.6251376953125,-0.15115385354161262,-0.08856902174763381,0.01756371374130249
1772555474129069800,7.63506982421875,-0.12853870162963865,-0.053240737930685275,0.0021414324754849075
1772555474139000800,7.645000732421875,-0.050365913146734234,-0.003877425955235958,-0.05655358880572021
1772555474148932900,7.654932861328125,-0.012268529942631721,0.021760580909252165,-0.11784312009215354
1772555474158864600,7.66486474609375,0.010073650246858596,0.029994010116904973,-0.1174640576466918
1772555474168796700,7.674796630859375,0.0324292744398117,0.034464871920645235,-0.09799801741540431
1772555474178728700,7.684728759765625,-0.03487608307003975,0.01922010264620185,-0.1351946523874998
1772555474188660700,7.69466064453125,-0.03597966039776802,0.028138664573803544,-0.12401410034466534
1772555474198592000,7.704592041015625,0.03583119183778763,0.09566869768500327,0.006413447238877415
1772555474208523800,7.714523681640625,-0.02270750637054443,0.1005221290655434,-0.04695267063714564
1772555474218455800,7.724455810546875,-0.053477323165535925,-0.0018897592693567274,-0.3312001856990158
1772555474228387800,7.734387939453125,0.01746785215139389,0.0810113729096949,-0.28553138085994867
1772555474238319900,7.74431982421875,0.0666238049864769,0.1680627566359937,-0.18732622349988667
1772555474248252000,7.754251953125,0.09696516723632811,0.19494645271264016,-0.117827338001132
1772555474258182700,7.7641826171875,0.16183949820697308,0.161401764376834,-0.06411383145954459
1772555474268114700,7.77411474609375,0.20561434252560137,0.056509384337812656,-0.056497072845511136
1772555474278046700,7.784046630859375,0.2552232998251915,-0.04871887659206986,0.032126272905245425
1772555474287979000,7.79397900390625,0.29267770895063877,-0.14129172715358435,0.13266480511631815
1772555474297911000,7.8039111328125,0.23485563457906244,-0.19694982842430472,0.16402528128083793
1772555474307842800,7.8138427734375,0.15366262149214743,-0.20202713168859482,0.20071458778530357
1772555474317773800,7.82377392578125,0.01890869860947132,-0.10577880748473108,0.20669296807516366
1772555474327705900,7.833705810546875,-0.15950550230145452,-0.12574980156347154,0.14935918867718428
