time,seconds_elapsed,z,y,x
1772555350313027800,0.06502783203125,-0.03949728608131409,0.2736138105392456,0.25308969616889954
1772555350322961000,0.0749609375,-0.03775664418935776,0.2844070494174957,0.27135175466537476
1772555350332893000,0.084892822265625,-0.03519793227314949,0.2878630459308624,0.2838408648967743
1772555350342826000,0.094825927734375,-0.03037654608488083,0.2971665561199188,0.30645936727523804
1772555350352758000,0.104758056640625,-0.016881108283996582,0.28986385464668274,0.34188902378082275
1772555350362690000,0.11468994140625,0.0005844351835548878,0.26150092482566833,0.39202195405960083
1772555350372622000,0.1246220703125,0.01974457874894142,0.21232911944389343,0.4486638307571411
1772555350382553900,0.134553955078125,0.038187768310308456,0.15378378331661224,0.5139834880828857
1772555350392486000,0.14448583984375,0.05152066424489021,0.0649699792265892,0.5916311144828796
1772555350402418000,0.15441796875,0.06266892701387405,-0.05207967758178711,0.6776642799377441
1772555350412351000,0.16435107421875,0.06825394183397293,-0.17768120765686035,0.7554135322570801
1772555350422283000,0.174282958984375,0.0720372349023819,-0.29195666313171387,0.8167173266410828
1772555350432215000,0.184215087890625,0.07578198611736298,-0.39423704147338867,0.8725062608718872
1772555350442147000,0.19414697265625,0.07796524465084076,-0.5121221542358398,0.9262201189994812
1772555350452078800,0.204078857421875,0.0883982852101326,-0.6383714079856873,0.9529557228088379
1772555350462011000,0.214010986328125,0.10295965522527695,-0.7706735134124756,0.9723590016365051
1772555350471943000,0.22394287109375,0.09895353764295578,-0.9128754138946533,0.9834725260734558
1772555350481875000,0.233875,0.044963277876377106,-1.048731803894043,0.9830200672149658
1772555350491807000,0.243806884765625,0.005822920706123114,-1.173563003540039,0.8863890767097473
1772555350501740000,0.253739990234375,-0.014431484043598175,-1.2432794570922852,0.7089229822158813
1772555350511672000,0.263672119140625,-0.014949675649404526,-1.237287163734436,0.49475935101509094
1772555350521603800,0.273603759765625,0.000357641838490963,-1.1523687839508057,0.26874619722366333
1772555350531536000,0.283535888671875,0.01585444062948227,-0.9754725694656372,0.07698341459035873
1772555350541468000,0.293468017578125,0.0005609728395938873,-0.7576504945755005,-0.047992609441280365
1772555350551400000,0.30339990234375,-0.062058575451374054,-0.5581002235412598,-0.09709955006837845
1772555350561332000,0.31333203125,-0.1639431267976761,-0.47941309213638306,-0.12359187752008438
1772555350571265000,0.32326513671875,-0.2557392120361328,-0.5131788849830627,-0.2144984006881714
1772555350581197000,0.333197021484375,-0.2839801609516144,-0.6029873490333557,-0.39833053946495056
1772555350591128800,0.34312890625,-0.27269378304481506,-0.729759693145752,-0.6511352062225342
1772555350601060900,0.353060791015625,-0.26586997509002686,-0.8856416940689087,-0.8813703060150146
1772555350610993000,0.362992919921875,-0.21195290982723236,-0.7372606992721558,-1.1136817932128906
1772555350620925000,0.372925048828125,-0.16868799924850464,-0.40341246128082275,-1.2593673467636108
1772555350630857000,0.38285693359375,-0.15044794976711273,-0.12660980224609375,-1.2881804704666138
1772555350640788700,0.392788818359375,-0.14727506041526794,0.03238117694854736,-1.2847716808319092
1772555350650720800,0.402720703125,-0.13974644243717194,0.1418774574995041,-1.300032138824463
1772555350660653800,0.41265380859375,-0.1295934021472931,0.25029659271240234,-1.3152360916137695
1772555350670585900,0.4225859375,-0.10574791580438614,0.34487107396125793,-1.2940006256103516
1772555350680518000,0.432517822265625,-0.08555769175291061,0.3707881569862366,-1.222009539604187
1772555350690450000,0.442449951171875,-0.06028972566127777,0.32778918743133545,-1.1005897521972656
1772555350700382000,0.4523818359375,-0.016494840383529663,0.2501676380634308,-0.9460546970367432
1772555350710313700,0.462313720703125,0.028906334191560745,0.17085883021354675,-0.7942540049552917
1772555350720245800,0.472245849609375,0.0602879598736763,0.08266027271747589,-0.6702119708061218
1772555350730177800,0.482177734375,0.06596501171588898,0.01810486614704132,-0.5868821740150452
1772555350740110800,0.49211083984375,0.05653076618909836,0.0003772694617509842,-0.5356080532073975
1772555350750043000,0.50204296875,0.03895089402794838,0.038362227380275726,-0.49854186177253723
1772555350759975000,0.511974853515625,0.018334830179810524,0.10573168843984604,-0.4537280797958374
1772555350769907000,0.521906982421875,0.003943239338696003,0.18656452000141144,-0.3961595892906189
1772555350779838700,0.531838623046875,0.0000752648338675499,0.2554338574409485,-0.3142484724521637
1772555350789770800,0.541770751953125,0.0031688744202256203,0.31152844429016113,-0.22682040929794312
1772555350799702800,0.551702880859375,0.01140656415373087,0.3404274880886078,-0.15939822793006897
1772555350809634800,0.561634765625,0.025430232286453247,0.31554457545280457,-0.12726666033267975
1772555350819567900,0.57156787109375,0.0454886294901371,0.2817075252532959,-0.13152877986431122
1772555350829500000,0.5815,0.07306157052516937,0.27772510051727295,-0.15432845056056976
1772555350839432000,0.591431884765625,0.10169588029384613,0.28955161571502686,-0.18601660430431366
1772555350849363700,0.60136376953125,0.11908762156963348,0.3107737600803375,-0.19211223721504211
1772555350859295700,0.611295654296875,0.13000018894672394,0.34118199348449707,-0.15228280425071716
1772555350869227800,0.621227783203125,0.13202299177646637,0.39504891633987427,-0.07282684743404388
1772555350879159800,0.631159912109375,0.14328256249427795,0.46456408500671387,0.004003755748271942
1772555350889092000,0.641092041015625,0.16222882270812988,0.5494242310523987,0.07074414938688278
1772555350899025000,0.65102490234375,0.17111100256443024,0.6329092383384705,0.10556231439113617
1772555350908957000,0.66095703125,0.17179425060749054,0.7196924686431885,0.10686782747507095
1772555350918888700,0.670888671875,0.15795698761940002,0.8098825216293335,0.07114871591329575
1772555350928820700,0.68082080078125,0.1336897611618042,0.8754109144210815,0.02638830617070198
1772555350938752800,0.690752685546875,0.1043957844376564,0.8958336114883423,-0.006666317582130432
1772555350948685000,0.70068505859375,0.07461189478635788,0.8798937201499939,-0.02150961011648178
1772555350958617000,0.7106171875,0.05125810205936432,0.8449708819389343,-0.031531352549791336
1772555350968549000,0.720549072265625,0.02900165691971779,0.8110734820365906,-0.034914929419755936
1772555350978482000,0.73048193359375,0.006819391157478094,0.7710882425308228,-0.023236699402332306
1772555350988413700,0.74041357421875,-0.018222223967313766,0.7252984642982483,-0.0009327474981546402
1772555350998345700,0.750345703125,-0.029937736690044403,0.6873425841331482,0.033696603029966354
1772555351008278000,0.760278076171875,-0.027659010142087936,0.6368808150291443,0.07021357119083405
1772555351018210000,0.7702099609375,-0.02515217661857605,0.586980402469635,0.0953785851597786
1772555351028142000,0.78014208984375,-0.024411389604210854,0.5464927554130554,0.09926749765872955
1772555351038074000,0.79007421875,-0.032168909907341,0.5129566192626953,0.09128520637750626
1772555351048006000,0.800005859375,-0.04142823442816734,0.45007625222206116,0.0800280049443245
1772555351057938700,0.809938720703125,-0.03592747449874878,0.3700155019760132,0.06674230098724365
1772555351067871000,0.81987109375,-0.02115231193602085,0.297179639339447,0.050272975116968155
1772555351077803000,0.829802978515625,-0.01247919537127018,0.2350883185863495,0.03389826416969299
1772555351087735000,0.839735107421875,-0.006592950783669949,0.1895102858543396,0.0065259989351034164
1772555351097667000,0.8496669921875,-0.013631684705615044,0.14923371374607086,-0.017361756414175034
1772555351107599000,0.85959912109375,-0.02432188019156456,0.12516352534294128,-0.03580787405371666
1772555351117531000,0.86953076171875,-0.032895129173994064,0.10780318081378937,-0.04243328794836998
1772555351127463000,0.879462890625,-0.04300964996218681,0.08833392709493637,-0.03059481829404831
1772555351137396000,0.88939599609375,-0.043005120009183884,0.05323532223701477,-0.010660525411367416
1772555351147328000,0.899327880859375,-0.039641305804252625,0.02543974667787552,0.004129715263843536
1772555351157260000,0.909260009765625,-0.03252294287085533,0.011192899197340012,0.010458185337483883
1772555351167192000,0.919192138671875,-0.025438398122787476,-0.005457072518765926,0.005962268449366093
1772555351177124000,0.9291240234375,-0.02612016722559929,-0.02440759353339672,-0.01658139005303383
1772555351187055900,0.939055908203125,-0.03461425006389618,-0.04165908694267273,-0.04669040068984032
1772555351196988000,0.94898779296875,-0.04293476417660713,-0.056802086532115936,-0.07643657922744751
1772555351206920000,0.958919921875,-0.054228298366069794,-0.05920855700969696,-0.10879343748092651
1772555351216853000,0.96885302734375,-0.049292128533124924,-0.04643097519874573,-0.12024743109941483
1772555351226785000,0.978784912109375,-0.05440658703446388,-0.004218465648591518,-0.11762230843305588
1772555351236717000,0.988717041015625,-0.05916565656661987,0.053060270845890045,-0.11949131637811661
1772555351246648800,0.99864892578125,-0.059624262154102325,0.09238021075725555,-0.1140715703368187
1772555351256580900,1.008580810546875,-0.055237237364053726,0.09886553883552551,-0.09392715245485306
1772555351266513000,1.018512939453125,-0.03724832832813263,0.10157902538776398,-0.0626692995429039
1772555351276445000,1.02844482421875,-0.02209467440843582,0.08921051025390625,-0.02276023104786873
1772555351286377000,1.038376953125,-0.013697141781449318,0.07107258588075638,0.028177566826343536
1772555351296310000,1.04831005859375,-0.006306071300059557,0.05220302194356918,0.06894070655107498
1772555351306242000,1.058241943359375,0.0033625392243266106,0.03338957577943802,0.09930582344532013
1772555351316173800,1.068173828125,0.015026386827230453,0.011240065097808838,0.12049499899148941
1772555351326105900,1.07810595703125,0.026220720261335373,-0.01376096811145544,0.1279478669166565
1772555351336038000,1.088037841796875,0.023770079016685486,-0.01698525808751583,0.10524681955575943
1772555351345969700,1.0979697265625,0.01880304142832756,-0.000060889869928359985,0.057738564908504486
1772555351355901700,1.107901611328125,0.018287984654307365,0.01985955610871315,0.009526294656097889
1772555351365833700,1.117833740234375,0.01641916111111641,0.03571532666683197,-0.031526826322078705
1772555351375765800,1.127765869140625,0.006031502038240433,0.044283248484134674,-0.056189026683568954
1772555351385698800,1.13769873046875,0.002024142537266016,0.048439159989356995,-0.07745019346475601
1772555351395630800,1.147630859375,-0.007965374737977982,0.056335434317588806,-0.09001658856868744
1772555351405563000,1.15756298828125,-0.021588459610939026,0.05030831694602966,-0.11507822573184967
1772555351415494700,1.16749462890625,-0.03412662073969841,0.05472676455974579,-0.13067449629306793
1772555351425426700,1.1774267578125,-0.048683226108551025,0.037332236766815186,-0.13798505067825317
1772555351435358700,1.187358642578125,-0.06429067999124527,0.012571761384606361,-0.13334421813488007
1772555351445290800,1.197290771484375,-0.07524480670690536,-0.001928938552737236,-0.12482649832963943
1772555351455222800,1.207222900390625,-0.08783677220344543,-0.005407026968896389,-0.12058993428945541
1772555351465155800,1.21715576171875,-0.09803306311368942,-0.01935797929763794,-0.11252815276384354
1772555351475088000,1.227087890625,-0.10354980081319809,-0.033171262592077255,-0.09845014661550522
1772555351485019600,1.23701953125,-0.10677962750196457,-0.04740286245942116,-0.0802716314792633
1772555351494951700,1.24695166015625,-0.11295229941606522,-0.06594005972146988,-0.054573457688093185
1772555351504883700,1.2568837890625,-0.1154009997844696,-0.08635774999856949,-0.023350879549980164
1772555351514815700,1.266815673828125,-0.11439725756645203,-0.08603816479444504,-0.0009576911106705666
1772555351524747800,1.276747802734375,-0.11448774486780167,-0.06358080357313156,0.0020645326003432274
1772555351534679800,1.2866796875,-0.11768753081560135,-0.026722121983766556,-0.00003164168447256088
1772555351544612900,1.29661279296875,-0.11814679205417633,-0.0014144079759716988,-0.0021488461643457413
1772555351554544600,1.306544677734375,-0.10965743660926819,0.0022903159260749817,0.01067853532731533
1772555351564476700,1.3164765625,-0.09866337478160858,-0.026453791186213493,0.027950482442975044
1772555351574408700,1.32640869140625,-0.08259732276201248,-0.08234475553035736,0.04417978972196579
1772555351584340700,1.3363408203125,-0.06619944423437119,-0.14226093888282776,0.054407089948654175
1772555351594272800,1.346272705078125,-0.06433763355016708,-0.18481318652629852,0.05246511474251747
1772555351604204800,1.356204833984375,-0.06653600931167603,-0.1953103095293045,0.03596077114343643
1772555351614136600,1.366136474609375,-0.06431573629379272,-0.18264351785182953,0.017381761223077774
1772555351624068900,1.37606884765625,-0.04665404558181763,-0.15983738005161285,0.005245229694992304
1772555351634001700,1.386001708984375,-0.024487758055329323,-0.12664560973644257,0.005423661321401596
1772555351643933700,1.39593359375,0.0005585658363997936,-0.09530089795589447,0.03012079745531082
1772555351653865700,1.40586572265625,0.02726554498076439,-0.07352104038000107,0.07692558318376541
1772555351663797800,1.4157978515625,0.05136425048112869,-0.07084234058856964,0.1328502744436264
1772555351673729800,1.425729736328125,0.07483761757612228,-0.08235491812229156,0.18169905245304108
1772555351683661800,1.435661865234375,0.09673264622688293,-0.1196279227733612,0.2051115483045578
1772555351693593900,1.44559375,0.10888758301734924,-0.16413840651512146,0.19566798210144043
1772555351703526000,1.45552587890625,0.10563689470291138,-0.19592812657356262,0.16244326531887054
1772555351713458000,1.4654580078125,0.09592727571725845,-0.21422722935676575,0.10616801679134369
1772555351723390700,1.475390625,0.07755713164806366,-0.21502168476581573,0.046365074813365936
1772555351733322800,1.48532275390625,0.05246642231941223,-0.2041487991809845,-0.0027766386047005653
1772555351743254800,1.4952548828125,0.024861037731170654,-0.18185104429721832,-0.044252946972846985
1772555351753186800,1.505186767578125,0.0001383814960718155,-0.1677544116973877,-0.06312437355518341
1772555351763118800,1.515118896484375,-0.02044181153178215,-0.16442376375198364,-0.0733141228556633
1772555351773051000,1.52505078125,-0.035577889531850815,-0.19004470109939575,-0.06866131722927094
1772555351782983000,1.53498291015625,-0.03855224326252937,-0.2277984321117401,-0.0588369220495224
1772555351792915000,1.5449150390625,-0.03829524666070938,-0.2598181366920471,-0.049474310129880905
1772555351802847700,1.55484765625,-0.03794977813959122,-0.2771366834640503,-0.03706550598144531
1772555351812779800,1.56477978515625,-0.025157282128930092,-0.2858082056045532,-0.021079884842038155
1772555351822711800,1.5747119140625,-0.009476613253355026,-0.2683809995651245,0.00015096087008714676
1772555351832643800,1.584643798828125,0.013040945865213871,-0.20442864298820496,0.033749666064977646
1772555351842576000,1.594575927734375,0.023222630843520164,-0.10825894773006439,0.07039596140384674
1772555351852508000,1.6045078125,0.0277611892670393,-0.005719794891774654,0.1053193211555481
1772555351862440000,1.61443994140625,0.028679287061095238,0.09644186496734619,0.12576930224895477
1772555351872371700,1.624371826171875,0.025580963119864464,0.18533046543598175,0.12385635077953339
1772555351882303700,1.6343037109375,0.016995899379253387,0.23194460570812225,0.10591481626033783
1772555351892236800,1.64423681640625,0.002706974744796753,0.24039269983768463,0.07532867789268494
1772555351902168800,1.6541689453125,-0.0036144668702036142,0.21650294959545135,0.058921050280332565
1772555351912100900,1.664100830078125,-0.012437785975635052,0.14282232522964478,0.07115533947944641
1772555351922033000,1.674032958984375,-0.00984687078744173,0.06823726743459702,0.08726061880588531
1772555351931965000,1.68396484375,-0.004603372886776924,-0.010364601388573647,0.111678346991539
1772555351941896700,1.693896728515625,-0.0028518729377537966,-0.07423271238803864,0.13432392477989197
1772555351951828700,1.703828857421875,0.0018627210520207882,-0.1390918642282486,0.1535673886537552
1772555351961760800,1.7137607421875,0.008191268891096115,-0.20523390173912048,0.159254252910614
1772555351971693800,1.72369384765625,0.013305602595210075,-0.2604300379753113,0.15662331879138947
1772555351981625900,1.7336259765625,0.020296206697821617,-0.3028576076030731,0.14639775454998016
1772555351991558000,1.743557861328125,0.023046454414725304,-0.3329084515571594,0.13560715317726135
1772555352001490000,1.753489990234375,0.013234712183475494,-0.363802045583725,0.13019856810569763
1772555352011421700,1.763421630859375,0.004266516305506229,-0.3991483151912689,0.1259918361902237
1772555352021353700,1.773353759765625,-0.0056692264042794704,-0.43520694971084595,0.1257975697517395
1772555352031285800,1.78328564453125,-0.018277695402503014,-0.4574315845966339,0.12860479950904846
1772555352041217800,1.7932177734375,-0.033673569560050964,-0.4653296172618866,0.12537115812301636
1772555352051149800,1.80314990234375,-0.05120622366666794,-0.4568905830383301,0.11218477785587311
1772555352061083000,1.813082763671875,-0.060724254697561264,-0.4242880642414093,0.10126806795597076
1772555352071015000,1.823014892578125,-0.07127276808023453,-0.37233221530914307,0.10508517920970917
1772555352080946700,1.83294677734375,-0.07861129939556122,-0.30598029494285583,0.12283800542354584
1772555352090878700,1.842878662109375,-0.07948321849107742,-0.2273118644952774,0.15199695527553558
1772555352100810800,1.852810791015625,-0.07726949453353882,-0.14265310764312744,0.17331567406654358
1772555352110742800,1.86274267578125,-0.06801074743270874,-0.046699680387973785,0.18726451694965363
1772555352120674800,1.8726748046875,-0.05638247728347778,0.05397186428308487,0.18483209609985352
1772555352130606800,1.88260693359375,-0.04192071035504341,0.1545725166797638,0.16391830146312714
1772555352140540000,1.892539794921875,-0.027199244126677513,0.24660883843898773,0.12974703311920166
1772555352150471700,1.9024716796875,-0.015639793127775192,0.3432552218437195,0.0925232395529747
1772555352160403700,1.91240380859375,-0.016285119578242302,0.41865548491477966,0.06922775506973267
1772555352170335700,1.922335693359375,-0.017385270446538925,0.453825443983078,0.06697818636894226
1772555352180267800,1.932267822265625,-0.01521913893520832,0.44736045598983765,0.07640741765499115
1772555352190199800,1.94219970703125,-0.007031782530248165,0.3970663845539093,0.08973094075918198
1772555352200131800,1.9521318359375,0.01356851402670145,0.3255513906478882,0.11221542209386826
1772555352210063600,1.962063720703125,0.037220314145088196,0.20997101068496704,0.1347026228904724
1772555352219995600,1.97199560546875,0.06205935403704643,0.08085057884454727,0.13741213083267212
1772555352229928700,1.9819287109375,0.0838615894317627,-0.046947598457336426,0.1042294055223465
1772555352239860700,1.99186083984375,0.10273393243551254,-0.15311147272586823,0.046320006251335144
1772555352249792800,2.001792724609375,0.11173675209283829,-0.243275985121727,-0.018544476479291916
1772555352259724800,2.011724853515625,0.11723592877388,-0.3163163363933563,-0.07642263174057007
1772555352269656800,2.02165673828125,0.1209648847579956,-0.3784926235675812,-0.12557099759578705
1772555352279588600,2.031588623046875,0.11499486863613129,-0.42248043417930603,-0.1597103625535965
1772555352289520600,2.041520751953125,0.1168135404586792,-0.44263124465942383,-0.1813908964395523
1772555352299452700,2.05145263671875,0.11994529515504837,-0.44620293378829956,-0.19674186408519745
1772555352309384700,2.061384765625,0.12414803355932236,-0.4264449179172516,-0.19958505034446716
1772555352319317800,2.07131787109375,0.13374978303909302,-0.3769145905971527,-0.2024943083524704
1772555352329249000,2.0812490234375,0.1379447877407074,-0.323957622051239,-0.19126641750335693
1772555352339181000,2.09118115234375,0.14004388451576233,-0.28935909271240234,-0.1695944368839264
1772555352349113000,2.101113037109375,0.142067089676857,-0.25331586599349976,-0.15473826229572296
1772555352359045000,2.111045166015625,0.1433117836713791,-0.22877195477485657,-0.14915700256824493
1772555352368977200,2.12097705078125,0.1493755429983139,-0.20936256647109985,-0.1366284191608429
1772555352378909200,2.1309091796875,0.15295551717281342,-0.182880699634552,-0.12751014530658722
1772555352388841000,2.140841064453125,0.15788502991199493,-0.1498154252767563,-0.1295224279165268
1772555352398773000,2.15077294921875,0.156242236495018,-0.09708051383495331,-0.1418924182653427
1772555352408706000,2.1607060546875,0.1499371975660324,-0.012215152382850647,-0.16151300072669983
1772555352418638000,2.17063818359375,0.13242207467556,0.07123945653438568,-0.18073439598083496
1772555352428570000,2.180570068359375,0.11045312136411667,0.12009008228778839,-0.19520363211631775
1772555352438502100,2.190502197265625,0.10288170725107193,0.14627887308597565,-0.20885254442691803
1772555352448434200,2.20043408203125,0.1045302078127861,0.15898534655570984,-0.22365839779376984
1772555352458366000,2.210365966796875,0.10130201280117035,0.1622518002986908,-0.23095865547657013
1772555352468298000,2.220298095703125,0.10154249519109726,0.16358231008052826,-0.2189938724040985
1772555352478230000,2.23022998046875,0.10094349086284637,0.1540364921092987,-0.18704266846179962
1772555352488163000,2.2401630859375,0.09647896885871887,0.12583547830581665,-0.15564054250717163
1772555352498095000,2.25009521484375,0.09325774013996124,0.09207801520824432,-0.13191363215446472
1772555352508027100,2.260027099609375,0.09476669132709503,0.06582936644554138,-0.1220221221446991
1772555352517959200,2.269959228515625,0.09547371417284012,0.04683554917573929,-0.10485168546438217
1772555352527891000,2.279890869140625,0.08527833223342896,0.019719509407877922,-0.08551980555057526
1772555352537823000,2.289822998046875,0.08436529338359833,-0.005549421533942223,-0.07206802815198898
1772555352547755000,2.299755126953125,0.08126164972782135,-0.0043225036934018135,-0.07968280464410782
1772555352557687000,2.30968701171875,0.0688793733716011,0.026301132515072823,-0.0925212949514389
1772555352567619000,2.319619140625,0.05442267656326294,0.05823855847120285,-0.0924011841416359
1772555352577552100,2.32955224609375,0.04486372321844101,0.07996317744255066,-0.08309759944677353
1772555352587484200,2.339484130859375,0.040451131761074066,0.1129610687494278,-0.07734570652246475
1772555352597416000,2.349416015625,0.046409815549850464,0.14219781756401062,-0.06905210018157959
1772555352607348000,2.359347900390625,0.048050858080387115,0.1533343642950058,-0.06018723174929619
1772555352617280000,2.369280029296875,0.05649203434586525,0.1566036343574524,-0.058747388422489166
1772555352627212000,2.3792119140625,0.06284527480602264,0.16476675868034363,-0.059350863099098206
1772555352637144000,2.38914404296875,0.0605475939810276,0.1799033135175705,-0.06453009694814682
1772555352647076000,2.399076171875,0.05750599876046181,0.19058924913406372,-0.06903989613056183
1772555352657007900,2.4090078125,0.05699215456843376,0.20270518958568573,-0.07893270254135132
1772555352666941000,2.41894091796875,0.05486401915550232,0.21475891768932343,-0.10087183117866516
1772555352676873000,2.428873046875,0.048294637352228165,0.2167215496301651,-0.11607730388641357
1772555352686805000,2.438804931640625,0.03551679104566574,0.21410205960273743,-0.12594830989837646
1772555352696737000,2.448737060546875,0.026150932535529137,0.2063220888376236,-0.1434091180562973
1772555352706669000,2.4586689453125,0.02009064331650734,0.18247854709625244,-0.15437735617160797
1772555352716601000,2.46860107421875,0.024545656517148018,0.1416698396205902,-0.15153874456882477
1772555352726532900,2.478532958984375,0.03148558735847473,0.09992318600416183,-0.14399319887161255
1772555352736465000,2.48846484375,0.033498723059892654,0.055501729249954224,-0.13134954869747162
1772555352746397000,2.49839697265625,0.04045010730624199,0.027780884876847267,-0.1163756474852562
1772555352756330000,2.508330078125,0.04608440026640892,-0.004800700582563877,-0.1060430034995079
1772555352766262000,2.518261962890625,0.04892120137810707,-0.030678104609251022,-0.0980074405670166
1772555352776194000,2.528194091796875,0.037382498383522034,-0.034114621579647064,-0.08981836587190628
1772555352786126000,2.5381259765625,0.02822362259030342,-0.012326236814260483,-0.08555597811937332
1772555352796057900,2.548057861328125,0.015927940607070923,0.015689989551901817,-0.06637616455554962
1772555352805990000,2.557989990234375,0.006956283003091812,0.05516895651817322,-0.04805361479520798
1772555352815922000,2.567921875,-0.001663179136812687,0.0982760563492775,-0.021917643025517464
1772555352825854000,2.57785400390625,-0.009703795425593853,0.14056704938411713,0.007094033528119326
1772555352835786000,2.587785888671875,-0.01575421914458275,0.1670227348804474,0.03915320336818695
1772555352845719000,2.597718994140625,-0.016863960772752762,0.18294817209243774,0.07021764665842056
1772555352855651000,2.607651123046875,-0.015733608976006508,0.18601387739181519,0.09245806932449341
1772555352865582800,2.617582763671875,-0.01628168858587742,0.1754797399044037,0.09759131073951721
1772555352875515000,2.627514892578125,-0.02166260965168476,0.1586446613073349,0.08487975597381592
1772555352885447000,2.637447021484375,-0.02664698287844658,0.14690545201301575,0.06574947386980057
1772555352895379000,2.64737890625,-0.03171921148896217,0.13447903096675873,0.051990676671266556
1772555352905311200,2.657311279296875,-0.03267155960202217,0.11881512403488159,0.045429978519678116
1772555352915243300,2.6672431640625,-0.026903653517365456,0.11304786801338196,0.04836229607462883
1772555352925175000,2.677175048828125,-0.022743795067071915,0.11704528331756592,0.04934073984622955
1772555352935107800,2.68710791015625,-0.016112420707941055,0.10622711479663849,0.0574946403503418
1772555352945040000,2.697039794921875,-0.0039042234420776367,0.08316972851753235,0.060562070459127426
1772555352954972000,2.706971923828125,0.015738343819975853,0.05487118661403656,0.06240592524409294
1772555352964904200,2.716904296875,0.037229787558317184,0.03421784192323685,0.06108712777495384
1772555352974836200,2.726836181640625,0.05898752436041832,0.03675559163093567,0.04406486079096794
1772555352984768000,2.73676806640625,0.07976417243480682,0.07986018806695938,0.014762632548809052
1772555352994700000,2.746699951171875,0.09829577803611755,0.14442826807498932,-0.014635469764471054
1772555353004632000,2.756632080078125,0.12445655465126038,0.21851660311222076,-0.02942187339067459
1772555353014564000,2.766564208984375,0.15327657759189606,0.2944311499595642,0.001346011646091938
1772555353024497200,2.7764970703125,0.17707565426826477,0.32620158791542053,0.05241638422012329
1772555353034429200,2.78642919921875,0.2111927568912506,0.3064231872558594,0.10248978435993195
1772555353044361200,2.796361328125,0.24772068858146667,0.24305059015750885,0.15104959905147552
1772555353054293000,2.80629296875,0.27228695154190063,0.15014366805553436,0.1871093064546585
1772555353064225000,2.81622509765625,0.28185704350471497,0.04338394105434418,0.21912182867527008
1772555353074157000,2.826156982421875,0.26723191142082214,-0.059010498225688934,0.23799408972263336
1772555353084089000,2.836089111328125,0.2438347339630127,-0.1553111970424652,0.25452113151550293
1772555353094021000,2.846021240234375,0.21265578269958496,-0.24136146903038025,0.2593156397342682
1772555353103953200,2.855953125,0.1742151826620102,-0.31015172600746155,0.25100764632225037
1772555353113886200,2.86588623046875,0.13028287887573242,-0.3654322922229767,0.23615333437919617
1772555353123818000,2.87581787109375,0.08911067247390747,-0.4028438627719879,0.22191260755062103
1772555353133750000,2.88575,0.05498505011200905,-0.41514647006988525,0.20623695850372314
1772555353143682000,2.89568212890625,0.02515045553445816,-0.41409051418304443,0.1952628642320633
1772555353153614000,2.905614013671875,-0.00002477085217833519,-0.4028724431991577,0.17785689234733582
1772555353163546000,2.915546142578125,-0.02246216870844364,-0.3722676634788513,0.15660806000232697
1772555353173478100,2.92547802734375,-0.03935794532299042,-0.324019193649292,0.13081735372543335
1772555353183410000,2.935409912109375,-0.051621269434690475,-0.2617534101009369,0.11446980386972427
1772555353193342000,2.945342041015625,-0.06042502820491791,-0.20177431404590607,0.11071896553039551
1772555353203275000,2.95527490234375,-0.06183011084794998,-0.14679361879825592,0.11186705529689789
1772555353213207000,2.96520703125,-0.06197844445705414,-0.10084617137908936,0.11600801348686218
1772555353223139000,2.97513916015625,-0.05442572012543678,-0.06513024866580963,0.11596247553825378
1772555353233071000,2.985071044921875,-0.043271202594041824,-0.034293282777071,0.09443189203739166
1772555353243003100,2.995003173828125,-0.030258197337388992,-0.0040216632187366486,0.06702983379364014
1772555353252935000,3.004934814453125,-0.010915163904428482,0.011596428230404854,0.048590175807476044
1772555353262867000,3.014866943359375,0.01124286837875843,0.01603325456380844,0.04248994216322899
1772555353272799000,3.024799072265625,0.03513110801577568,0.010793153196573257,0.05334626883268356
1772555353282731000,3.03473095703125,0.05171967297792435,-0.010887907817959785,0.06995214521884918
1772555353292664000,3.0446640625,0.07500284910202026,-0.04300984740257263,0.07697301357984543
1772555353302596000,3.05459619140625,0.08586481958627701,-0.08075908571481705,0.07340838015079498
1772555353312528100,3.064528076171875,0.08351688832044601,-0.0983341708779335,0.06022362411022186
1772555353322460000,3.0744599609375,0.05568685010075569,-0.08604874461889267,0.03226788714528084
1772555353332391700,3.0843916015625,0.01616179198026657,-0.06079023703932762,0.0023244963958859444
1772555353342323700,3.09432373046875,-0.022943265736103058,-0.03699835389852524,-0.027859505265951157
1772555353352255700,3.104255859375,-0.04516061395406723,-0.015694085508584976,-0.055175088346004486
1772555353362187800,3.114187744140625,-0.05940959230065346,-0.010023949667811394,-0.06916574388742447
1772555353372119600,3.12411962890625,-0.06662946194410324,-0.026804480701684952,-0.07465160638093948
1772555353382052900,3.134052978515625,-0.060156382620334625,-0.053185220807790756,-0.08779004216194153
1772555353391984600,3.143984619140625,-0.05479547753930092,-0.08181875199079514,-0.0999068170785904
1772555353401916700,3.153916748046875,-0.06188507750630379,-0.1148400828242302,-0.11013016104698181
1772555353411848700,3.1638486328125,-0.061238083988428116,-0.14766880869865417,-0.11467313766479492
1772555353421780700,3.17378076171875,-0.06959722191095352,-0.17100900411605835,-0.1193469762802124
1772555353431712800,3.183712646484375,-0.07870771735906601,-0.19641324877738953,-0.11832563579082489
1772555353441644500,3.19364453125,-0.08681118488311768,-0.23163515329360962,-0.11295616626739502
1772555353451576800,3.203576904296875,-0.09568069875240326,-0.25181058049201965,-0.11414124071598053
1772555353461508900,3.2135087890625,-0.09722346067428589,-0.2574959099292755,-0.1257539540529251
1772555353471441700,3.223441650390625,-0.10714957118034363,-0.26115357875823975,-0.13192515075206757
1772555353481373700,3.233373779296875,-0.11700673401355743,-0.25381070375442505,-0.13751059770584106
1772555353491305700,3.2433056640625,-0.12411265820264816,-0.23074105381965637,-0.13862773776054382
1772555353501237800,3.25323779296875,-0.1389259546995163,-0.20317627489566803,-0.13722291588783264
1772555353511169800,3.263169677734375,-0.14899854362010956,-0.18465295433998108,-0.14238503575325012
1772555353521101800,3.273101806640625,-0.15288223326206207,-0.15202470123767853,-0.1545618176460266
1772555353531033900,3.283033935546875,-0.14692848920822144,-0.12239532917737961,-0.162483811378479
1772555353540966000,3.2929658203125,-0.13110798597335815,-0.09701993316411972,-0.15200108289718628
1772555353550898000,3.30289794921875,-0.11208024621009827,-0.07151409238576889,-0.1349865347146988
1772555353560830700,3.312830810546875,-0.08526967465877533,-0.031060945242643356,-0.13152627646923065
1772555353570762800,3.3227626953125,-0.05628341808915138,0.01253136619925499,-0.14165417850017548
1772555353580694800,3.33269482421875,-0.03609292954206467,0.03715255483984947,-0.15488103032112122
1772555353590626800,3.342626708984375,-0.025043394416570663,0.05766499042510986,-0.161814883351326
1772555353600558800,3.352558837890625,-0.009128345176577568,0.08155062049627304,-0.1562214493751526
1772555353610491000,3.362490966796875,-0.0012704739347100258,0.09406740218400955,-0.14217573404312134
1772555353620423000,3.3724228515625,0.0020046811550855637,0.09209853410720825,-0.12587398290634155
1772555353630355000,3.38235498046875,0.0008704792708158493,0.07914945483207703,-0.11997196823358536
1772555353640286700,3.39228662109375,0.0007042982615530491,0.07621864974498749,-0.12171580642461777
1772555353650219800,3.4022197265625,-0.011248109862208366,0.07397051900625229,-0.12799741327762604
1772555353660151800,3.41215185546875,-0.02637779526412487,0.05808582901954651,-0.1273667812347412
1772555353670083800,3.422083740234375,-0.039623476564884186,0.03155158460140228,-0.12711888551712036
1772555353680016000,3.432015869140625,-0.04627951234579086,0.002371862530708313,-0.11341825872659683
1772555353689948000,3.441947998046875,-0.05550507828593254,-0.021428603678941727,-0.09606388211250305
1772555353699880000,3.4518798828125,-0.06725148856639862,-0.02396819368004799,-0.07780152559280396
1772555353709811700,3.461811767578125,-0.08077092468738556,-0.011210715398192406,-0.06267387419939041
1772555353719743700,3.47174365234375,-0.09105977416038513,0.009258074685931206,-0.04527916759252548
1772555353729675800,3.48167578125,-0.09956894814968109,0.03507515415549278,-0.019613850861787796
1772555353739608800,3.49160888671875,-0.11209511756896973,0.06347909569740295,0.01526450365781784
1772555353749540900,3.501540771484375,-0.13108116388320923,0.10130482912063599,0.04796963930130005
1772555353759473000,3.511472900390625,-0.1477312445640564,0.13445799052715302,0.07343265414237976
1772555353769405000,3.521405029296875,-0.16466644406318665,0.16908587515354156,0.08345022797584534
1772555353779336700,3.531336669921875,-0.186549112200737,0.20483268797397614,0.09306104481220245
1772555353789268700,3.541268798828125,-0.2071782499551773,0.23745472729206085,0.09489632397890091
1772555353799200800,3.55120068359375,-0.23312276601791382,0.2534203827381134,0.1006745845079422
1772555353809132800,3.5611328125,-0.25493672490119934,0.25549080967903137,0.11049630492925644
1772555353819064800,3.57106494140625,-0.27524226903915405,0.22553980350494385,0.12250929325819016
1772555353828996900,3.580996826171875,-0.2933146059513092,0.17642489075660706,0.1475406438112259
1772555353838930000,3.590929931640625,-0.30721843242645264,0.1321873813867569,0.1683708280324936
1772555353848861700,3.60086181640625,-0.3277394473552704,0.10136405378580093,0.1736636906862259
1772555353858793700,3.610793701171875,-0.359636127948761,0.08172164112329483,0.14791305363178253
1772555353868725800,3.620725830078125,-0.4108634889125824,0.06010416895151138,0.08844242244958878
1772555353878657800,3.63065771484375,-0.46775925159454346,0.052133865654468536,-0.002737823873758316
1772555353888589800,3.64058984375,-0.5055358409881592,0.06461085379123688,-0.07749011367559433
1772555353898521600,3.650521484375,-0.5162273645401001,0.08272754400968552,-0.11495759338140488
1772555353908453600,3.66045361328125,-0.5070968270301819,0.09966257959604263,-0.09996692091226578
1772555353918385700,3.6703857421875,-0.4708932638168335,0.0915716290473938,-0.03180065378546715
1772555353928318700,3.680318603515625,-0.4293070435523987,0.046563029289245605,0.08084309846162796
1772555353938250800,3.690250732421875,-0.37306109070777893,-0.03506845235824585,0.21148580312728882
1772555353948182800,3.700182861328125,-0.32131141424179077,-0.12934698164463043,0.3227521777153015
1772555353958114800,3.71011474609375,-0.2871883511543274,-0.20885352790355682,0.3924276828765869
1772555353968046600,3.720046630859375,-0.27163708209991455,-0.25340893864631653,0.41661715507507324
1772555353977978600,3.729978515625,-0.27953070402145386,-0.2603627145290375,0.3956895172595978
1772555353987910700,3.73991064453125,-0.2942630350589752,-0.2533167898654938,0.3392033278942108
1772555353997842700,3.7498427734375,-0.3142455518245697,-0.24957717955112457,0.2691110670566559
1772555354007774700,3.759774658203125,-0.3295593559741974,-0.2612141966819763,0.20373965799808502
1772555354017707800,3.769707763671875,-0.3386085033416748,-0.2783002257347107,0.1532442569732666
1772555354027639800,3.779639892578125,-0.33097779750823975,-0.2906786799430847,0.11016090959310532
1772555354037571600,3.789571533203125,-0.3078857958316803,-0.29593202471733093,0.09435825049877167
1772555354047503600,3.799503662109375,-0.2767075002193451,-0.2988415062427521,0.09355929493904114
1772555354057435600,3.809435546875,-0.242076575756073,-0.28321540355682373,0.10683834552764893
1772555354067367700,3.81936767578125,-0.21422630548477173,-0.2588178813457489,0.11194241791963577
1772555354077299700,3.8292998046875,-0.19089782238006592,-0.22184015810489655,0.10207567363977432
1772555354087232000,3.83923193359375,-0.16462726891040802,-0.16130857169628143,0.06883548200130463
1772555354097163800,3.849163818359375,-0.14587223529815674,-0.09660334885120392,0.01541939191520214
1772555354107095800,3.859095703125,-0.13300004601478577,-0.033628061413764954,-0.05055437982082367
1772555354117028600,3.869028564453125,-0.11744637787342072,0.020385371521115303,-0.11767109483480453
1772555354126960600,3.878960693359375,-0.10834392160177231,0.06551744043827057,-0.1935286521911621
1772555354136892700,3.888892578125,-0.09591681510210037,0.09149284660816193,-0.26240411400794983
1772555354146825000,3.898824951171875,-0.08016545325517654,0.10482005774974823,-0.30611371994018555
1772555354156757000,3.908757080078125,-0.06452204287052155,0.11329849809408188,-0.32281145453453064
1772555354166688800,3.918688720703125,-0.047052156180143356,0.11441771686077118,-0.28991827368736267
1772555354176620800,3.928620849609375,-0.02721639908850193,0.09827229380607605,-0.2290506511926651
1772555354186552800,3.938552734375,-0.0027182982303202152,0.07115060091018677,-0.14392034709453583
1772555354196484900,3.94848486328125,0.01405615359544754,0.030385326594114304,-0.06714329123497009
1772555354206418000,3.95841796875,0.01928841508924961,-0.00464383140206337,-0.0008199736475944519
1772555354216350000,3.968349853515625,0.01326541043817997,-0.018880290910601616,0.0387820303440094
1772555354226282000,3.978281982421875,-0.0032321845646947622,-0.019765321165323257,0.04337266832590103
1772555354236213800,3.9882138671875,-0.024364633485674858,-0.01766488514840603,0.022204533219337463
1772555354246145800,3.998145751953125,-0.04195639118552208,-0.011464475654065609,-0.01775987073779106
1772555354256077800,4.008077880859375,-0.05443649739027023,-0.007650029845535755,-0.050391584634780884
1772555354266009900,4.018009765625,-0.058340102434158325,-0.01091912854462862,-0.07743635773658752
1772555354275942000,4.02794189453125,-0.055381327867507935,-0.023123864084482193,-0.08418960869312286
1772555354285874000,4.0378740234375,-0.0443471297621727,-0.032388970255851746,-0.082859568297863
1772555354295805700,4.0478056640625,-0.029140746220946312,-0.039715059101581573,-0.07528527081012726
1772555354305738800,4.05773876953125,-0.013193231076002121,-0.02428167685866356,-0.06972101330757141
1772555354315670800,4.0676708984375,-0.0024953135289251804,-0.007849174551665783,-0.06377923488616943
1772555354325603300,4.077603271484375,0.008584801107645035,0.003776147961616516,-0.0638541653752327
1772555354335535000,4.08753515625,0.02311900071799755,0.026382124051451683,-0.06904839724302292
1772555354345467100,4.097467041015625,0.027583124116063118,0.06119047850370407,-0.0797942578792572
1772555354355399200,4.107399169921875,0.025150591507554054,0.08432668447494507,-0.09103652834892273
1772555354365331200,4.117331298828125,0.01832631044089794,0.0907774418592453,-0.11350782215595245
1772555354375263200,4.12726318359375,0.01645703800022602,0.08714089542627335,-0.14180657267570496
1772555354385195300,4.1371953125,0.017376024276018143,0.07482532411813736,-0.1659107655286789
1772555354395128300,4.14712841796875,0.017947273328900337,0.07224099338054657,-0.17389625310897827
1772555354405060000,4.15706005859375,0.014205386862158775,0.07487604022026062,-0.17416365444660187
1772555354414992100,4.1669921875,0.016373200342059135,0.07710777223110199,-0.1622723788022995
1772555354424924200,4.176924072265625,0.01948745734989643,0.08312903344631195,-0.14334987103939056
1772555354434856200,4.186856201171875,0.01785813458263874,0.08659273386001587,-0.1167837604880333
1772555354444788200,4.196788330078125,0.02147209644317627,0.09042802453041077,-0.09220380336046219
1772555354454720300,4.20672021484375,0.030644554644823074,0.09405791759490967,-0.06115160882472992
1772555354464652000,4.216652099609375,0.0412435419857502,0.08550460636615753,-0.036791928112506866
1772555354474584000,4.226583984375,0.05225811153650284,0.07369641214609146,-0.020412424579262733
1772555354484516000,4.23651611328125,0.06252723932266235,0.05873199924826622,-0.011976368725299835
1772555354494449200,4.24644921875,0.06556164473295212,0.04869933798909187,-0.017032645642757416
1772555354504381200,4.256381103515625,0.07504716515541077,0.04237163066864014,-0.02492331527173519
1772555354514313200,4.266313232421875,0.08183237165212631,0.05117630213499069,-0.0277452003210783
1772555354524245200,4.276245361328125,0.0862169861793518,0.07530608773231506,-0.0238959901034832
1772555354534177000,4.286177001953125,0.09474708884954453,0.09039928764104843,-0.014279047027230263
1772555354544109000,4.296109130859375,0.10779320448637009,0.11422315239906311,-0.009435229934751987
1772555354554041000,4.306041015625,0.11772014200687408,0.13796256482601166,-0.006047422997653484
1772555354563973000,4.31597314453125,0.12965679168701172,0.15502631664276123,-0.01603056862950325
1772555354573905200,4.3259052734375,0.14250494539737701,0.16155719757080078,-0.03240687772631645
1772555354583837200,4.335837158203125,0.16140875220298767,0.16291846334934235,-0.05851421132683754
1772555354593770200,4.345770263671875,0.1844743937253952,0.16551344096660614,-0.0876862108707428
1772555354603702000,4.355701904296875,0.20708298683166504,0.16134825348854065,-0.09095703810453415
1772555354613634000,4.365634033203125,0.2272958606481552,0.14199985563755035,-0.08138003945350647
1772555354623566000,4.375566162109375,0.2480182647705078,0.11249937117099762,-0.06796813756227493
1772555354633498000,4.385498046875,0.27284958958625793,0.08845768868923187,-0.045052967965602875
1772555354643430100,4.39543017578125,0.28839558362960815,0.08525281399488449,-0.024133628234267235
1772555354653362000,4.40536181640625,0.2987174689769745,0.08831944316625595,-0.00527605228126049
1772555354663294000,4.4152939453125,0.31223300099372864,0.089250847697258,0.012523825280368328
1772555354673226200,4.425226318359375,0.3233857750892639,0.08287017792463303,0.026333913207054138
1772555354683159000,4.435158935546875,0.34086737036705017,0.06528202444314957,0.035423774272203445
1772555354693091000,4.445091064453125,0.35738563537597656,0.05025807023048401,0.048542771488428116
1772555354703023000,4.455023193359375,0.37460365891456604,0.017659131437540054,0.07759719341993332
1772555354712955100,4.464955078125,0.38964757323265076,-0.022430498152971268,0.11515335738658905
1772555354722887000,4.474886962890625,0.40372025966644287,-0.06247996538877487,0.16429388523101807
1772555354732819200,4.484819091796875,0.4185258448123932,-0.09439288824796677,0.20805227756500244
1772555354742751200,4.494751220703125,0.4308655858039856,-0.10562576353549957,0.23041190207004547
1772555354752683300,4.504683349609375,0.4405432343482971,-0.06988081336021423,0.22647441923618317
1772555354762615300,4.514615234375,0.44759008288383484,-0.01199767179787159,0.20589253306388855
1772555354772547300,4.52454736328125,0.4486161768436432,0.06050528585910797,0.1731809377670288
1772555354782480100,4.534480224609375,0.45294785499572754,0.13837823271751404,0.14006859064102173
1772555354792412200,4.544412109375,0.4661286473274231,0.18873648345470428,0.10885873436927795
1772555354802344200,4.55434423828125,0.48380300402641296,0.20130525529384613,0.08422250300645828
1772555354812276200,4.564276123046875,0.508054792881012,0.16732439398765564,0.07754329591989517
1772555354822208300,4.574208251953125,0.5267617106437683,0.10139116644859314,0.0968153327703476
1772555354832140300,4.584140380859375,0.5393112897872925,0.008331265300512314,0.12618307769298553
1772555354842072300,4.594072265625,0.549362301826477,-0.07089954614639282,0.15716826915740967
1772555354852004000,4.604004150390625,0.544202983379364,-0.11839622259140015,0.18805374205112457
1772555354861936000,4.61393603515625,0.5212239027023315,-0.13892847299575806,0.22916337847709656
1772555354871869200,4.623869140625,0.48201659321784973,-0.13722404837608337,0.2671549916267395
1772555354881801200,4.63380126953125,0.43257492780685425,-0.11577651649713516,0.30218544602394104
1772555354891733200,4.643733154296875,0.37144261598587036,-0.07105165719985962,0.31348496675491333
1772555354901665300,4.653665283203125,0.3136453628540039,-0.021023930981755257,0.30887970328330994
1772555354911597300,4.663597412109375,0.26213982701301575,0.01963641494512558,0.27930504083633423
1772555354921529000,4.673529052734375,0.21824081242084503,0.04247994348406792,0.23166507482528687
1772555354931461000,4.683461181640625,0.1832258403301239,0.04483417794108391,0.17268991470336914
1772555354941393200,4.69339306640625,0.15734951198101044,0.03331872075796127,0.11008470505475998
1772555354951325200,4.7033251953125,0.14377032220363617,0.011423010379076004,0.05202167108654976
1772555354961257200,4.71325732421875,0.1420552283525467,-0.013278849422931671,0.0014339890331029892
1772555354971190300,4.723190185546875,0.1377800554037094,-0.03260194510221481,-0.03687877953052521
1772555354981122300,4.733122314453125,0.14066040515899658,-0.04370710253715515,-0.07543068379163742
1772555354991054000,4.74305419921875,0.14127427339553833,-0.03985270857810974,-0.1126217320561409
1772555355000986000,4.752986083984375,0.14900299906730652,-0.037695981562137604,-0.139236181974411
1772555355010918100,4.762918212890625,0.1518738865852356,-0.03483441472053528,-0.16619935631752014
1772555355020850200,4.77285009765625,0.15906427800655365,-0.028681866824626923,-0.17968565225601196
1772555355030782200,4.7827822265625,0.16929960250854492,-0.015383105725049973,-0.17430472373962402
1772555355040714200,4.79271435546875,0.17368265986442566,0.0078032128512859344,-0.1430005431175232
1772555355050646000,4.80264599609375,0.17570187151432037,0.020905697718262672,-0.08751517534255981
1772555355060578000,4.812578125,0.18181119859218597,0.030432768166065216,-0.007001662626862526
1772555355070511000,4.822510986328125,0.1922273486852646,0.026028700172901154,0.0877181887626648
1772555355080443100,4.832443115234375,0.20660732686519623,0.013593511655926704,0.17761701345443726
1772555355090375200,4.842375244140625,0.21672041714191437,0.0028101056814193726,0.23618897795677185
1772555355100307200,4.85230712890625,0.21922136843204498,0.016584794968366623,0.2518889605998993
1772555355110239200,4.8622392578125,0.21162310242652893,0.045705396682024,0.22402910888195038
1772555355120171000,4.8721708984375,0.1866443008184433,0.07853531837463379,0.1718282699584961
1772555355130103000,4.88210302734375,0.15951521694660187,0.10448702424764633,0.10341938585042953
1772555355140035000,4.89203515625,0.12715841829776764,0.1265755146741867,0.042684607207775116
1772555355149967000,4.901967041015625,0.1081695407629013,0.14337660372257233,-0.008193220011889935
1772555355159900200,4.911900146484375,0.0990113690495491,0.1537289023399353,-0.05547186732292175
1772555355169832200,4.921832275390625,0.08978058397769928,0.15203778445720673,-0.10279703885316849
1772555355179764200,4.93176416015625,0.0814427062869072,0.13892945647239685,-0.14922639727592468
1772555355189696000,4.941696044921875,0.06673992425203323,0.12726294994354248,-0.18427066504955292
1772555355199628000,4.9516279296875,0.052430614829063416,0.11947889626026154,-0.20863568782806396
1772555355209560000,4.96156005859375,0.03861600160598755,0.11056716740131378,-0.21896103024482727
1772555355219492000,4.9714921875,0.022606682032346725,0.09973841160535812,-0.2211836725473404
1772555355229424000,4.981424072265625,0.011128456331789494,0.07954419404268265,-0.22702239453792572
1772555355239356200,4.991356201171875,-0.0026244590990245342,0.06363217532634735,-0.23497134447097778
1772555355249288200,5.0012880859375,-0.013860601931810379,0.0441141352057457,-0.23896874487400055
1772555355259221000,5.011220947265625,-0.02868177369236946,0.026874681934714317,-0.23061375319957733
1772555355269153000,5.021153076171875,-0.03384217992424965,0.014302428811788559,-0.21670326590538025
1772555355279085000,5.0310849609375,-0.03998490422964096,0.0004849974066019058,-0.19329650700092316
1772555355289017000,5.04101708984375,-0.042127951979637146,0.0033367089927196503,-0.16017717123031616
1772555355298949000,5.05094921875,-0.04813409224152565,0.016339756548404694,-0.12352411448955536
1772555355308881200,5.060881103515625,-0.05154506862163544,0.04099263623356819,-0.08881860226392746
1772555355318813200,5.070813232421875,-0.05410191789269447,0.07972785085439682,-0.056802570819854736
1772555355328745500,5.080745361328125,-0.05649237334728241,0.12189288437366486,-0.044089436531066895
1772555355338677500,5.090677490234375,-0.05154889449477196,0.1595359891653061,-0.042726460844278336
1772555355348609500,5.100609619140625,-0.05030040442943573,0.18444639444351196,-0.05984179303050041
1772555355358542300,5.110542236328125,-0.051246289163827896,0.19325950741767883,-0.08403918892145157
1772555355368474400,5.120474365234375,-0.045892804861068726,0.1805889904499054,-0.10680708289146423
1772555355378406400,5.130406494140625,-0.03446243703365326,0.16325843334197998,-0.12945999205112457
1772555355388338400,5.14033837890625,-0.023293938487768173,0.14557529985904694,-0.14104606211185455
1772555355398270500,5.1502705078125,-0.00928361527621746,0.12544837594032288,-0.1440098136663437
1772555355408202500,5.160202392578125,0.0013890024274587631,0.09042434394359589,-0.14030297100543976
1772555355418134500,5.170134521484375,0.009721294045448303,0.055553972721099854,-0.13921712338924408
1772555355428066600,5.180066650390625,0.010318640619516373,0.036901459097862244,-0.14343078434467316
1772555355437998300,5.189998291015625,0.005519555415958166,0.011914433911442757,-0.14317040145397186
1772555355447930400,5.199930419921875,-0.005812993273139,-0.0174407921731472,-0.14971113204956055
1772555355457863400,5.209863525390625,-0.014462372288107872,-0.04278121143579483,-0.15007208287715912
1772555355467795500,5.21979541015625,-0.037532538175582886,-0.05674789473414421,-0.15517070889472961
1772555355477727500,5.2297275390625,-0.05742692947387695,-0.06778457760810852,-0.15087229013442993
1772555355487659500,5.239659423828125,-0.0786411389708519,-0.08622191101312637,-0.13334736227989197
1772555355497591600,5.249591552734375,-0.09245820343494415,-0.0954466387629509,-0.11370979249477386
1772555355507523300,5.2595234375,-0.11269929260015488,-0.09101860225200653,-0.09598192572593689
1772555355517455400,5.269455322265625,-0.1362272948026657,-0.07679693400859833,-0.07904905080795288
1772555355527387400,5.279387451171875,-0.1632882058620453,-0.06502975523471832,-0.06743767112493515
1772555355537319400,5.2893193359375,-0.18224631249904633,-0.050927020609378815,-0.05940849334001541
1772555355547252500,5.29925244140625,-0.1902427226305008,-0.046371154487133026,-0.04830896854400635
1772555355557184500,5.3091845703125,-0.19511446356773376,-0.044858455657958984,-0.03862877935171127
1772555355567116500,5.319116455078125,-0.19070719182491302,-0.046540506184101105,-0.03007204458117485
1772555355577048300,5.32904833984375,-0.18286971747875214,-0.038004208356142044,-0.02554728463292122
1772555355586980400,5.33898046875,-0.17276622354984283,-0.026382174342870712,-0.021923519670963287
1772555355596912400,5.348912353515625,-0.16652964055538177,-0.010839812457561493,-0.01993950828909874
1772555355606844400,5.358844482421875,-0.15279199182987213,0.011456172913312912,-0.016488850116729736
1772555355616776400,5.3687763671875,-0.1392754763364792,0.03603425249457359,-0.006591152399778366
1772555355626708500,5.37870849609375,-0.12502595782279968,0.03660789504647255,0.014642763882875443
1772555355636640300,5.38864013671875,-0.11075203120708466,0.016683483496308327,0.02818552777171135
1772555355646572300,5.398572265625,-0.09999898076057434,0.001145804300904274,0.03523571416735649
1772555355656505300,5.40850537109375,-0.09293598681688309,0.0006444994360208511,0.040527574717998505
1772555355666437400,5.418437255859375,-0.09117750078439713,0.001048235222697258,0.05555339530110359
1772555355676369400,5.428369384765625,-0.08226939290761948,-0.013808871619403362,0.0736352950334549
1772555355686301400,5.438301513671875,-0.07802590727806091,-0.03097374364733696,0.08348473161458969
1772555355696233500,5.4482333984375,-0.08203770220279694,-0.05635599046945572,0.08936283737421036
1772555355706165200,5.458165283203125,-0.09453032910823822,-0.0775717943906784,0.09860427677631378
1772555355716097300,5.46809716796875,-0.10791430622339249,-0.09194952994585037,0.10649485886096954
1772555355726029300,5.478029296875,-0.11557435989379883,-0.09531710296869278,0.10858437418937683
1772555355735961300,5.48796142578125,-0.13210421800613403,-0.08717761933803558,0.11312970519065857
1772555355745894400,5.497894287109375,-0.15232080221176147,-0.07505384832620621,0.12020918726921082
1772555355755826400,5.507826416015625,-0.1717333197593689,-0.07042849808931351,0.1365169882774353
1772555355765758500,5.517758544921875,-0.18757140636444092,-0.07170042395591736,0.1575932502746582
1772555355775690200,5.527690185546875,-0.1932934671640396,-0.08381269872188568,0.1927867829799652
1772555355785622300,5.537622314453125,-0.1913863718509674,-0.09465522319078445,0.22813917696475983
1772555355795554300,5.54755419921875,-0.18917347490787506,-0.09862122684717178,0.2516731917858124
1772555355805486300,5.557486328125,-0.18793776631355286,-0.09499773383140564,0.26372188329696655
1772555355815418400,5.56741845703125,-0.1921250820159912,-0.0679975152015686,0.2573695778846741
1772555355825350400,5.577350341796875,-0.19389447569847107,-0.03314393013715744,0.24352672696113586
1772555355835282400,5.587282470703125,-0.19539979100227356,0.0043979790061712265,0.23707805573940277
1772555355845215200,5.59721533203125,-0.1900833249092102,0.02559966966509819,0.23521091043949127
1772555355855147300,5.607147216796875,-0.17861934006214142,0.020001402124762535,0.23784291744232178
1772555355865079300,5.617079345703125,-0.15578299760818481,-0.029560822993516922,0.25814178586006165
1772555355875011300,5.62701123046875,-0.12754428386688232,-0.11298687756061554,0.294189453125
1772555355884943400,5.636943359375,-0.08027131110429764,-0.20890729129314423,0.3547728955745697
1772555355894875400,5.64687548828125,-0.03168772533535957,-0.29294273257255554,0.42012733221054077
1772555355904807400,5.656807373046875,0.01017982978373766,-0.34711888432502747,0.4690605103969574
1772555355914739500,5.666739501953125,0.03824923187494278,-0.3778603971004486,0.50343918800354
1772555355924671500,5.67667138671875,0.05743091180920601,-0.3794923722743988,0.538707435131073
1772555355934603500,5.686603515625,0.07385355979204178,-0.3449370563030243,0.5606274008750916
1772555355944536300,5.696536376953125,0.08236236125230789,-0.2832867503166199,0.5783403515815735
1772555355954468600,5.706468505859375,0.08815775066614151,-0.20925381779670715,0.5814769864082336
1772555355964400400,5.716400390625,0.09987539052963257,-0.137872576713562,0.5659595131874084
1772555355974332400,5.72633251953125,0.10103695839643478,-0.09063062816858292,0.5200371742248535
1772555355984264400,5.736264404296875,0.10675503313541412,-0.06484829634428024,0.45690882205963135
1772555355994196500,5.746196533203125,0.11583840101957321,-0.06710875034332275,0.38399839401245117
1772555356004128500,5.75612841796875,0.126755490899086,-0.08254683017730713,0.3094535768032074
1772555356014060500,5.766060546875,0.13987478613853455,-0.07585680484771729,0.2369489222764969
1772555356023992300,5.775992431640625,0.15590861439704895,-0.03645133972167969,0.17715749144554138
1772555356033924400,5.78592431640625,0.15816126763820648,0.024150563403964043,0.13237914443016052
1772555356043856400,5.7958564453125,0.1617879569530487,0.10038700699806213,0.11101900041103363
1772555356053789400,5.80578955078125,0.17061839997768402,0.18265320360660553,0.10930757224559784
1772555356063721500,5.815721435546875,0.17104238271713257,0.2462444305419922,0.1330762803554535
1772555356073653500,5.825653564453125,0.17682552337646484,0.26438796520233154,0.17484351992607117
1772555356083585500,5.83558544921875,0.1864754855632782,0.24423983693122864,0.2190093845129013
1772555356093517300,5.845517333984375,0.19101203978061676,0.18443752825260162,0.2518460154533386
1772555356103449300,5.855449462890625,0.18448622524738312,0.10564738512039185,0.2606179118156433
1772555356113381400,5.86538134765625,0.16747227311134338,0.014126356691122055,0.2570229768753052
1772555356123313400,5.8753134765625,0.14323963224887848,-0.07211984694004059,0.23776111006736755
1772555356133245400,5.885245361328125,0.11377473175525665,-0.14873959124088287,0.19775080680847168
1772555356143177500,5.895177490234375,0.07918213307857513,-0.1980871558189392,0.1411764770746231
1772555356153110500,5.905110595703125,0.04449073225259781,-0.21823997795581818,0.07553550601005554
1772555356163042300,5.915042236328125,0.0078514963388443,-0.20972532033920288,0.011275827884674072
1772555356172974300,5.924974365234375,-0.02230340614914894,-0.17472560703754425,-0.041852016001939774
1772555356182906400,5.93490625,-0.055114615708589554,-0.10564479976892471,-0.08756916970014572
1772555356192838400,5.94483837890625,-0.08104686439037323,-0.017875291407108307,-0.12420560419559479
1772555356202770400,5.9547705078125,-0.09727749973535538,0.0714641734957695,-0.1566317230463028
1772555356212702500,5.964702392578125,-0.1057518720626831,0.1602395474910736,-0.19437569379806519
1772555356222634200,5.97463427734375,-0.09872298687696457,0.23840811848640442,-0.22613468766212463
1772555356232566300,5.984566162109375,-0.0862516313791275,0.2860915958881378,-0.24811013042926788
1772555356242498300,5.994498291015625,-0.060813117772340775,0.29280221462249756,-0.25319141149520874
1772555356252431400,6.004431396484375,-0.035501621663570404,0.26355695724487305,-0.2535274028778076
1772555356262363400,6.01436328125,-0.01627998985350132,0.21993836760520935,-0.25520119071006775
1772555356272295400,6.02429541015625,-0.002442144090309739,0.17027999460697174,-0.2622790038585663
1772555356282227500,6.0342275390625,0.00045297853648662567,0.13571350276470184,-0.2751588523387909
1772555356292159200,6.0441591796875,-0.0024890589993447065,0.11022557318210602,-0.28785228729248047
1772555356302091300,6.05409130859375,-0.01118161715567112,0.08593594282865524,-0.29642340540885925
1772555356312023300,6.064023193359375,-0.013339257799088955,0.0638355016708374,-0.3001309931278229
1772555356321955300,6.073955322265625,-0.016934258863329887,0.04529910534620285,-0.3043409287929535
1772555356331887400,6.083887451171875,-0.013783860020339489,0.020318403840065002,-0.2998832166194916
1772555356341819600,6.093819580078125,0.002251299098134041,-0.019480939954519272,-0.28206560015678406
1772555356351752400,6.10375244140625,0.019814452156424522,-0.05586402118206024,-0.25638341903686523
1772555356361684500,6.1136845703125,0.048946235328912735,-0.09447053074836731,-0.22833578288555145
1772555356371616500,6.123616455078125,0.0732722133398056,-0.12389789521694183,-0.1937543749809265
1772555356381548500,6.133548583984375,0.09652773290872574,-0.1440471112728119,-0.16750173270702362
1772555356391480300,6.143480224609375,0.11033175140619278,-0.1424717754125595,-0.15804854035377502
1772555356401412600,6.15341259765625,0.10942067950963974,-0.12734022736549377,-0.1656084507703781
1772555356411344600,6.1633447265625,0.10602720826864243,-0.10681681334972382,-0.17581628262996674
1772555356421276700,6.173276611328125,0.09160139411687851,-0.0944695994257927,-0.18759891390800476
1772555356431208700,6.183208740234375,0.07807152718305588,-0.08053062856197357,-0.19531987607479095
1772555356441140500,6.193140380859375,0.058266133069992065,-0.07240398228168488,-0.19805733859539032
1772555356451073500,6.203073486328125,0.03362856060266495,-0.06948991119861603,-0.1963350921869278
1772555356461005600,6.213005615234375,0.009986614808440208,-0.07618910074234009,-0.18611307442188263
1772555356470937600,6.2229375,-0.006002671085298061,-0.08627057075500488,-0.17093110084533691
1772555356480869600,6.23286962890625,-0.014200946316123009,-0.08811002969741821,-0.15460193157196045
1772555356490801700,6.2428017578125,-0.03502930328249931,-0.07224958389997482,-0.12809595465660095
1772555356500733700,6.252733642578125,-0.051422927528619766,-0.06311121582984924,-0.10736830532550812
1772555356510665500,6.26266552734375,-0.06485790014266968,-0.0551859475672245,-0.09193766862154007
1772555356520597500,6.272597412109375,-0.07300104945898056,-0.04785320162773132,-0.08315722644329071
1772555356530529500,6.282529541015625,-0.07216093689203262,-0.0341544933617115,-0.08667538315057755
1772555356540461600,6.292461669921875,-0.07333245873451233,-0.012399396859109402,-0.08680853992700577
1772555356550393600,6.3023935546875,-0.07069403678178787,0.015889665111899376,-0.08120189607143402
1772555356560326700,6.31232666015625,-0.06212558597326279,0.041346557438373566,-0.07194874435663223
1772555356570258700,6.3222587890625,-0.04999130964279175,0.06998226046562195,-0.051562659442424774
1772555356580190500,6.3321904296875,-0.04199410602450371,0.09407320618629456,-0.02680937759578228
1772555356590122500,6.34212255859375,-0.027969522401690483,0.10480368137359619,-0.0010761991143226624
1772555356600054500,6.352054443359375,-0.013463816605508327,0.10106034576892853,0.01716751977801323
1772555356609986600,6.361986572265625,0.00016375910490751266,0.07539423555135727,0.0242592915892601
1772555356619918600,6.371918701171875,0.008306640200316906,0.04701559245586395,0.019892506301403046
1772555356629850600,6.3818505859375,0.014264740981161594,0.02091844193637371,0.014460928738117218
1772555356639782400,6.391782470703125,0.022247567772865295,-0.007135561667382717,0.0012497855350375175
1772555356649714400,6.40171435546875,0.026500899344682693,-0.027870401740074158,-0.01627993956208229
1772555356659647500,6.4116474609375,0.030320405960083008,-0.035362936556339264,-0.03721344843506813
1772555356669579500,6.42157958984375,0.0306905098259449,-0.03383877873420715,-0.05594952777028084
1772555356679511600,6.431511474609375,0.03219040110707283,-0.021593565121293068,-0.07362759113311768
1772555356689443600,6.441443603515625,0.03411238640546799,-0.009597867727279663,-0.0871664360165596
1772555356699375600,6.451375732421875,0.037104181945323944,-0.0050310781225562096,-0.10208813101053238
1772555356709307400,6.461307373046875,0.035264186561107635,-0.007893024943768978,-0.12402089685201645
1772555356719239400,6.471239501953125,0.03746528923511505,-0.027807610109448433,-0.1389114409685135
1772555356729171500,6.48117138671875,0.038738951086997986,-0.03954046964645386,-0.14129522442817688
1772555356739103500,6.491103515625,0.034640081226825714,-0.04041505232453346,-0.1340881735086441
1772555356749035500,6.501035400390625,0.041355472058057785,-0.02775048278272152,-0.11561586707830429
1772555356758967600,6.510967529296875,0.05502387881278992,-0.01535799540579319,-0.09982945024967194
1772555356768900600,6.520900634765625,0.0641050934791565,-0.005046493373811245,-0.0903717577457428
1772555356778832400,6.530832275390625,0.06270240992307663,0.0031792130321264267,-0.10116315633058548
1772555356788764400,6.540764404296875,0.049934882670640945,0.009436393156647682,-0.12486991286277771
1772555356798696400,6.550696533203125,0.04611936956644058,0.014673765748739243,-0.1558142453432083
1772555356808628500,6.56062841796875,0.04264794662594795,-0.0011129966005682945,-0.18368898332118988
1772555356818560500,6.570560546875,0.034305062144994736,-0.00012230128049850464,-0.19503964483737946
1772555356828492500,6.580492431640625,0.030256258323788643,0.005193103104829788,-0.1809866726398468
1772555356838424300,6.59042431640625,0.03705770522356033,0.01795177347958088,-0.14799703657627106
1772555356848356600,6.600356689453125,0.04988272488117218,0.026565060019493103,-0.11368869245052338
1772555356858288600,6.61028857421875,0.05395735800266266,0.03367010876536369,-0.09029575437307358
1772555356868220700,6.620220703125,0.04838278144598007,0.05792184919118881,-0.08121069520711899
1772555356878153500,6.630153564453125,0.03948915749788284,0.08532311022281647,-0.08328182995319366
1772555356888085500,6.64008544921875,0.03483760356903076,0.11821890622377396,-0.07736786454916
1772555356898017500,6.650017578125,0.03428579121828079,0.14670461416244507,-0.06761110574007034
1772555356907949600,6.659949462890625,0.04431057721376419,0.1820240467786789,-0.053841643035411835
1772555356917881600,6.669881591796875,0.055650316178798676,0.21836847066879272,-0.03745787590742111
1772555356927813600,6.679813720703125,0.07143311947584152,0.2360425889492035,-0.026369420811533928
1772555356937745700,6.68974560546875,0.08471350371837616,0.25082528591156006,-0.027816051617264748
1772555356947677700,6.699677734375,0.08735059201717377,0.2722380757331848,-0.048706259578466415
1772555356957609500,6.709609375,0.09713664650917053,0.28360414505004883,-0.06936173886060715
1772555356967542500,6.71954248046875,0.10307620465755463,0.27489814162254333,-0.07498709857463837
1772555356977474600,6.729474609375,0.12341156601905823,0.23191951215267181,-0.060723476111888885
1772555356987406600,6.739406494140625,0.1397944837808609,0.16033321619033813,-0.042659588158130646
1772555356997338600,6.749338623046875,0.15525546669960022,0.06618034094572067,-0.014426348730921745
1772555357007270700,6.759270751953125,0.172587588429451,-0.038068562746047974,0.015940610319375992
1772555357017202700,6.76920263671875,0.18405301868915558,-0.12222418934106827,0.03451216220855713
1772555357027134500,6.779134521484375,0.1919877976179123,-0.17818483710289001,0.04957372322678566
1772555357037066500,6.78906640625,0.18505451083183289,-0.21554100513458252,0.0676744282245636
1772555357046998500,6.79899853515625,0.17825689911842346,-0.21693064272403717,0.09366840869188309
1772555357056930600,6.8089306640625,0.18402956426143646,-0.19924193620681763,0.15003661811351776
1772555357066862600,6.818862548828125,0.19804376363754272,-0.12783850729465485,0.2019232213497162
1772555357076795600,6.828795654296875,0.20574802160263062,0.05982540547847748,0.18421345949172974
1772555357086727700,6.838727783203125,0.17110994458198547,0.31957918405532837,0.09300839900970459
1772555357096659500,6.848659423828125,0.10166137665510178,0.5106479525566101,-0.013061311095952988
1772555357106591500,6.858591552734375,0.042946506291627884,0.5648660063743591,-0.0897703468799591
1772555357116523500,6.8685234375,-0.007556616328656673,0.452583372592926,-0.1174728125333786
1772555357126455600,6.87845556640625,-0.043268464505672455,0.23013055324554443,-0.1031637117266655
1772555357136387600,6.8883876953125,-0.056818895041942596,-0.03983594477176666,-0.0408950112760067
1772555357146319600,6.898319580078125,-0.04071466252207756,-0.27931928634643555,0.05404879152774811
1772555357156251400,6.90825146484375,-0.027457447722554207,-0.4257316291332245,0.14271314442157745
1772555357166183400,6.918183349609375,-0.021652093157172203,-0.45864343643188477,0.1975933462381363
1772555357176115500,6.928115478515625,-0.0315750315785408,-0.385968416929245,0.20375776290893555
1772555357186048500,6.938048583984375,-0.05225972458720207,-0.258675217628479,0.18452009558677673
1772555357195980500,6.94798046875,-0.060466788709163666,-0.12935450673103333,0.16546384990215302
1772555357205912600,6.95791259765625,-0.049717895686626434,-0.017689431086182594,0.1641198694705963
1772555357215844600,6.9678447265625,-0.025998182594776154,0.05401884764432907,0.17936167120933533
1772555357225776400,6.9777763671875,0.012146814726293087,0.08624488115310669,0.20434533059597015
1772555357235708400,6.98770849609375,0.051642291247844696,0.09824774414300919,0.23744763433933258
1772555357245640400,6.997640380859375,0.07914039492607117,0.08810202777385712,0.2700667083263397
1772555357255572500,7.007572509765625,0.10224757343530655,0.07392522692680359,0.28696873784065247
1772555357265504500,7.01750439453125,0.11836773157119751,0.045679353177547455,0.2848510444164276
1772555357275436500,7.0274365234375,0.11899544298648834,0.01405617967247963,0.26817458868026733
1772555357285369600,7.03736962890625,0.1180855855345726,-0.02383938804268837,0.24036161601543427
1772555357295301400,7.04730126953125,0.10700736939907074,-0.0633590966463089,0.19873081147670746
1772555357305233400,7.0572333984375,0.09537973254919052,-0.10119907557964325,0.1744403839111328
1772555357315165400,7.06716552734375,0.0838804692029953,-0.12547005712985992,0.1532924920320511
1772555357325097500,7.077097412109375,0.07212287932634354,-0.13139399886131287,0.1446569263935089
1772555357335029200,7.087029296875,0.05853383615612984,-0.12660589814186096,0.1538192629814148
1772555357344961300,7.096961181640625,0.03783303126692772,-0.10946027934551239,0.16684365272521973
1772555357354893300,7.106893310546875,0.0187072716653347,-0.07083937525749207,0.18021778762340546
1772555357364825300,7.116825439453125,0.008576290681958199,-0.01554050575941801,0.1846926510334015
1772555357374757400,7.12675732421875,-0.0019394680857658386,0.03640391677618027,0.18306466937065125
1772555357384689200,7.136689208984375,-0.014147458598017693,0.074125736951828,0.17888076603412628
1772555357394622200,7.146622314453125,-0.01859121024608612,0.10430654138326645,0.16435375809669495
1772555357404554200,7.15655419921875,-0.021548040211200714,0.12226580828428268,0.14323163032531738
1772555357414486300,7.166486328125,-0.019030820578336716,0.14114922285079956,0.11535179615020752
1772555357424418300,7.176418212890625,-0.013897767290472984,0.15366657078266144,0.0777718722820282
1772555357434350300,7.186350341796875,-0.013967009261250496,0.15104149281978607,0.0271768718957901
1772555357444282400,7.196282470703125,-0.015046996995806694,0.11382465809583664,-0.029277555644512177
1772555357454214100,7.206214111328125,-0.016567928716540337,0.041210103780031204,-0.08978377282619476
1772555357464146200,7.216146240234375,-0.01727122813463211,-0.04367867112159729,-0.13501790165901184
1772555357474078200,7.226078125,0.003242303617298603,-0.1073058545589447,-0.15755756199359894
1772555357484010200,7.23601025390625,0.02146506868302822,-0.1184929683804512,-0.1477309763431549
1772555357493942300,7.2459423828125,0.03790529817342758,-0.11355360597372055,-0.12021519243717194
1772555357503875300,7.255875244140625,0.05737340450286865,-0.12565264105796814,-0.08719171583652496
1772555357513807400,7.265807373046875,0.08540131151676178,-0.15665185451507568,-0.07109025120735168
1772555357523739100,7.2757392578125,0.09725411981344223,-0.1899631768465042,-0.0788300633430481
1772555357533671200,7.285671142578125,0.09521467238664627,-0.20424598455429077,-0.10262541472911835
1772555357543603200,7.295603271484375,0.09442500025033951,-0.1825682669878006,-0.14436383545398712
1772555357553535200,7.30553515625,0.0911698192358017,-0.1357104778289795,-0.181041419506073
1772555357563467300,7.31546728515625,0.09427821636199951,-0.07604321837425232,-0.19478312134742737
1772555357573399300,7.3253994140625,0.09709291160106659,-0.016982028260827065,-0.189132422208786
1772555357583331000,7.3353310546875,0.10152538120746613,0.027484824880957603,-0.18549302220344543
1772555357593263000,7.34526318359375,0.10776063799858093,0.050907060503959656,-0.1851436048746109
1772555357603195100,7.355195068359375,0.10626689344644547,0.07339849323034286,-0.1942693293094635
1772555357613128200,7.365128173828125,0.10210277140140533,0.1020762100815773,-0.2065126746892929
1772555357623060200,7.375060302734375,0.09585366398096085,0.12640152871608734,-0.2144283950328827
1772555357632992300,7.3849921875,0.08692941069602966,0.14692570269107819,-0.2134598046541214
1772555357642924300,7.39492431640625,0.07907813042402267,0.16351303458213806,-0.19843906164169312
1772555357652856000,7.40485595703125,0.06862122565507889,0.16321340203285217,-0.170538991689682
1772555357662788000,7.4147880859375,0.056301139295101166,0.15404507517814636,-0.1444656103849411
1772555357672720100,7.42472021484375,0.03724728897213936,0.13277333974838257,-0.11570799350738525
1772555357682652200,7.434652099609375,0.017136797308921814,0.09194695204496384,-0.08064045757055283
1772555357692584200,7.444584228515625,0.00790335051715374,0.04807989299297333,-0.042640604078769684
1772555357702516000,7.454515869140625,-0.006268988363444805,0.009358339011669159,-0.01776169240474701
1772555357712449300,7.46444921875,-0.02733192965388298,-0.02269919589161873,-0.003841348923742771
1772555357722381000,7.474381103515625,-0.053426191210746765,-0.04248139262199402,-0.005219741724431515
1772555357732313000,7.48431298828125,-0.0851372480392456,-0.0497686006128788,-0.012405750341713428
1772555357742245000,7.4942451171875,-0.11646118015050888,-0.03821461275219917,-0.0167851522564888
1772555357752177200,7.50417724609375,-0.14261022210121155,-0.024562982842326164,-0.023909904062747955
1772555357762109200,7.514109130859375,-0.1643485575914383,-0.014915074221789837,-0.027247397229075432
1772555357772041000,7.524041015625,-0.18267802894115448,-0.010403946042060852,-0.030699120834469795
1772555357781973200,7.53397314453125,-0.1903441995382309,-0.0022434331476688385,-0.03825465962290764
1772555357791905300,7.5439052734375,-0.1919460892677307,0.005605434998869896,-0.03929116204380989
1772555357801837300,7.55383740234375,-0.18514233827590942,0.011378027498722076,-0.03640659898519516
1772555357811769300,7.563769287109375,-0.17496000230312347,0.01374104991555214,-0.034524813294410706
1772555357821702100,7.5737021484375,-0.17100876569747925,0.00571039505302906,-0.02824210748076439
1772555357831634200,7.58363427734375,-0.16310742497444153,-0.017797594889998436,-0.024549104273319244
1772555357841566200,7.593566162109375,-0.1554637998342514,-0.04358429089188576,-0.020625239238142967
1772555357851498200,7.603498291015625,-0.14863678812980652,-0.07879074662923813,-0.018978076055645943
1772555357861430300,7.61343017578125,-0.1466674953699112,-0.1315900981426239,-0.019809100776910782
1772555357871362300,7.6233623046875,-0.14278674125671387,-0.18786802887916565,-0.021255996078252792
1772555357881294300,7.63329443359375,-0.14367540180683136,-0.22602243721485138,-0.030925508588552475
1772555357891226400,7.643226318359375,-0.15909457206726074,-0.233242005109787,-0.03699512034654617
1772555357901158100,7.653158203125,-0.18135200440883636,-0.22230179607868195,-0.029126858338713646
1772555357911090200,7.663090087890625,-0.20506851375102997,-0.2138718217611313,-0.012813933193683624
1772555357921022200,7.673022216796875,-0.23214362561702728,-0.22105258703231812,0.0024984627962112427
1772555357930955300,7.682955322265625,-0.2566838562488556,-0.21889063715934753,0.015487498603761196
1772555357940887300,7.69288720703125,-0.2844969630241394,-0.20167534053325653,0.026539921760559082
1772555357950819300,7.7028193359375,-0.3019813895225525,-0.17152994871139526,0.04390719532966614
1772555357960751400,7.71275146484375,-0.3137812316417694,-0.11859191209077835,0.07789778709411621
1772555357970683100,7.72268310546875,-0.32340002059936523,-0.0424199104309082,0.13417145609855652
1772555357980615200,7.732615234375,-0.33258938789367676,0.060741081833839417,0.2201959490776062
1772555357990547200,7.742547119140625,-0.3387942910194397,0.18214420974254608,0.32830190658569336
1772555358000479200,7.752479248046875,-0.33183762431144714,0.29995065927505493,0.4325016438961029
1772555358010411300,7.762411376953125,-0.3150583803653717,0.40520167350769043,0.5027416944503784
1772555358020343300,7.77234326171875,-0.3053053021430969,0.49242380261421204,0.5159192085266113
1772555358030275000,7.782275146484375,-0.2845110595226288,0.5572088956832886,0.507343053817749
1772555358040208100,7.7922080078125,-0.2513788342475891,0.5701694488525391,0.47058436274528503
1772555358050140200,7.80214013671875,-0.21440322697162628,0.5530143976211548,0.4381100535392761
1772555358060072200,7.812072265625,-0.16974344849586487,0.5288872122764587,0.41466930508613586
1772555358070004200,7.822004150390625,-0.11218056082725525,0.4855673909187317,0.4456042945384979
1772555358079936300,7.831936279296875,-0.037843767553567886,0.40705806016921997,0.5447256565093994
1772555358089868300,7.841868408203125,0.05989797040820122,0.29951590299606323,0.7040644884109497
1772555358099800000,7.851800048828125,0.17417417466640472,0.19329553842544556,0.8770027756690979
1772555358109732000,7.861732177734375,0.27419373393058777,0.1120225265622139,1.0074793100357056
1772555358119664000,7.8716640625,0.33453118801116943,0.06605999171733856,1.077386736869812
1772555358129596200,7.88159619140625,0.35386309027671814,0.03708479925990105,1.078523874282837
1772555358139528200,7.891528076171875,0.36277326941490173,0.03469840809702873,1.0212262868881226
1772555358149460000,7.9014599609375,0.3458038866519928,0.06400410085916519,0.9170144200325012
1772555358159393300,7.911393310546875,0.3204105794429779,0.10964347422122955,0.7781745791435242
1772555358169325000,7.921324951171875,0.2762114405632019,0.14134255051612854,0.6355026364326477
1772555358179257000,7.931257080078125,0.23102179169654846,0.13434554636478424,0.49250149726867676
1772555358189189000,7.941189208984375,0.19483476877212524,0.0851665586233139,0.3669095039367676
1772555358199121200,7.95112109375,0.17041976749897003,0.003318745642900467,0.2602616846561432
1772555358209053200,7.96105322265625,0.15189988911151886,-0.09364455193281174,0.1662347912788391
1772555358218985000,7.97098486328125,0.13403742015361786,-0.1944907307624817,0.07314000278711319
1772555358228917200,7.980917236328125,0.10741273313760757,-0.28437137603759766,-0.008851001970469952
1772555358238849300,7.990849365234375,0.07894610613584518,-0.35337936878204346,-0.06887993961572647
1772555358248781300,8.00078125,0.04167569801211357,-0.3954631984233856,-0.10292419046163559
1772555358258714000,8.010714111328125,-0.001968489959836006,-0.4179571568965912,-0.1192905604839325
1772555358268646100,8.020646240234376,-0.04351300373673439,-0.4260387718677521,-0.135222926735878
1772555358278578200,8.030578125,-0.08019296824932098,-0.4460497796535492,-0.15831637382507324
1772555358288510200,8.04051025390625,-0.11159031093120575,-0.46872952580451965,-0.20255282521247864
1772555358298442200,8.050442138671874,-0.1349441409111023,-0.4772616922855377,-0.25911039113998413
1772555358308374300,8.060374267578124,-0.1576095074415207,-0.4533558487892151,-0.30892452597618103
1772555358318306300,8.070306396484375,-0.17458829283714294,-0.390475869178772,-0.33497804403305054
1772555358328238300,8.08023828125,-0.1826784312725067,-0.30860868096351624,-0.33488431572914124
1772555358338171000,8.0901708984375,-0.19034744799137115,-0.2276732176542282,-0.29689276218414307
1772555358348102700,8.1001025390625,-0.19083720445632935,-0.13556139171123505,-0.22971293330192566
1772555358358034700,8.11003466796875,-0.17919790744781494,-0.035892874002456665,-0.1346324235200882
1772555358367966700,8.119966796875,-0.1587112843990326,0.055676985532045364,-0.02407236024737358
1772555358377899500,8.1298994140625,-0.13841885328292847,0.12227560579776764,0.07407881319522858
1772555358387831800,8.139831787109374,-0.124540314078331,0.15321753919124603,0.15154030919075012
1772555358397763800,8.149763916015624,-0.1144140213727951,0.13244615495204926,0.19828878343105316
1772555358407696000,8.15969580078125,-0.09553886950016022,0.06904640048742294,0.21187517046928406
1772555358417627600,8.169627685546875,-0.078871950507164,-0.01184738427400589,0.18083103001117706
1772555358427559700,8.1795595703125,-0.07775422185659409,-0.08658420294523239,0.11135581880807877
1772555358437491700,8.18949169921875,-0.08116169273853302,-0.13957490026950836,0.021059129387140274
1772555358447423700,8.199423828125,-0.08584006875753403,-0.15719729661941528,-0.0844329446554184
1772555358457355800,8.209355712890625,-0.08997000753879547,-0.12981706857681274,-0.17329737544059753
1772555358467287600,8.21928759765625,-0.0983688160777092,-0.06593316793441772,-0.2146293669939041
1772555358477219600,8.229219482421875,-0.10361571609973907,-0.02078726515173912,-0.20593567192554474
1772555358487152600,8.239152587890626,-0.08955316245555878,0.0013989955186843872,-0.1761130690574646
1772555358497084700,8.249084716796874,-0.0740959495306015,0.011683709919452667,-0.14678317308425903
1772555358507016700,8.2590166015625,-0.06699994951486588,0.004353892058134079,-0.12462513148784637
1772555358516948700,8.26894873046875,-0.062335237860679626,-0.003556995652616024,-0.1169583722949028
1772555358526880800,8.278880859375,-0.05821453034877777,-0.0030246302485466003,-0.126949742436409
1772555358536812500,8.2888125,-0.06321772933006287,-0.01085914857685566,-0.15148603916168213
1772555358546744600,8.29874462890625,-0.05777556449174881,-0.007353629916906357,-0.18429166078567505
1772555358556676600,8.308676513671875,-0.051624950021505356,0.015525201335549355,-0.20066235959529877
1772555358566608600,8.318608642578125,0.01915867254137993,0.0736289843916893,-0.14847531914710999
1772555358576540700,8.328540771484375,0.05390429496765137,0.22583217918872833,-0.1633993536233902
1772555358586472700,8.33847265625,0.0262359157204628,0.2835013270378113,-0.1932736337184906
1772555358596405800,8.34840576171875,0.028822612017393112,0.25322777032852173,-0.2308126538991928
1772555358606337500,8.358337646484374,0.06105804815888405,0.14665977656841278,-0.2617460787296295
1772555358616269600,8.36826953125,0.10604622960090637,0.03257555142045021,-0.27534183859825134
1772555358626201600,8.37820166015625,0.1674182415008545,-0.045613259077072144,-0.23372648656368256
1772555358636133600,8.388133544921875,0.20404812693595886,-0.16468168795108795,-0.18078090250492096
