time,seconds_elapsed,z,y,x
1772555165519692300,0.0636923828125,-0.00025786133483052254,-0.00026961974799633026,0.0002261856570839882
1772555165529625000,0.073625,-0.0005870279856026173,-0.001134614460170269,0.0012573609128594398
1772555165539557000,0.08355712890625,0.002908637747168541,0.00009869597852230072,-0.0004723621532320976
1772555165549490200,0.093490234375,0.00023668771609663963,-0.000018483027815818787,-0.000538940541446209
1772555165559422200,0.103422119140625,0.0008656489662826061,-0.000122949481010437,-0.00112864188849926
1772555165569355300,0.113355224609375,-0.00039162952452898026,0.001699984073638916,0.0005805743858218193
1772555165579287000,0.123287109375,-0.00016468064859509468,0.00044337473809719086,9.797513484954834e-7
1772555165589220000,0.13322021484375,0.0000044298358261585236,0.0010090302675962448,0.0005724942311644554
1772555165599152000,0.143152099609375,-0.0010364139452576637,0.0019896812736988068,0.0009046467021107674
1772555165609085200,0.153085205078125,-0.00026995642110705376,0.00005383044481277466,-0.000540916807949543
1772555165619017200,0.163017333984375,-0.0000997418537735939,-0.00003042258322238922,0.003001525066792965
1772555165628950000,0.172949951171875,-0.001628662459552288,0.00010087154805660248,-0.00032502971589565277
1772555165638882000,0.182882080078125,-0.0006040721200406551,0.0004001650959253311,0.0004309825599193573
1772555165648815000,0.192815185546875,-0.00031591812148690224,0.0013003144413232803,-0.0009376164525747299
1772555165658747100,0.2027470703125,0.0005019051022827625,-0.0013399962335824966,-0.00020315218716859818
1772555165668680200,0.21268017578125,-0.000047771260142326355,0.0024273116141557693,-0.00036693643778562546
1772555165678612200,0.2226123046875,-0.001788224559277296,0.002620851621031761,0.0009240880608558655
1772555165688544000,0.2325439453125,0.0015990501269698143,0.0004932507872581482,-0.00015981867909431458
1772555165698477000,0.24247705078125,-0.0006257933564484119,0.0005218461155891418,-0.0005490779876708984
1772555165708409000,0.2524091796875,-0.0006273910403251648,-0.0012891031801700592,-0.0010452251881361008
1772555165718342100,0.262342041015625,0.0011519440449774265,0.0017376504838466644,0.000522121787071228
1772555165728274200,0.272274169921875,-0.0011879093945026398,0.0006593354046344757,-0.0008350247517228127
1772555165738207000,0.28220703125,0.0012714490294456482,0.0010810792446136475,-0.0009829066693782806
1772555165748139300,0.29213916015625,0.0022797221317887306,-0.0005807336419820786,-0.003751528449356556
1772555165758072000,0.302072021484375,0.0004038270562887192,0.0009580925107002258,0.0009255530312657356
1772555165768004000,0.312004150390625,-0.001424433197826147,-0.0032627517357468605,-0.0020654434338212013
1772555165777937200,0.321937255859375,0.002053646370768547,0.0017655938863754272,0.0015934696421027184
1772555165787869200,0.331869140625,0.0011819936335086823,-0.0005827806890010834,-0.0015029869973659515
1772555165797802200,0.34180224609375,-0.0011011636815965176,0.0006516575813293457,0.0012138010933995247
1772555165807734300,0.351734375,0.0013739783316850662,0.001060985028743744,0.000038282014429569244
1772555165817667300,0.361667236328125,-0.0006182389333844185,-0.0004921313375234604,-0.00031062308698892593
1772555165827599000,0.37159912109375,-0.0003330144099891186,-0.0013717738911509514,0.0009581064805388451
1772555165837532200,0.3815322265625,0.00037315860390663147,0.0007753781974315643,-0.0025722812861204147
1772555165847464200,0.391464111328125,0.0002085752785205841,-0.00005739182233810425,0.0002629198133945465
1772555165857396200,0.401396240234375,0.0008713654242455959,0.000559559091925621,0.0008359570056200027
1772555165867329000,0.4113291015625,-0.0002615428529679775,0.0010913927108049393,-0.0008343774825334549
1772555165877261000,0.421260986328125,-0.00008080527186393738,-0.0004126504063606262,-0.00021221302449703217
1772555165887194000,0.431194091796875,0.0007575578056275845,-0.0006344914436340332,0.00008632708340883255
1772555165897126100,0.441126220703125,0.0009065959602594376,0.0031628720462322235,-0.0012984909117221832
1772555165907059200,0.45105908203125,0.0010501407086849213,-0.0003349240869283676,0.0018293913453817368
1772555165916991200,0.4609912109375,-0.0001194048672914505,0.0011700000613927841,0.0004975246265530586
1772555165926924300,0.47092431640625,-0.0012728199362754822,-0.0014673275873064995,0.00026023760437965393
1772555165936856000,0.48085595703125,-0.0006863586604595184,-0.0008332934230566025,0.001021008938550949
1772555165946789000,0.4907890625,0.0003717150539159775,-0.0008340915665030479,0.001032993197441101
1772555165956721200,0.50072119140625,0.0012242989614605904,-0.00033926963806152344,0.00032190512865781784
1772555165966654000,0.510654052734375,0.0011819545179605484,-0.0015328982844948769,0.0013562766835093498
1772555165976586000,0.5205859375,0.0010886378586292267,0.002461569383740425,-0.00025224871933460236
1772555165986519000,0.53051904296875,0.0032748267985880375,0.00012278184294700623,0.0005040895193815231
1772555165996451000,0.540451171875,0.0005509280599653721,-0.0025420617312192917,0.0015289941802620888
1772555166006384000,0.550384033203125,-0.00012684660032391548,-0.0017223404720425606,0.00022617541253566742
1772555166016316200,0.560316162109375,-0.00029633333906531334,0.00008209235966205597,0.001718234270811081
1772555166026248200,0.570248291015625,0.00118331890553236,0.0005398895591497421,0.0003360537812113762
1772555166036181200,0.58018115234375,0.00033127376809716225,0.001836692914366722,-0.003064376302063465
1772555166046113300,0.59011328125,0.00016109738498926163,-0.0026853540912270546,0.0012289062142372131
1772555166056046300,0.60004638671875,-0.0016287011094391346,0.00041042640805244446,-0.0015776855871081352
1772555166065978000,0.60997802734375,0.0011415188200771809,0.0006937868893146515,-0.0009624958038330078
1772555166075911200,0.6199111328125,-0.0001961137168109417,-0.0003057420253753662,-0.0014331350103020668
1772555166085843200,0.62984326171875,0.0001469012349843979,0.001741429790854454,0.0014433450996875763
1772555166095776000,0.63977587890625,-0.0002548494376242161,-0.00041430629789829254,-0.0007477868348360062
1772555166105708000,0.6497080078125,-0.000041530467569828033,-0.0015613306313753128,-0.0025843027979135513
1772555166115641000,0.65964111328125,-0.001937855500727892,-0.0016506901010870934,-0.0005753673613071442
1772555166125573000,0.669572998046875,-0.0017082910053431988,0.0001682490110397339,0.0008187983185052872
1772555166135506200,0.679506103515625,0.0009048799984157085,0.0009781885892152786,0.003398146480321884
1772555166145439000,0.68943896484375,0.0008910312317311764,-0.00004925765097141266,-0.0015012705698609352
1772555166155372000,0.6993720703125,0.00021507823839783669,0.0004750974476337433,-0.0015223510563373566
1772555166165304000,0.709303955078125,-0.0006131650879979134,-0.0007630065083503723,-0.0006192736327648163
1772555166175236900,0.71923681640625,-0.0017152116633951664,-0.0009869122877717018,0.002166224643588066
1772555166185169000,0.7291689453125,0.0009455522522330284,0.0001119077205657959,-0.0010135890915989876
1772555166195101000,0.739100830078125,-0.0013930844143033028,0.0016826651990413666,0.0006578294560313225
1772555166205034000,0.749033935546875,0.0004066796973347664,0.0004469584673643112,-0.0017573917284607887
1772555166214966000,0.758966064453125,0.0015799561515450478,0.0024625826627016068,0.0008531911298632622
1772555166224899000,0.768899169921875,0.0013671694323420525,0.0002505611628293991,-0.0005393754690885544
1772555166234830800,0.778830810546875,-0.000134169589728117,0.0012420807033777237,-0.0017516287043690681
1772555166244764200,0.78876416015625,0.0009577260352671146,0.00067855603992939,0.000632166862487793
1772555166254696000,0.798696044921875,0.002183524426072836,-0.0007185814902186394,-0.0009814780205488205
1772555166264629000,0.80862890625,0.001000547781586647,-0.000029088929295539856,0.00045156851410865784
1772555166274561000,0.81856103515625,-0.0009176279418170452,-0.0005887961015105247,0.00008324533700942993
1772555166284493800,0.828493896484375,0.00018785009160637856,-0.0013496605679392815,0.0011035017669200897
1772555166294425900,0.83842578125,-0.002792191691696644,-0.00022419169545173645,0.00066349096596241
1772555166304359000,0.84835888671875,-0.0009908294305205345,-0.001401042565703392,-0.0006257453933358192
1772555166314291000,0.858291015625,0.0007187444716691971,-0.0004071258008480072,-0.000012191012501716614
1772555166324224000,0.86822412109375,0.0007472401484847069,0.0005348343402147293,-0.0008889036253094673
1772555166334156000,0.878156005859375,0.0009030024521052837,0.0007628519088029861,0.0006676744669675827
1772555166344089000,0.888089111328125,-0.0018501735758036375,-0.0007301168516278267,0.0009739380329847336
1772555166354021000,0.898021240234375,0.00024125399067997932,0.0004237815737724304,-0.0016850149258971214
1772555166363953000,0.907952880859375,-0.003961746580898762,-0.0002752970904111862,0.0006726812571287155
1772555166373886000,0.917885986328125,0.0007470985874533653,-0.0013622129335999489,0.0009447922930121422
1772555166383818000,0.92781787109375,0.00029515987262129784,0.0011153258383274078,-0.0004693465307354927
1772555166393750800,0.937750732421875,0.000958313699811697,-0.0017622085288167,0.00226536113768816
1772555166403683000,0.94768310546875,-0.0007160156965255737,0.00049641914665699,-0.002382121980190277
1772555166413615900,0.957615966796875,-0.0010675806552171707,0.0006679892539978027,-0.0002991519868373871
1772555166423548000,0.9675478515625,0.00011832499876618385,-0.0023829275742173195,-0.00043736957013607025
1772555166433481000,0.97748095703125,-0.00005677156150341034,0.0011904388666152954,-0.0007559964433312416
1772555166443413000,0.9874130859375,-0.001191544346511364,0.0027076415717601776,0.0007734568789601326
1772555166453346000,0.997345947265625,-0.0006978600285947323,0.00028278306126594543,-0.0004348885267972946
1772555166463278000,1.007278076171875,0.0003682035021483898,-0.000979023054242134,-0.0006399517878890038
1772555166473211100,1.017211181640625,0.001317029818892479,-0.0012832898646593094,-0.00037888623774051666
1772555166483143200,1.02714306640625,0.00044244760647416115,0.0015545748174190521,-0.0014297692105174065
1772555166493076000,1.037075927734375,0.0014959555119276047,-0.002284170128405094,0.0013856897130608559
1772555166503008000,1.047008056640625,0.0005718385800719261,0.0016961898654699326,0.0024858415126800537
1772555166512940000,1.05693994140625,0.000055339187383651733,0.0018740780651569366,-0.0018067965283989906
1772555166522872800,1.066872802734375,0.0019824025221168995,-0.00005937740206718445,-0.0005082394927740097
1772555166532804900,1.076804931640625,-0.0003003329038619995,0.00014401599764823914,0.0035695433616638184
1772555166542738000,1.086738037109375,0.0005574710667133331,-0.0011811722069978714,0.0018701804801821709
1772555166552670000,1.096669921875,0.00013995077461004257,-0.00015400908887386322,-0.0016682613641023636
1772555166562603000,1.10660302734375,-0.002729871543124318,0.003371482715010643,0.00035414285957813263
1772555166572535000,1.11653515625,-0.0009529171511530876,0.0003514215350151062,0.00046079885214567184
1772555166582468000,1.126468017578125,0.000525137409567833,0.0005242619663476944,-0.0028092963621020317
1772555166592400100,1.136400146484375,-0.00003187032416462898,-0.0004642484709620476,-0.0003187442198395729
1772555166602333200,1.146333251953125,0.0010562976822257042,0.0002494789659976959,0.0018943417817354202
1772555166612265000,1.156264892578125,-0.000015556346625089645,-0.002517111599445343,-0.0018087364733219147
1772555166622197800,1.16619775390625,0.0019844775088131428,0.0005910638719797134,-0.0011424142867326736
1772555166632129800,1.1761298828125,-0.0005435524508357048,0.0009375866502523422,0.0021386640146374702
1772555166642062800,1.186062744140625,0.0003382205031812191,0.0033069998025894165,-0.002338109537959099
1772555166651995000,1.195994873046875,-0.00025578634813427925,-0.001452573575079441,0.0018037203699350357
1772555166661927000,1.205927001953125,-0.0008416818454861641,0.0019975509494543076,-0.0027095386758446693
1772555166671860000,1.21585986328125,0.001856314018368721,0.0011251643300056458,-0.0007942439988255501
1772555166681792000,1.2257919921875,-0.0021288401912897825,-0.00045622140169143677,0.00019405502825975418
1772555166691725000,1.23572509765625,-0.0012874482199549675,0.000944085419178009,-0.0016975877806544304
1772555166701657000,1.245656982421875,-0.0005388334393501282,0.00021837465465068817,0.0011802241206169128
1772555166711590100,1.255590087890625,-0.00012730946764349937,-0.0025557586923241615,0.0013925246894359589
1772555166721522200,1.265522216796875,0.0018860404379665852,0.0010986309498548508,-0.0009795529767870903
1772555166731455000,1.275455078125,-0.00288586993701756,-0.0013068951666355133,0.0000586705282330513
1772555166741387000,1.285386962890625,0.0007823682390153408,0.00021163932979106903,0.0006906390190124512
1772555166751319800,1.29531982421875,0.000604905653744936,-0.0010256683453917503,-0.0005637332797050476
1772555166761251800,1.305251953125,-0.00023638689890503883,0.0010476019233465195,0.001364128664135933
1772555166771185000,1.315184814453125,0.0007955757901072502,0.0003884565085172653,0.0001577204093337059
1772555166781117000,1.325116943359375,-0.002671327441930771,0.0001548975706100464,0.000029356218874454498
1772555166791050000,1.335050048828125,0.00045998115092515945,-0.0005847327411174774,0.0008791331201791763
1772555166800982000,1.34498193359375,0.0007113837637007236,0.00040356628596782684,-0.00015630386769771576
1772555166810914000,1.3549140625,-0.0004883925430476665,0.0006235651671886444,0.00015193317085504532
1772555166820847000,1.36484716796875,-0.0005730809643864632,-0.0012409137561917305,0.0023437142372131348
1772555166830779100,1.374779052734375,0.00023320410400629044,0.0004370715469121933,-0.0005111983045935631
1772555166840712200,1.384712158203125,-0.00030954787507653236,0.002254944294691086,0.0009729815647006035
1772555166850644000,1.39464404296875,-0.0010317922569811344,0.001015055924654007,0.00045827217400074005
1772555166860576800,1.40457666015625,-0.0016017085872590542,0.00021450966596603394,0.0003853011876344681
1772555166870508800,1.4145087890625,-0.0005257776938378811,0.0014217663556337357,-0.001954291947185993
1772555166880441900,1.42444189453125,-0.00012124376371502876,-0.0009670890867710114,-0.002102629281580448
1772555166890374000,1.434373779296875,-0.0013081179931759834,-0.0005488935858011246,0.001996162347495556
1772555166900307000,1.444306884765625,0.000701237004250288,0.00028547458350658417,0.0017037475481629372
1772555166910239000,1.454239013671875,-0.0011694533750414848,0.001999506726861,0.0005353037267923355
1772555166920172000,1.464172119140625,-0.00034200912341475487,0.00002370774745941162,-0.0006266329437494278
1772555166930104000,1.47410400390625,-0.00004327856004238129,-0.0006750700995326042,-0.0011745532974600792
1772555166940036000,1.4840361328125,0.0003386186435818672,0.0012698359787464142,-0.0008808067068457603
1772555166949969200,1.49396923828125,-0.000826552975922823,0.0004750434309244156,-0.0018450738862156868
1772555166959901000,1.50390087890625,-0.001983163645491004,0.0015957001596689224,-0.0021896865218877792
1772555166969834000,1.513833984375,0.0007866700179874897,-0.0020075617358088493,0.004441064316779375
1772555166979766000,1.52376611328125,0.00008066603913903236,0.0003613196313381195,0.0006356732919812202
1772555166989698800,1.53369873046875,0.000044778455048799515,0.0006532482802867889,-0.0006267493590712547
1772555166999630800,1.543630859375,-0.0015176981687545776,-0.001580345444381237,0.0005429107695817947
1772555167009564000,1.55356396484375,-0.001962776994332671,0.0011007916182279587,0.0011511966586112976
1772555167019496000,1.563495849609375,-0.000050361268222332,-0.0011181533336639404,-0.0022549862042069435
1772555167029429000,1.573428955078125,0.001540950033813715,-0.0013488996773958206,-0.0008362336084246635
1772555167039361000,1.583361083984375,-0.0004604156129062176,0.0011046696454286575,0.0024309325963258743
1772555167049294000,1.593294189453125,0.0016198214143514633,-0.0006250618025660515,-0.0011937003582715988
1772555167059226000,1.60322607421875,-0.00047129252925515175,-0.0003443639725446701,0.00014160946011543274
1772555167069158100,1.613158203125,-0.00013134349137544632,0.0017094984650611877,-0.0009654220193624496
1772555167079091200,1.62309130859375,0.0006638760678470135,0.00038404203951358795,0.00026256125420331955
1772555167089023000,1.63302294921875,-0.0005621500313282013,0.00026439689099788666,0.00004613678902387619
1772555167098955800,1.642955810546875,-0.0005688080564141273,-0.0011574653908610344,-0.001069461926817894
1772555167108887800,1.6528876953125,-0.0013247220776975155,-0.0011630682274699211,0.0006196750327944756
1772555167118820900,1.66282080078125,0.0006225812248885632,0.00029234960675239563,0.0004204697906970978
1772555167128753000,1.6727529296875,-0.0008227298967540264,-0.0005524810403585434,0.0009377645328640938
1772555167138686000,1.68268603515625,-0.002905854256823659,0.00003235042095184326,0.0005587972700595856
1772555167148617700,1.69261767578125,-0.001546406652778387,-0.00018377788364887238,-0.0017297668382525444
1772555167158550800,1.70255078125,-0.002299015875905752,0.0017419550567865372,-0.000005636364221572876
1772555167168482600,1.712482666015625,0.0019744141027331352,0.001925148069858551,0.0003928123041987419
1772555167178415600,1.72241552734375,0.0013682786375284195,-0.0012812977656722069,0.002495378255844116
1772555167188347600,1.73234765625,-0.00038599036633968353,0.00005916692316532135,0.0014646602794528008
1772555167198280400,1.742280517578125,-0.0008206185884773731,-0.0010577626526355743,0.0012934189289808273
1772555167208212700,1.752212646484375,-0.0012986259534955025,0.00010106712579727173,0.0002002660185098648
1772555167218144800,1.762144775390625,-0.0008352361619472504,-0.000584430992603302,0.00038375798612833023
1772555167228077600,1.77207763671875,0.0007735593244433403,0.00031668879091739655,-0.0008429456502199173
1772555167238009600,1.782009521484375,-0.00037266500294208527,0.00021602027118206024,0.000602351501584053
1772555167247942700,1.791942626953125,-0.0002270159311592579,0.0000016819685697555542,-0.0010960157960653305
1772555167257874700,1.801874755859375,-0.0008041230030357838,-0.002643102779984474,-0.0013676583766937256
1772555167267807700,1.811807861328125,-0.00002708425745368004,0.0003906618803739548,0.0023406697437167168
1772555167277739500,1.821739501953125,0.00027624983340501785,0.002646360546350479,0.001173139549791813
1772555167287672800,1.8316728515625,-0.0012792814522981644,-0.0004576314240694046,-0.00016180332750082016
1772555167297604600,1.8416044921875,-0.000004159752279520035,0.0030814427882432938,-0.0007253279909491539
1772555167307537700,1.85153759765625,-0.001856315415352583,-0.0000696815550327301,-0.0019947923719882965
1772555167317469700,1.8614697265625,0.0009802174754440784,-0.0009107068181037903,-0.002659517340362072
1772555167327401700,1.871401611328125,-0.0016291295178234577,-0.0009498391300439835,-0.0011996012181043625
1772555167337334500,1.88133447265625,-0.0005960892885923386,0.001087212935090065,-0.0003077080473303795
1772555167347266600,1.8912666015625,0.002825920470058918,0.0013513192534446716,0.0018849708139896393
1772555167357199600,1.90119970703125,0.0019830302335321903,-0.0004934538155794144,-0.0005936333909630775
1772555167367131600,1.911131591796875,-0.0001484304666519165,0.00022748112678527832,0.00360843725502491
1772555167377064700,1.921064697265625,0.000285132322460413,0.0023481566458940506,0.00043661240488290787
1772555167386996700,1.930996826171875,-0.00019523827359080315,0.000003822147846221924,-0.0037280041724443436
1772555167396929800,1.9409296875,0.0014207675121724606,0.0013897307217121124,-0.0010094493627548218
1772555167406861600,1.950861572265625,0.0007016328163444996,0.0003144536167383194,-0.0002910662442445755
1772555167416794600,1.960794677734375,-0.0005367370322346687,0.0012902356684207916,0.0018546422943472862
1772555167426726700,1.9707265625,-0.0008959025144577026,0.0006751939654350281,-0.00013594049960374832
1772555167436659500,1.980659423828125,-0.000540104229003191,0.000586245208978653,-0.0018507493659853935
1772555167446591500,1.990591552734375,-0.0007373737171292305,-0.0016582859680056572,-0.0009131506085395813
1772555167456524500,2.000524658203125,0.0006266972050070763,-0.0015917066484689713,0.0014344258233904839
1772555167466456600,2.01045654296875,-0.00035218847915530205,0.0007441453635692596,0.002141418866813183
1772555167476388600,2.020388671875,0.00012212060391902924,-0.00010087527334690094,0.001486280933022499
1772555167486321700,2.03032177734375,0.0007579517550766468,0.002428252249956131,0.002387983724474907
1772555167496253700,2.040253662109375,0.0007757949642837048,-0.00020002201199531555,-0.0006323074921965599
1772555167506186800,2.050186767578125,0.0012395810335874557,-0.001685108058154583,-0.0013387780636548996
1772555167516118500,2.060118408203125,0.0013146819546818733,0.00007683970034122467,-0.0008729910477995872
1772555167526051800,2.0700517578125,-0.00124033959582448,0.0000426657497882843,0.0011462680995464325
1772555167535983600,2.079983642578125,0.0008984450250864029,0.0020054150372743607,0.000024012289941310883
1772555167545916700,2.089916748046875,0.0023559327237308025,0.00007449090480804443,0.000046865083277225494
1772555167555848700,2.0998486328125,-0.002355998381972313,-0.001372670754790306,-0.00007004756480455399
1772555167565781500,2.109781494140625,0.0006983117200434208,-0.0005456544458866119,-0.0007956353947520256
1772555167575713500,2.119713623046875,0.0009300070814788342,0.0000636763870716095,-0.0009647458791732788
1772555167585645600,2.1296455078125,-0.00021789688616991043,0.001729857176542282,0.000743974931538105
1772555167595578600,2.13957861328125,0.0011706752702593803,-0.0009775133803486824,-0.00028214044868946075
1772555167605510700,2.1495107421875,0.0010787961073219776,-0.001372193917632103,0.0023301541805267334
1772555167615443700,2.159443603515625,0.0007294793613255024,0.0004187077283859253,0.00031867995858192444
1772555167625375700,2.169375732421875,-0.0010858075693249702,-0.0023796381428837776,-0.0002739541232585907
1772555167635308800,2.179308837890625,0.00014004576951265335,-0.0010816128924489021,-0.0005155028775334358
1772555167645240600,2.189240478515625,0.0023584095761179924,-0.00042787380516529083,0.001032504253089428
1772555167655173600,2.199173583984375,-0.002060307189822197,0.0007356610149145126,-0.00040240678936243057
1772555167665105700,2.209105712890625,0.00012652156874537468,-0.0008954387158155441,0.001966615207493305
1772555167675038500,2.21903857421875,0.0017329403199255466,-0.00015055201947689056,0.0005258452147245407
1772555167684970500,2.228970458984375,0.001452478114515543,0.00008898600935935974,-0.00006556417793035507
1772555167694903600,2.238903564453125,-0.0016056299209594727,0.0002522394061088562,-0.002039233222603798
1772555167704835600,2.248835693359375,-0.0028894597198814154,-0.00042353570461273193,0.0011927913874387741
1772555167714767600,2.258767578125,0.00017264299094676971,0.0017021987587213516,0.0015390021726489067
1772555167724700700,2.26870068359375,-0.0013294448144733906,-0.00020487047731876373,0.000036318786442279816
1772555167734632700,2.2786328125,0.00013529416173696518,0.000456126406788826,-0.002272641286253929
1772555167744565800,2.288565673828125,0.0002243444323539734,0.0017538312822580338,-0.0011137006804347038
1772555167754497500,2.29849755859375,-0.0007325294427573681,-0.0009894920513033867,-0.003006676211953163
1772555167764430600,2.3084306640625,0.0018991371616721153,0.0013697557151317596,0.003498626872897148
1772555167774362600,2.318362548828125,0.0014147083275020123,-0.0009772880002856255,-0.0004881247878074646
1772555167784295700,2.328295654296875,0.00039212731644511223,-0.0007334565743803978,-0.001636694185435772
1772555167794227700,2.338227783203125,0.0012230337597429752,-0.0009979084134101868,-0.0017269756644964218
1772555167804160500,2.348160400390625,0.00009652972221374512,-0.001026282086968422,0.003220164217054844
1772555167814092500,2.358092529296875,0.00016790255904197693,-0.0006944518536329269,-0.000576704740524292
1772555167824025600,2.368025634765625,0.0009064548648893833,-0.003935312852263451,0.001638239249587059
1772555167833957600,2.37795751953125,-0.0000711916945874691,-0.00002605840563774109,-0.0000877557322382927
1772555167843889700,2.3878896484375,0.0003978232853114605,0.0017537623643875122,0.0005993926897644997
1772555167853822700,2.39782275390625,0.00021539675071835518,0.0006794426590204239,0.0009410763159394264
1772555167863754800,2.407754638671875,-0.000845873262733221,-0.0018624262884259224,0.0003764573484659195
1772555167873687800,2.417687744140625,-0.0014400244690477848,-0.0010096821933984756,0.0007511638104915619
1772555167883619600,2.42761962890625,-0.00042900489643216133,-0.00042694248259067535,-0.00253947451710701
1772555167893552600,2.437552734375,0.003169192001223564,0.0004684124141931534,-0.0013269372284412384
1772555167903484700,2.447484619140625,-0.0008605527691543102,-0.00040391646325588226,0.0034717293456196785
1772555167913417500,2.45741748046875,-0.000652027316391468,-0.00017648376524448395,0.0002703433856368065
1772555167923349500,2.467349609375,-0.0012736283242702484,0.003040684387087822,0.0016078930348157883
1772555167933282600,2.477282470703125,0.0005884538404643536,0.0014206841588020325,-0.00014127139002084732
1772555167943214600,2.487214599609375,-0.00012389663606882095,-0.004687976092100143,-0.00017318502068519592
1772555167953146600,2.497146728515625,0.0019230088219046593,-0.0020690234377980232,0.0010361559689044952
1772555167963079700,2.50707958984375,0.0002676723524928093,0.0020935218781232834,-0.001179785467684269
1772555167973011700,2.51701171875,0.0000021550804376602173,0.0029342807829380035,-0.0015523619949817657
1772555167982944800,2.52694482421875,-0.00008390331640839577,0.0013093668967485428,-0.0006365226581692696
1772555167992876500,2.53687646484375,0.0016042748466134071,0.0001881774514913559,0.0016202395781874657
1772555168002809600,2.5468095703125,0.00032625533640384674,-0.0007702559232711792,-0.0007921531796455383
1772555168012741600,2.55674169921875,0.0018101688474416733,-0.0003305673599243164,0.0022454485297203064
1772555168022674700,2.5666748046875,-0.0007681399583816528,-0.00011603347957134247,0.0002847006544470787
1772555168032606700,2.576606689453125,-0.0005178027786314487,-0.0015309704467654228,0.0018948474898934364
1772555168042539500,2.58653955078125,-0.000806150957942009,0.0009690728038549423,-0.0007775146514177322
1772555168052471600,2.596471435546875,-0.0002575400285422802,-0.00032176077365875244,-0.0015610167756676674
1772555168062404600,2.606404541015625,-0.0006045629270374775,0.0012025125324726105,-0.0006913002580404282
1772555168072336600,2.616336669921875,-0.002644278109073639,0.0001345854252576828,-0.0024292785674333572
1772555168082268700,2.6262685546875,0.0006425925530493259,0.0004955027252435684,0.0022318782284855843
1772555168092201700,2.63620166015625,0.0010955962352454662,0.002386879175901413,-0.0019181258976459503
1772555168102133800,2.6461337890625,0.00003038160502910614,0.0003426242619752884,0.0004365900531411171
1772555168112066800,2.65606689453125,0.0010469099506735802,0.0001378282904624939,-0.00025849509984254837
1772555168121998600,2.66599853515625,-0.001224882435053587,0.0006146449595689774,0.0001515103504061699
1772555168131931600,2.675931640625,0.00015889620408415794,-0.00046074017882347107,-0.0005166763439774513
1772555168141863700,2.68586376953125,-0.0011819759383797646,-0.0017803609371185303,-0.0005864966660737991
1772555168151796500,2.69579638671875,-0.0008919578976929188,0.001337934285402298,0.00030140113085508347
1772555168161728500,2.705728515625,0.002456110902130604,0.0010568350553512573,0.00032183434814214706
1772555168171661600,2.71566162109375,-0.0029019033536314964,0.0016038473695516586,-0.0008752569556236267
1772555168181593600,2.725593505859375,0.0005756383761763573,0.0006614662706851959,0.00111378263682127
1772555168191526700,2.735526611328125,0.002182056661695242,0.0009794477373361588,0.0009872820228338242
1772555168201458700,2.745458740234375,-0.00003349175676703453,-0.0007399106398224831,0.000896800309419632
1772555168211390700,2.755390625,-0.0007549421861767769,0.0009370818734169006,0.000632881186902523
1772555168221323800,2.76532373046875,-0.002922977553680539,-0.00009162910282611847,-0.0007887976244091988
1772555168231255600,2.775255615234375,0.0005782800726592541,-0.001661829650402069,0.00012386683374643326
1772555168241188600,2.785188720703125,0.002014766912907362,-0.001390053890645504,0.0003198562189936638
1772555168251120600,2.79512060546875,0.0006107483059167862,0.0007324852049350739,0.0015041641891002655
1772555168261053400,2.805053466796875,0.00037668319419026375,0.002814674749970436,0.002070469781756401
1772555168270985700,2.81498583984375,-0.0014624958857893944,-0.0009268000721931458,0.00015326030552387238
1772555168280918500,2.82491845703125,0.0008960207924246788,0.0009282827377319336,0.0006439154967665672
1772555168290850600,2.8348505859375,-0.0015988284721970558,0.0012694336473941803,-0.0014426717534661293
1772555168300783600,2.84478369140625,-0.00006073899567127228,0.0005443152040243149,0.00028990767896175385
1772555168310715600,2.854715576171875,-0.0007571559399366379,0.0012599080801010132,-0.0006158333271741867
1772555168320647700,2.864647705078125,-0.0018319326918572187,0.001934342086315155,-0.0007475139573216438
1772555168330580700,2.874580810546875,0.0010903538204729557,-0.0017101932317018509,0.0015246951952576637
1772555168340512800,2.8845126953125,0.0005364632233977318,0.0001012943685054779,-0.000564047135412693
1772555168350445800,2.89444580078125,-0.002985567320138216,0.0005473736673593521,-0.0004793582484126091
1772555168360377600,2.904377685546875,-0.0001565469428896904,-0.00039655715227127075,-0.00006369967013597488
1772555168370310700,2.914310546875,-0.0003818501718342304,-0.0016530361026525497,-0.0013140542432665825
1772555168380242700,2.92424267578125,-0.0011729332618415356,0.0013008564710617065,-0.0025377171114087105
1772555168390175500,2.934175537109375,-0.0011873142793774605,-0.0003052968531847,0.0034674452617764473
1772555168400107500,2.944107421875,0.0011229850351810455,-0.0016759103164076805,0.0006452472880482674
1772555168410040600,2.95404052734375,0.0017163376323878765,-0.0006295554339885712,0.0008375272154808044
1772555168419972600,2.96397265625,0.000059229787439107895,0.0009372998028993607,0.0006627058610320091
1772555168429904600,2.973904541015625,0.001638750545680523,-0.00007310323417186737,0.0007892055436968803
1772555168439837700,2.983837646484375,-0.002662581391632557,-0.000064849853515625,-0.0015614191070199013
1772555168449769700,2.993769775390625,-0.0008449740707874298,0.0010781791061162949,0.0007978752255439758
1772555168459702800,3.003702880859375,0.0014346209354698658,0.00011630915105342865,-0.001998133957386017
1772555168469634600,3.013634521484375,-0.0006149481050670147,0.0016891714185476303,0.0013867439702153206
1772555168479567600,3.023567626953125,-0.0005995677784085274,0.0011042412370443344,-0.001217050477862358
1772555168489499600,3.033499755859375,0.0009804856963455677,-0.0015661101788282394,0.0009518275037407875
1772555168499432400,3.043432373046875,-0.0019002817571163177,0.0012042373418807983,-0.0021682623773813248
1772555168509364500,3.053364501953125,0.0009724702686071396,-0.0017798356711864471,0.0024957312270998955
1772555168519297500,3.063297607421875,-0.00008451472967863083,0.00027363188564777374,0.0013491502031683922
1772555168529229600,3.0732294921875,-0.0007636207155883312,-0.00043370388448238373,0.0012807073071599007
1772555168539162600,3.08316259765625,-0.00012456951662898064,0.0007328614592552185,0.0012394413352012634
1772555168549094700,3.0930947265625,-0.0009355018846690655,0.0013200882822275162,0.0001587308943271637
1772555168559026700,3.103026611328125,0.001151852309703827,0.002331845462322235,0.00031513068825006485
1772555168568959700,3.112959716796875,0.0002863248810172081,0.0012055933475494385,0.0014030318707227707
1772555168578891800,3.122891845703125,0.0008523408323526382,-0.00029297545552253723,-0.0005845967680215836
1772555168588824800,3.132824951171875,0.00005312589928507805,0.00024738162755966187,-0.0014040516689419746
1772555168598756600,3.142756591796875,0.0010327976197004318,0.0006353706121444702,0.00014805421233177185
1772555168608689700,3.152689697265625,0.001262362115085125,-0.0004269629716873169,-0.0006271917372941971
1772555168618621700,3.16262158203125,0.00010456237941980362,0.0031965021044015884,0.001628439873456955
1772555168628554500,3.172554443359375,-0.00011914316564798355,0.0012633129954338074,0.0006230957806110382
1772555168638486500,3.182486572265625,0.0005355780012905598,-0.0006450079381465912,-0.000637836754322052
1772555168648419600,3.192419677734375,0.0005065491423010826,0.0022341348230838776,-0.00023010745644569397
1772555168658351600,3.2023515625,-0.00049253785982728,0.0012237858027219772,-0.0015807729214429855
1772555168668283600,3.21228369140625,-0.0007276949472725391,-0.00036372430622577667,0.00025174859911203384
1772555168678216700,3.222216796875,-0.001241061370819807,0.0004523955285549164,-0.0028292518109083176
1772555168688148700,3.232148681640625,-0.0003608865663409233,-0.0000818353146314621,0.0008768029510974884
1772555168698081800,3.242081787109375,-0.0006549754180014133,0.0007348824292421341,-0.0014614332467317581
1772555168708013600,3.252013671875,-0.0009314115159213543,0.00031064078211784363,-0.0006760675460100174
1772555168717946600,3.261946533203125,0.0021794503554701805,0.0009549129754304886,0.0003392379730939865
1772555168727878700,3.271878662109375,0.001508333720266819,-0.002563122659921646,-0.0002543805167078972
1772555168737811500,3.2818115234375,-0.0011214138939976692,0.0023782290518283844,0.00040752626955509186
1772555168747743500,3.291743408203125,-0.00008544465526938438,0.00024770013988018036,0.0013111364096403122
1772555168757676500,3.301676513671875,0.0005543874576687813,0.00006885826587677002,-0.0006934124976396561
1772555168767608600,3.311608642578125,-0.000998235773295164,0.00047445669770240784,0.003339678980410099
1772555168777540600,3.32154052734375,0.0016475045122206211,-0.0011212583631277084,-0.0009458037093281746
1772555168787473700,3.3314736328125,-0.001799158751964569,-0.0014690672978758812,0.0006526252254843712
1772555168797405700,3.34140576171875,-0.000267647672444582,0.0006890837103128433,-0.00006599538028240204
1772555168807338800,3.3513388671875,-0.001525192055851221,-0.0010409047827124596,-0.001750977709889412
1772555168817270800,3.361270751953125,0.0008085179142653942,-0.0003808215260505676,-0.0013459865003824234
1772555168827203800,3.371203857421875,0.0006934693083167076,-0.0013358304277062416,-0.0002809884026646614
1772555168837135600,3.381135498046875,0.0008590486831963062,0.001439342275261879,-0.002390896901488304
1772555168847068700,3.391068603515625,-0.0003590811975300312,-0.0006991773843765259,-0.0006579775363206863
1772555168857000700,3.401000732421875,-0.00037618447095155716,0.0012583546340465546,0.0006028860807418823
1772555168866933500,3.41093359375,-0.0017208145000040531,0.00038057751953601837,0.0002167271450161934
1772555168876865500,3.420865478515625,0.0011369301937520504,0.0005549360066652298,0.0011973539367318153
1772555168886797600,3.430797607421875,-0.0012460662983357906,-0.000638158991932869,-0.000561131164431572
1772555168896730600,3.440730712890625,-0.00009306240826845169,0.0005697589367628098,-0.0014045936986804008
1772555168906662700,3.45066259765625,0.0000030775554478168488,-0.001120815984904766,0.0025142477825284004
1772555168916595700,3.460595703125,0.0020385454408824444,-0.0016711819916963577,0.0019220821559429169
1772555168926527700,3.47052783203125,0.00035995524376630783,0.001108093187212944,0.0020136944949626923
1772555168936460800,3.480460693359375,-0.0008506332524120808,0.0005087293684482574,-0.001310417428612709
1772555168946392600,3.490392578125,-0.0007094857282936573,0.0004296340048313141,0.0008094590157270432
1772555168956325600,3.50032568359375,0.0012345672585070133,0.0009494181722402573,0.0006249174475669861
1772555168966257700,3.510257568359375,0.002137645147740841,0.00041864998638629913,0.00227394700050354
1772555168976190500,3.5201904296875,-0.0004355506971478462,0.0006961598992347717,0.0013303812593221664
1772555168986122500,3.53012255859375,-0.0026824597734957933,0.0011534243822097778,-0.0005351630970835686
1772555168996054500,3.540054443359375,-0.00005237013101577759,-0.0005349498242139816,0.0011387402191758156
1772555169005987600,3.549987548828125,-0.001492607407271862,0.00012178532779216766,-0.0002162763848900795
1772555169015919600,3.559919677734375,0.0011763186194002628,-0.0013183336704969406,0.001327361911535263
1772555169025852700,3.569852783203125,-0.00015206588432192802,0.0011083390563726425,-0.0002849157899618149
1772555169035784700,3.57978466796875,-0.00023716455325484276,0.0007014218717813492,0.00163221824914217
1772555169045717800,3.5897177734375,0.002144500147551298,0.0018460489809513092,-0.0007087001577019691
1772555169055649800,3.59964990234375,0.0013993768952786922,0.0017264466732740402,-0.0016468064859509468
1772555169065582800,3.609582763671875,-0.0003460589796304703,0.00051870197057724,0.0005572261288762093
1772555169075514600,3.6195146484375,0.0021173162385821342,-0.0008479524403810501,0.0010677063837647438
1772555169085447400,3.629447509765625,-0.0011125653982162476,-0.001129448413848877,-0.003757408820092678
1772555169095379700,3.639379638671875,-0.0004312712699174881,-0.0004749968647956848,0.0002972688525915146
1772555169105311700,3.649311767578125,0.0009008417837321758,-0.0016196239739656448,-0.0007416298612952232
1772555169115244500,3.65924462890625,0.0014129765331745148,-0.000522363930940628,-0.002519620582461357
1772555169125176600,3.669176513671875,-0.0006041019223630428,0.00041533447802066803,0.002270340919494629
1772555169135109600,3.679109619140625,0.0010314141400158405,-0.0004634726792573929,0.00016324780881404877
1772555169145041700,3.689041748046875,-0.00006074830889701843,-0.0015439176931977272,0.0015329113230109215
1772555169154974500,3.698974365234375,-0.0006360062398016453,-0.00037715956568717957,-0.0004664696753025055
1772555169164906500,3.708906494140625,-0.002831249963492155,0.0017278026789426804,0.00004752073436975479
1772555169174839600,3.718839599609375,0.000862994696944952,0.002177080139517784,-0.0003103697672486305
1772555169184771600,3.728771484375,0.0008161230944097042,0.0007032863795757294,0.0005652774125337601
1772555169194704600,3.73870458984375,-0.0011082920245826244,-0.0015266258269548416,0.0024678120389580727
1772555169204636700,3.74863671875,0.000913047231733799,-0.00032953545451164246,0.00008641369640827179
1772555169214568400,3.758568359375,-0.0005985940806567669,0.001871548593044281,-0.000008606351912021637
1772555169224501200,3.768501220703125,0.0009050266817212105,0.0020012445747852325,-0.00006692949682474136
1772555169234433500,3.77843359375,-0.0006711268797516823,-0.0023919623345136642,-0.0017552943900227547
1772555169244366300,3.788366455078125,-0.0005339742638170719,-0.0004393327981233597,-0.00008069910109043121
1772555169254298400,3.79829833984375,0.0003965604119002819,-0.0006287898868322372,0.0003898646682500839
1772555169264231400,3.8082314453125,0.000890576746314764,-0.0024085799232125282,0.000691867433488369
1772555169274163500,3.81816357421875,-0.0015266286209225655,-0.0004125349223613739,-0.0015272758901119232
1772555169284096500,3.828096435546875,0.00043478934094309807,0.0015203878283500671,-0.002122492529451847
1772555169294028500,3.838028564453125,-0.0014349459670484066,-0.000941108912229538,-0.001986372284591198
1772555169303961600,3.847961669921875,-0.00009537627920508385,-0.0010247314348816872,0.0011188732460141182
1772555169313893600,3.8578935546875,0.0002312944270670414,0.0009064115583896637,-0.0005895057693123817
1772555169323825400,3.867825439453125,0.0004613916389644146,-0.0000845491886138916,-0.0018166908994317055
1772555169333758700,3.8777587890625,0.00010349089279770851,-0.0008468795567750931,-0.00028881989419460297
1772555169343690500,3.8876904296875,0.00011414382606744766,0.00015446916222572327,-0.0005367593839764595
1772555169353623300,3.897623291015625,-0.0025677031371742487,0.0002011321485042572,-0.0016415547579526901
1772555169363555300,3.907555419921875,0.0009260978549718857,0.0013356395065784454,0.0006418395787477493
1772555169373488400,3.91748828125,-0.00184527225792408,-0.0030812397599220276,0.00029384251683950424
1772555169383420400,3.92742041015625,-0.0017592522781342268,0.0000394526869058609,0.0008776076138019562
1772555169393353500,3.937353515625,0.002178928814828396,0.0006981082260608673,0.00046227220445871353
1772555169403285500,3.947285400390625,-0.0009859721176326275,0.0021905433386564255,-0.0018416289240121841
1772555169413218600,3.957218505859375,0.001230678055435419,0.0008128359913825989,0.0005263369530439377
1772555169423150600,3.967150634765625,0.0027236458845436573,0.0006056427955627441,-0.0003359951078891754
1772555169433082600,3.97708251953125,0.001144208014011383,-0.0006368197500705719,-0.0004720762372016907
1772555169443015700,3.987015625,-0.0013565002009272575,-0.001623520627617836,0.002497348003089428
1772555169452947500,3.996947509765625,-0.0006798766553401947,-0.0010152561590075493,0.0009033363312482834
1772555169462880300,4.00688037109375,0.002365980762988329,-0.0013353675603866577,-0.002174745313823223
1772555169472812300,4.016812255859375,-0.0009024473838508129,-0.003788229078054428,-0.0006946418434381485
1772555169482745300,4.026745361328125,0.0009199539199471474,0.0023367758840322495,0.0009176358580589294
1772555169492677400,4.036677490234375,0.0010532638989388943,0.0008338391780853271,0.002134157344698906
1772555169502610400,4.0466103515625,-0.0021270832512527704,0.002368086948990822,-0.0006517749279737473
1772555169512542500,4.05654248046875,-0.0032934583723545074,-0.0008693374693393707,0.000022687017917633057
1772555169522475500,4.0664755859375,-0.0006667827256023884,0.0017570722848176956,0.0007851505652070045
1772555169532407600,4.076407470703125,-0.002490164013579488,0.0008756667375564575,0.0009531974792480469
1772555169542339600,4.086339599609375,-0.00018067052587866783,-0.0004412662237882614,-0.00034962035715579987
1772555169552272600,4.096272705078125,0.00043516140431165695,-0.0018621273338794708,-0.0013413410633802414
1772555169562204400,4.106204345703125,0.00022370647639036179,-0.001236550509929657,-0.0013474663719534874
1772555169572137500,4.116137451171875,0.0020364108495414257,-0.0017616292461752892,0.0007095560431480408
1772555169582069500,4.126069580078125,0.00020069396123290062,-0.00092326570302248,-0.0011061867699027061
1772555169592002300,4.136002197265625,0.0013019191101193428,-0.0014550993219017982,0.0011989986523985863
1772555169601934300,4.145934326171875,-0.0005255420692265034,0.0006245635449886322,-0.0019347434863448143
1772555169611867400,4.155867431640625,-0.0004413612186908722,0.0001463070511817932,-0.0010284306481480598
1772555169621799400,4.16579931640625,0.0012793070636689663,0.0009258147329092026,0.0034387558698654175
1772555169631732500,4.175732421875,-0.0007192660123109818,-0.0014582937583327293,-0.0026481347158551216
1772555169641664500,4.18566455078125,-0.002444994170218706,-0.0003325752913951874,0.002538904547691345
1772555169651596500,4.195596435546875,-0.0003927517682313919,-0.0006708819419145584,-0.0001858798786997795
1772555169661529600,4.205529541015625,0.0003108554519712925,0.0007501803338527679,0.000013324432075023651
1772555169671461600,4.215461669921875,-0.00039415620267391205,0.001590389758348465,0.000914732925593853
1772555169681394700,4.225394775390625,-0.00334547134116292,-0.0007337499409914017,-0.0007209805771708488
1772555169691326500,4.235326416015625,0.0009947214275598526,-0.00021546334028244019,-0.000053651630878448486
1772555169701259300,4.24525927734375,-0.0025717837270349264,0.004227755591273308,0.002186332829296589
1772555169711191300,4.25519140625,-0.0011099819093942642,-0.0003981832414865494,0.000042695552110672
1772555169721124400,4.265124267578125,-0.000578414648771286,0.0011195521801710129,-0.0011677118018269539
1772555169731056400,4.275056396484375,-0.0003051892854273319,0.0011571384966373444,-0.0007844008505344391
1772555169740988400,4.284988525390625,0.0011891103349626064,-0.001003216952085495,0.0011503854766488075
1772555169750921500,4.29492138671875,-0.0026628910563886166,0.001175805926322937,-0.0010881619527935982
1772555169760853500,4.304853515625,0.0008122678846120834,-0.00043460726737976074,0.0014676740393042564
1772555169770786600,4.31478662109375,0.000010735820978879929,0.0010063499212265015,0.0026627052575349808
1772555169780718600,4.324718505859375,-0.0035946513526141644,0.00047185271978378296,-0.0013930220156908035
1772555169790651600,4.334651611328125,0.000236553605645895,-0.0016495417803525925,-0.000016508623957633972
1772555169800583400,4.34458349609375,-0.000526708085089922,0.0013379920274019241,-0.0004370221868157387
1772555169810516500,4.3545166015625,0.000043937936425209045,0.0010574813932180405,-0.000376884825527668
1772555169820448500,4.364448486328125,0.000855935737490654,-0.0013468209654092789,0.0012678839266300201
1772555169830381300,4.37438134765625,0.0013958890922367573,0.0011385027319192886,0.0028882985934615135
1772555169840313300,4.384313232421875,0.0004552607424557209,0.0030184276401996613,0.00018305890262126923
1772555169850245400,4.394245361328125,0.0011591329239308834,0.0002614445984363556,0.0006222864612936974
1772555169860178400,4.404178466796875,0.0008893548510968685,0.000834289938211441,0.0008806129917502403
1772555169870110500,4.4141103515625,-0.0017532214988023043,-0.0005844198167324066,0.0006972337141633034
1772555169880043500,4.42404345703125,-0.0017918373923748732,-0.000529557466506958,-0.0002766847610473633
1772555169889975600,4.4339755859375,-0.0007095476612448692,-0.00079391710460186,0.0010796114802360535
1772555169899908600,4.44390869140625,-0.002395062241703272,0.0007437914609909058,0.002589624375104904
1772555169909840600,4.453840576171875,-0.0014949454925954342,-0.00036386214196681976,-0.0008662212640047073
1772555169919773700,4.463773681640625,-0.0019202525727450848,-0.0010978290811181068,0.0007947925478219986
1772555169929705500,4.47370556640625,-0.0013167578727006912,0.00004141964018344879,0.0010584201663732529
1772555169939637500,4.483637451171875,0.001301662065088749,-0.0017610080540180206,0.0001047421246767044
1772555169949570300,4.4935703125,-0.000910676084458828,0.0002123061567544937,-0.0018158666789531708
1772555169959502300,4.50350244140625,-0.0007109390571713448,-0.0014372561126947403,-0.001071779988706112
1772555169969435400,4.513435302734375,-0.0037872646935284138,0.001494336873292923,0.0006823530420660973
1772555169979367400,4.523367431640625,-0.0023310482501983643,0.00048632919788360596,-0.0033291662111878395
1772555169989300500,4.533300537109375,0.0005599376745522022,-0.0017908131703734398,-0.0004924051463603973
1772555169999232500,4.543232421875,-0.0005031959153711796,-0.0018054600805044174,0.0014093583449721336
1772555170009165600,4.55316552734375,-0.0002427389845252037,0.00005000457167625427,-0.0001874491572380066
1772555170019097600,4.56309765625,0.0006568767130374908,0.0001908857375383377,-0.003011997789144516
1772555170029030700,4.57303076171875,0.00027283746749162674,0.0009896066039800644,0.001242244616150856
1772555170038962400,4.58296240234375,-0.0007543438114225864,0.0022447556257247925,-0.0007977364584803581
1772555170048894500,4.59289453125,0.001544395461678505,-0.0005298741161823273,0.0004653213545680046
1772555170058827500,4.60282763671875,0.0021012625657022,0.0007809344679117203,0.0013723941519856453
1772555170068759600,4.612759521484375,-0.00026328442618250847,0.001302860677242279,-0.0009847842156887054
1772555170078692400,4.6226923828125,-0.0013133687898516655,0.0010400079190731049,-0.0009115478023886681
1772555170088624400,4.632624267578125,0.00044647417962551117,-0.001211250200867653,-0.00016971398144960403
1772555170098557400,4.642557373046875,0.0015663332305848598,-0.0019324347376823425,0.0020162081345915794
1772555170108489500,4.652489501953125,-0.0009904289618134499,0.0014036335051059723,0.00017002783715724945
1772555170118422500,4.662422607421875,0.0011829766444861889,0.000024650245904922485,-0.0006211968138813972
1772555170128354600,4.6723544921875,-0.0005979239940643311,0.00045757368206977844,-0.0007385499775409698
1772555170138287600,4.68228759765625,0.0006883828900754452,0.001230156049132347,0.00199704896658659
1772555170148219600,4.6922197265625,-0.0005008741281926632,-0.0006125662475824356,-0.0007247002795338631
1772555170158151700,4.702151611328125,-0.0003306982107460499,0.0014585740864276886,0.000005537644028663635
1772555170168084700,4.712084716796875,0.00010261079296469688,0.00009370781481266022,0.0011747758835554123
1772555170178016800,4.722016845703125,-0.0014233808033168316,-0.0006445199251174927,-0.0021059727296233177
1772555170187949600,4.731949462890625,0.001346964854747057,0.000844813883304596,0.0006292983889579773
1772555170197881600,4.741881591796875,0.00006571831181645393,0.0031274091452360153,0.0004932107403874397
1772555170207814700,4.751814697265625,0.00017965631559491158,-0.0014541996642947197,0.0008611083030700684
1772555170217746400,4.761746337890625,0.002941886428743601,0.001872887834906578,-0.002435618080198765
1772555170227679500,4.771679443359375,-0.0006614928133785725,0.0006563495844602585,-0.0015924880281090736
1772555170237611500,4.781611572265625,0.0005771433934569359,-0.000826764851808548,-0.000691806897521019
1772555170247543600,4.79154345703125,0.00010767579078674316,-0.001039830967783928,0.0015575140714645386
1772555170257476600,4.8014765625,-0.0006246934644877911,0.0000193081796169281,0.0011274134740233421
1772555170267408600,4.81140869140625,0.0032511302269995213,0.0001321732997894287,0.0012157130986452103
1772555170277341700,4.821341796875,-0.0016637337394058704,0.0002980884164571762,0.0011805593967437744
1772555170287273700,4.831273681640625,0.0011250441893935204,0.0003203917294740677,-0.0019953418523073196
1772555170297206500,4.84120654296875,-0.0012638112530112267,0.000021317973732948303,0.0006387913599610329
1772555170307138600,4.851138671875,0.0010734624229371548,-0.0000012796372175216675,0.0001966068521142006
1772555170317071600,4.861071533203125,-0.0010240431874990463,-0.0008012931793928146,0.0005667861551046371
1772555170327003600,4.871003662109375,0.0021968591026961803,-0.0001253262162208557,0.001192525029182434
1772555170336936700,4.880936767578125,0.0008924431167542934,0.00219588540494442,-0.0011696992442011833
1772555170346868500,4.890868408203125,-0.0023208456113934517,-0.0021770643070340157,-0.0008799033239483833
1772555170356800500,4.900800537109375,-0.0006334669888019562,-0.0007261745631694794,-0.0015800483524799347
1772555170366733600,4.910733642578125,0.0014259526506066322,0.0002530813217163086,-0.003347594290971756
1772555170376665600,4.92066552734375,0.0015013199299573898,-0.000990082509815693,0.0007771095260977745
1772555170386598700,4.9305986328125,0.00027815764769911766,-0.0007642023265361786,0.0018609724938869476
1772555170396530700,4.94053076171875,-0.001741850282996893,-0.0014321226626634598,-0.002627253532409668
1772555170406463700,4.950463623046875,-0.0003733225166797638,0.0011062175035476685,0.0005404353141784668
1772555170416395800,4.960395751953125,0.0008653136901557446,0.00008569471538066864,0.000011265277862548828
1772555170426328600,4.97032861328125,-0.0010215388610959053,0.00009989365935325623,-0.000588499940931797
1772555170436260600,4.980260498046875,0.00042988359928131104,-0.001871379092335701,-0.0009935665875673294
1772555170446192400,4.9901923828125,0.00019504129886627197,-0.000011445954442024231,-0.000577317550778389
1772555170456125400,5.00012548828125,0.0008041062392294407,-0.002256224863231182,-0.00011099781841039658
1772555170466057500,5.010057373046875,-0.0006854971870779991,0.0019389037042856216,0.0039986209012568
1772555170475990500,5.019990478515625,0.0005840319208800793,0.0005628485232591629,0.0020694267004728317
1772555170485922600,5.029922607421875,-0.0012964787892997265,0.001214655116200447,-0.000506213866174221
1772555170495855600,5.039855712890625,-0.001940431073307991,0.0022652726620435715,0.00007888302206993103
1772555170505787600,5.04978759765625,-0.0007032253779470921,-0.0010596290230751038,0.002256164327263832
1772555170515720700,5.059720703125,-0.0006137429736554623,0.0020445510745048523,-0.0009409608319401741
1772555170525652700,5.06965283203125,-0.0015358040109276772,-0.00031166523694992065,0.001330479048192501
1772555170535584800,5.079584716796875,0.0019920854829251766,0.000004984438419342041,-0.0014711664989590645
1772555170545517600,5.089517578125,0.0013356138952076435,0.00072525255382061,-0.0006601111963391304
1772555170555449600,5.09944970703125,0.0007800785824656487,-0.0011024735867977142,-0.0025054151192307472
1772555170565382400,5.10938232421875,0.0016919705085456371,-0.0005851667374372482,-0.0014073150232434273
1772555170575314400,5.119314453125,-0.0003408202901482582,-0.00045706890523433685,0.0007594330236315727
1772555170585247500,5.12924755859375,0.003435557708144188,-0.0019743582233786583,-0.0009610913693904877
1772555170595179500,5.139179443359375,-0.00023800646886229515,0.0011687036603689194,-0.0006636166945099831
1772555170605112600,5.149112548828125,-0.0000949646346271038,-0.00042029842734336853,0.0000032437965273857117
1772555170615044600,5.159044677734375,-0.0023416071198880672,-0.0013244422152638435,-0.0012708120048046112
1772555170624977700,5.168977783203125,-0.00044122710824012756,0.0018112864345312119,0.000024471431970596313
1772555170634909700,5.17890966796875,0.0003452044911682606,-0.0006718449294567108,0.000992264598608017
1772555170644841700,5.188841796875,-0.0017379021737724543,0.0008986424654722214,0.002176123671233654
1772555170654774800,5.19877490234375,0.0003678593784570694,0.0007111560553312302,-0.0016311313956975937
1772555170664706800,5.208706787109375,-0.00024075200781226158,-0.002762841060757637,0.00019595958292484283
1772555170674639600,5.2186396484375,-0.0010322434827685356,0.0010862257331609726,0.0032684486359357834
1772555170684571400,5.2285712890625,0.0004046293906867504,-0.002720823511481285,0.001076039858162403
1772555170694504400,5.23850439453125,-0.000025204848498106003,0.0011008121073246002,0.0028877882286906242
1772555170704436500,5.2484365234375,0.0007658954709768295,0.0001507401466369629,-0.0005556633695960045
1772555170714369500,5.25836962890625,-0.001747063361108303,-0.0010799076408147812,-0.0008507417514920235
1772555170724301600,5.268301513671875,-0.00044150790199637413,-0.0005649235099554062,-0.0015724338591098785
1772555170734233600,5.278233642578125,0.0017840955406427383,0.00036691688001155853,-0.0015388783067464828
1772555170744166700,5.288166748046875,-0.000990548636764288,0.0004359409213066101,0.00027774181216955185
1772555170754098700,5.2980986328125,-0.0002680327743291855,-0.0019177598878741264,-0.0015401318669319153
1772555170764031700,5.30803173828125,0.002762626390904188,0.00010926276445388794,-0.0011986028403043747
1772555170773963800,5.3179638671875,0.001246755477041006,-0.0008590631186962128,-0.0008910074830055237
1772555170783896600,5.327896484375,0.0023119179531931877,0.00020435266196727753,0.0011151321232318878
1772555170793828600,5.33782861328125,0.0009861965663731098,-9.778887033462524e-7,-0.0007309718057513237
1772555170803761400,5.347761474609375,-0.00023987097665667534,0.001650853082537651,-0.0006899340078234673
1772555170813693400,5.357693359375,0.001269076019525528,0.001577349379658699,-0.0013674423098564148
1772555170823625500,5.36762548828125,-0.0021373380441218615,0.0007865242660045624,0.00014729611575603485
1772555170833558500,5.37755859375,0.0005947989411652088,0.0008360594511032104,-0.0016588596627116203
1772555170843490600,5.387490478515625,0.00014275964349508286,0.0009963549673557281,-0.0037331366911530495
1772555170853423600,5.397423583984375,0.00019282707944512367,0.0003279000520706177,0.0019058408215641975
1772555170863355600,5.407355712890625,0.00015906617045402527,0.00017337314784526825,0.0008673211559653282
1772555170873288700,5.417288818359375,-0.00012722332030534744,-0.00009161233901977539,0.0011051418259739876
1772555170883220700,5.427220703125,-0.0003274255432188511,-0.0011632991954684258,0.00016701221466064453
1772555170893153800,5.43715380859375,-0.0005716374143958092,-0.00009750202298164368,-0.001925167627632618
1772555170903085800,5.4470859375,0.001115433406084776,-0.002837267704308033,-0.00004997383803129196
1772555170913017600,5.457017578125,-0.00019990187138319016,0.002526072785258293,0.002136215567588806
1772555170922950400,5.466950439453125,-0.00028812140226364136,-0.0003418978303670883,0.0010174280032515526
1772555170932882400,5.47688232421875,0.00120964040979743,-0.0001432262361049652,-0.0009647626429796219
1772555170942815500,5.4868154296875,0.0017551830969750881,0.0005047246813774109,-0.0017606820911169052
1772555170952747500,5.49674755859375,-0.0015801601111888885,-0.0009528230875730515,-0.00007516704499721527
1772555170962680600,5.5066806640625,-0.0005506779998540878,-0.0013393182307481766,-0.0001890622079372406
1772555170972612600,5.516612548828125,-0.000506735872477293,-0.0007211975753307343,0.001251974143087864
1772555170982545700,5.526545654296875,0.0014928299933671951,-0.00043341703712940216,0.00009418744593858719
1772555170992477700,5.536477783203125,-0.0009857742115855217,-0.0006856173276901245,0.0005293479189276695
1772555171002410800,5.54641064453125,0.0009732018224895,-0.0016719894483685493,0.0007682349532842636
1772555171012342800,5.5563427734375,-0.0017895614728331566,-0.0008216425776481628,-0.0017535118386149406
1772555171022274600,5.566274658203125,-0.001187303103506565,0.00024003908038139343,0.0012826016172766685
1772555171032207600,5.57620751953125,-0.0003862245939671993,-0.00043613649904727936,-0.0012018615379929543
1772555171042139600,5.5861396484375,-0.0008568456396460533,0.00018667802214622498,0.00013245269656181335
1772555171052072400,5.596072509765625,-0.0003780093975365162,-0.00017204880714416504,-0.00027794018387794495
1772555171062004500,5.60600439453125,0.0014071045443415642,-0.00015211477875709534,0.0002775033935904503
1772555171071937500,5.6159375,0.0021117771975696087,-0.0005800854414701462,-0.001566469669342041
1772555171081869600,5.62586962890625,0.0008297357708215714,-0.0004810541868209839,-0.0006312988698482513
1772555171091802600,5.635802734375,-0.0005958541296422482,0.000354645773768425,0.0007069399580359459
1772555171101734700,5.645734619140625,-0.0004585632123053074,0.00010753236711025238,0.0002642534673213959
1772555171111666700,5.655666748046875,0.0013385377824306488,0.00017171353101730347,-0.0011520152911543846
1772555171121599700,5.665599853515625,-0.000828353688120842,-0.0010469509288668633,0.0005974220111966133
1772555171131531800,5.67553173828125,0.001549050211906433,-0.0017761243507266045,0.0025907978415489197
1772555171141464800,5.68546484375,0.0009407326579093933,-0.0006126388907432556,-0.001714235171675682
1772555171151396900,5.69539697265625,-0.000316013116389513,0.0023168381303548813,0.00028047244995832443
1772555171161330000,5.705329833984375,-0.0009566303342580795,-0.0001661926507949829,0.0021751131862401962
1772555171171262000,5.715261962890625,0.0016506044194102287,-0.001972881145775318,0.0017476752400398254
1772555171181195000,5.725195068359375,0.0006196661852300167,-0.0008265804499387741,0.0016167517751455307
1772555171191127000,5.735126953125,-0.0007507964037358761,0.0006277728825807571,-0.0015846341848373413
1772555171201058800,5.745058837890625,0.0015106839127838612,-0.001016085036098957,0.000418173149228096
1772555171210991900,5.754991943359375,-0.0013972213491797447,-0.0003140754997730255,0.0007460080087184906
1772555171220924000,5.764923828125,-0.0017688754014670849,-0.00023627839982509613,-0.0016708653420209885
1772555171230857000,5.77485693359375,-0.00040826667100191116,-0.00017342716455459595,0.0024684863165020943
1772555171240789000,5.7847890625,-0.00045218830928206444,0.0017060991376638412,0.0008348394185304642
1772555171250722000,5.79472216796875,0.0016834004782140255,0.000483708456158638,0.00048516690731048584
1772555171260654000,5.804654052734375,0.0013614008203148842,0.000036055222153663635,0.0009315451607108116
1772555171270587000,5.8145869140625,0.000340078491717577,0.0022768396884202957,-0.003026711754500866
1772555171280519000,5.824518798828125,0.0022765398025512695,0.0005405209958553314,-0.0006623109802603722
1772555171290451000,5.834450927734375,-0.0005586612969636917,0.0008521117269992828,0.000964348204433918
1772555171300384000,5.844384033203125,0.0006367783062160015,0.00019646622240543365,0.00011425279080867767
1772555171310316000,5.85431591796875,-0.00162930553779006,-0.00042085349559783936,-0.0021246671676635742
1772555171320249000,5.8642490234375,0.0001528891734778881,-0.0023040249943733215,0.0012343833222985268
1772555171330180900,5.874180908203125,-0.000380542129278183,-0.0017591426149010658,-0.0007491391152143478
1772555171340114000,5.884114013671875,-0.0003828643821179867,0.0005358308553695679,0.0010000774636864662
1772555171350046000,5.8940458984375,-0.0006795404478907585,0.0009600725024938583,0.001137230545282364
1772555171359979000,5.90397900390625,0.00027713412418961525,0.0009987428784370422,0.0001015951856970787
1772555171369911000,5.9139111328125,-0.0016789576038718224,0.0003017932176589966,-0.0014883121475577354
1772555171379843000,5.923843017578125,-0.000571513082832098,0.0010397285223007202,0.0012577613815665245
1772555171389776000,5.93377587890625,-0.0005464791320264339,-0.0007802769541740417,-0.00037715304642915726
1772555171399708200,5.943708251953125,0.0006866487674415112,0.00044697709381580353,0.0006623147055506706
1772555171409641000,5.953640869140625,-0.0010358840227127075,0.001623295247554779,-0.0016426518559455872
1772555171419573000,5.963572998046875,-0.0037589347921311855,-0.0016009025275707245,0.0007584402337670326
1772555171429506000,5.973506103515625,0.0028885817155241966,0.00007635541260242462,-0.0003630165010690689
1772555171439437800,5.983437744140625,-0.0004244120791554451,-0.0013487432152032852,0.0023110471665859222
1772555171449371000,5.993370849609375,0.0012379330582916737,-0.001851014792919159,0.0009999731555581093
1772555171459303000,6.003302978515625,0.0009643924422562122,0.001432228833436966,-0.0011551110073924065
1772555171469235000,6.01323486328125,-0.00005959300324320793,-0.0005065519362688065,-0.0015223613008856773
1772555171479168000,6.02316796875,0.0013450444675981998,-0.00022902525961399078,0.0010887160897254944
1772555171489100000,6.03310009765625,-0.0017586033791303635,-0.000025559216737747192,-0.0013731103390455246
1772555171499033000,6.043033203125,-0.0005786526016891003,0.002074429765343666,-0.0003364644944667816
1772555171508965000,6.052965087890625,0.002798768226057291,0.0006022341549396515,-0.001585220918059349
1772555171518898000,6.06289794921875,0.00032854219898581505,0.00014720484614372253,0.0018133632838726044
1772555171528830000,6.072829833984375,0.00059911934658885,0.0029086358845233917,0.0003901701420545578
1772555171538763000,6.082762939453125,-0.0009392350912094116,-0.001249038614332676,-0.002042907290160656
1772555171548695000,6.092695068359375,0.00026211701333522797,-0.0009078877046704292,0.0001898864284157753
1772555171558626800,6.102626708984375,-0.0012927758507430553,0.0002611633390188217,-0.000456836074590683
1772555171568559900,6.112559814453125,-0.0005023493431508541,-0.0003439057618379593,-0.0012986613437533379
1772555171578492000,6.122491943359375,0.0006065932102501392,-0.0013863015919923782,-0.0005185557529330254
1772555171588425000,6.132425048828125,-0.0011739963665604591,-0.00010425597429275513,0.00003085378557443619
1772555171598357000,6.14235693359375,0.0032949415035545826,0.00030417926609516144,-0.0017694542184472084
1772555171608290000,6.1522900390625,0.0008570835925638676,-0.00028970465064048767,-0.0013595931231975555
1772555171618222000,6.16222216796875,0.0000199940986931324,-0.00033191777765750885,-0.0001480448991060257
1772555171628155000,6.17215478515625,0.00006739841774106026,-0.001936471089720726,-0.0004545748233795166
1772555171638087000,6.1820869140625,-0.0003300132229924202,0.0009053535759449005,0.0002891933545470238
1772555171648019200,6.192019287109375,-0.0009902105666697025,-0.000019827857613563538,0.00031023193150758743
1772555171657952000,6.201951904296875,0.0011819852516055107,-0.0005213804543018341,0.00008098501712083817
1772555171667883800,6.2118837890625,-0.001355474814772606,-0.000042011961340904236,-0.000026873312890529633
1772555171677816800,6.22181689453125,0.0007867417298257351,-0.0015169419348239899,-0.0009100772440433502
1772555171687748900,6.231748779296875,0.000250114593654871,-0.0010149357840418816,0.001282237470149994
1772555171697682000,6.241681884765625,-0.00011578481644392014,0.001498587429523468,-0.0003363564610481262
1772555171707614000,6.251614013671875,-0.001978399697691202,0.00011134706437587738,0.0005044033750891685
1772555171717546000,6.2615458984375,0.0002366187982261181,-0.00046008452773094177,-0.0011025546118617058
1772555171727479000,6.27147900390625,-0.00013329461216926575,-0.001898457296192646,-0.0012450339272618294
1772555171737411000,6.2814111328125,0.0015057534910738468,0.0003085043281316757,-0.00038318242877721786
1772555171747344100,6.29134423828125,-0.0003067939542233944,-0.0016009826213121414,0.0009159073233604431
1772555171757276200,6.301276123046875,0.00113970460370183,0.0004203151911497116,0.002079053781926632
1772555171767209000,6.311208984375,-0.0016211946494877338,-0.0006058011204004288,-0.0003263130784034729
1772555171777140700,6.321140625,0.0010345238260924816,-0.00009947456419467926,0.000331072136759758
1772555171787074000,6.331073974609375,-0.0021703243255615234,-0.00048350170254707336,0.0017782337963581085
1772555171797005800,6.341005859375,-0.002489787759259343,-0.0019575925543904305,-0.0014180056750774384
1772555171806939000,6.35093896484375,-0.0008404920808970928,-0.00031602010130882263,0.0007905540987849236
1772555171816871000,6.360870849609375,-0.0012870030477643013,0.0006481669843196869,0.001544472761452198
1772555171826803000,6.370802978515625,-0.0006185495294630527,-0.0023912983015179634,-0.00007233209908008575
1772555171836736000,6.380736083984375,-0.0010345284827053547,0.00039898231625556946,0.001256398856639862
1772555171846668000,6.39066796875,0.0005588405765593052,-0.00046467967331409454,-0.00048291124403476715
1772555171856601000,6.40060107421875,-0.0004349970258772373,-0.002568070776760578,0.0008160406723618507
1772555171866533000,6.410533203125,0.001395926345139742,-0.0018255813047289848,-0.0007136790081858635
1772555171876466000,6.4204658203125,0.002228179946541786,0.001330789178609848,0.001978282816708088
1772555171886398000,6.43039794921875,-0.00022432487457990646,0.00188472680747509,-0.0004350738599896431
1772555171896330000,6.440330078125,0.0013927374966442585,-0.0014657769352197647,-0.0010562287643551826
1772555171906262800,6.4502626953125,-0.0028052034322172403,-0.001026621088385582,0.0013267677277326584
1772555171916194800,6.46019482421875,0.0010430975817143917,-0.0005274750292301178,-0.0001406511291861534
1772555171926127900,6.4701279296875,0.0012598787434399128,-0.00010909326374530792,-0.00014224927872419357
1772555171936060000,6.480059814453125,-0.000927286222577095,-0.0007276218384504318,-0.001444411464035511
1772555171945993000,6.489992919921875,0.0011025751009583473,0.0008726716041564941,-0.00007661152631044388
1772555171955925000,6.499925048828125,0.0008915914222598076,-0.0006454121321439743,0.0015246542170643806
1772555171965858000,6.509858154296875,-0.002506868215277791,-0.00032050721347332,0.000654599629342556
1772555171975790000,6.5197900390625,0.00040964968502521515,-0.0021397555246949196,0.0005935579538345337
1772555171985722000,6.52972216796875,-0.0005813129246234894,-0.00047474727034568787,0.002436199225485325
1772555171995655200,6.5396552734375,0.0021778643131256104,-0.0002454351633787155,-0.00032314565032720566
1772555172005587000,6.5495869140625,0.0008066026493906975,-0.0017913999035954475,0.0011176243424415588
1772555172015519700,6.559519775390625,0.00004397612065076828,0.00007737800478935242,0.0024403687566518784
1772555172025451800,6.56945166015625,-0.00040343496948480606,0.0010142792016267776,0.00010051485151052475
1772555172035384800,6.579384765625,0.0008972170762717724,-0.000035099685192108154,0.0012791268527507782
1772555172045316900,6.58931689453125,-0.0012663351371884346,0.00007169321179389954,-0.0003581847995519638
1772555172055250000,6.59925,-0.00012692948803305626,-0.0006103310734033585,0.0007682740688323975
1772555172065182000,6.609181884765625,-0.00043026357889175415,0.0003928821533918381,0.0009704073891043663
1772555172075114000,6.619114013671875,0.0011624908074736595,0.00018487125635147095,-0.000053279101848602295
1772555172085047000,6.629047119140625,-0.0011563235893845558,0.00034892186522483826,0.000725695863366127
1772555172094979000,6.63897900390625,0.0022499114274978638,-0.0019473815336823463,0.0012622755020856857
1772555172104912100,6.648912109375,0.0002077994868159294,-0.0029921401292085648,0.0014942372217774391
1772555172114844200,6.65884423828125,-0.00017387466505169868,-0.00008831731975078583,-0.0009579034522175789
1772555172124777000,6.66877685546875,-0.0024234468583017588,0.0012065116316080093,0.00032520759850740433
1772555172134709000,6.678708984375,-0.001702700974419713,0.0018065106123685837,-0.0008264128118753433
1772555172144641000,6.68864111328125,0.0007487386465072632,0.0007441751658916473,0.0008116979151964188
1772555172154574000,6.698573974609375,0.0004651774652302265,0.0007302425801753998,-0.0017155958339571953
1772555172164506000,6.708506103515625,-0.001261882483959198,-0.00045752711594104767,-0.00019466504454612732
1772555172174439200,6.718439208984375,-0.0014752116985619068,0.001520153135061264,-0.00024669431149959564
1772555172184371000,6.728370849609375,-0.001199041958898306,-0.0005579125136137009,-0.0006221998482942581
1772555172194304000,6.738303955078125,0.0013538547791540623,-0.0004980843514204025,-0.0028278855606913567
1772555172204236000,6.748236083984375,-0.0004887864924967289,-0.0016831904649734497,0.003193521872162819
1772555172214169000,6.758169189453125,0.0024398802779614925,0.0001133400946855545,-0.0004922552034258842
1772555172224101000,6.76810107421875,0.0014718212187290192,-0.0001790747046470642,-0.0014691026881337166
1772555172234033200,6.778033203125,-0.0011029457673430443,-0.0008508944883942604,-0.0003002537414431572
1772555172243966200,6.78796630859375,-0.0005743079818785191,0.00012728385627269745,0.0018113665282726288
1772555172253898200,6.797898193359375,0.0001109507866203785,-0.001568312756717205,-0.000004230998456478119
1772555172263831000,6.8078310546875,-0.0003708149306476116,0.0013225488364696503,-0.0016066553071141243
1772555172273763000,6.81776318359375,-0.0015450483188033104,-0.00009969808161258698,0.0010450668632984161
1772555172283696000,6.827696044921875,0.0007151765748858452,0.0006230846047401428,-0.001475348137319088
1772555172293628200,6.837628173828125,0.001508055254817009,-0.0024553900584578514,0.0012424346059560776
1772555172303561200,6.847561279296875,0.002302742563188076,-0.00026360899209976196,0.00014281459152698517
1772555172313493000,6.857492919921875,0.00034511834383010864,-0.0024086935445666313,0.0023273341357707977
1772555172323425000,6.867425048828125,-0.002506860764697194,0.0008659288287162781,-0.0003102608025074005
1772555172333358000,6.877358154296875,-0.0023138727992773056,0.0011828746646642685,0.0012276358902454376
1772555172343290000,6.8872900390625,0.0007050866261124611,-0.000298110768198967,0.00003480631858110428
1772555172353223200,6.89722314453125,0.001562848687171936,-0.0006910450756549835,-0.00011147558689117432
1772555172363155200,6.9071552734375,-0.00009869737550616264,0.001027759164571762,0.0012683086097240448
1772555172373088000,6.917087890625,0.0015317550860345364,0.0009972695261240005,0.00018681306391954422
1772555172383020300,6.927020263671875,0.0014662411995232105,-0.002322360873222351,-0.000511733815073967
1772555172392953000,6.936953125,0.0018435437232255936,0.0004960242658853531,0.0033620335161685944
1772555172402885000,6.946885009765625,0.00036096200346946716,-0.003362896852195263,0.0001225639134645462
1772555172412817000,6.95681689453125,0.002169482409954071,0.0013266392052173615,0.0006047869101166725
1772555172422750000,6.96675,0.00009141815826296806,0.001025436446070671,-0.0006988300010561943
1772555172432682000,6.976681884765625,0.00014646025374531746,-0.0019561266526579857,0.003197895362973213
1772555172442615000,6.986614990234375,0.00041117845103144646,-0.002139618620276451,0.00043912697583436966
1772555172452547000,6.996547119140625,0.0006731604225933552,-0.0004727579653263092,-0.00112149678170681
1772555172462480100,7.006480224609375,0.00173975620418787,-0.00038354285061359406,0.0011986494064331055
1772555172472412200,7.016412109375,-0.00198800559155643,-0.00013005174696445465,0.0003058724105358124
1772555172482344200,7.02634423828125,-0.0005610836669802666,0.0003815405070781708,0.0005764495581388474
1772555172492277200,7.03627734375,0.0020816116593778133,0.00031346268951892853,0.00019437074661254883
1772555172502209300,7.046209228515625,0.0003215288743376732,0.0010724645107984543,-0.00031775515526533127
1772555172512142000,7.05614208984375,0.001836173702031374,-0.0010870425030589104,0.0015070121735334396
1772555172522074000,7.06607421875,-0.000552415382117033,-0.0005762483924627304,-0.0010083438828587532
1772555172532007200,7.076007080078125,0.00015918072313070297,0.0009360052645206451,-0.00038371048867702484
1772555172541939000,7.08593896484375,0.002020197454839945,-0.0014565791934728622,0.000880759209394455
1772555172551872000,7.0958720703125,-0.0011658789590001106,-0.0012910198420286179,-0.001743881031870842
1772555172561804000,7.105803955078125,0.000516972504556179,0.001933801919221878,-0.0010519921779632568
1772555172571736000,7.115736083984375,0.0009846827015280724,-0.00011992081999778748,0.0004370603710412979
1772555172581669000,7.125669189453125,0.0015625888481736183,0.0004390757530927658,0.00032547395676374435
1772555172591601200,7.13560107421875,0.0011412696912884712,0.001423276960849762,0.0016595413908362389
1772555172601534200,7.1455341796875,-0.0007477104663848877,0.00012498535215854645,0.0011793728917837143
1772555172611466200,7.15546630859375,-0.00039854319766163826,-0.0016792835667729378,0.00011214427649974823
1772555172621399000,7.16539892578125,-0.0010217232629656792,-0.00028405338525772095,-0.00011156126856803894
1772555172631331300,7.175331298828125,-0.000056922901421785355,0.000661926344037056,0.001679881475865841
1772555172641264000,7.18526416015625,0.0023452485911548138,0.0008992142975330353,-0.0005150958895683289
1772555172651196000,7.19519580078125,0.00007722852751612663,0.0008205100893974304,-0.00213698111474514
1772555172661128000,7.2051279296875,0.0009139939211308956,-0.0005805790424346924,0.0008598743006587029
1772555172671061000,7.21506103515625,-0.0025579272769391537,0.0018328838050365448,0.001277172937989235
1772555172680993000,7.224992919921875,0.00042161764577031136,0.000519944354891777,0.0025008954107761383
1772555172690926000,7.234926025390625,0.0006525213830173016,0.00027194246649742126,-0.0021769944578409195
1772555172700858000,7.244858154296875,0.0002559768036007881,-0.0005291365087032318,-0.001284303143620491
1772555172710791200,7.254791259765625,-0.0003878045827150345,0.0007051881402730942,-0.0026944950222969055
1772555172720723200,7.26472314453125,0.0006074183620512486,0.0012639202177524567,-0.002504877746105194
1772555172730655200,7.2746552734375,-0.00022976379841566086,-0.003808034583926201,0.0018084365874528885
1772555172740588300,7.28458837890625,-1.993030309677124e-7,0.0009723398834466934,0.0002917656674981117
1772555172750520000,7.29452001953125,-0.0008041043765842915,-0.0006447043269872665,-0.001928546465933323
1772555172760452900,7.304452880859375,-0.0022653809282928705,-0.004537979140877724,0.0016539376229047775
1772555172770385200,7.31438525390625,0.00046779215335845947,0.0005110744386911392,0.0011133980005979538
1772555172780318000,7.32431787109375,-0.0006483383476734161,0.00021067075431346893,-0.0025388607755303383
1772555172790250000,7.33425,0.00241501210257411,0.0003469735383987427,-0.0007991082966327667
1772555172800183000,7.34418310546875,0.0006322921253740788,0.0009733494371175766,-0.0006441120058298111
1772555172810115000,7.354114990234375,-0.0031945789232850075,0.0025768596678972244,-0.002258237451314926
1772555172820047000,7.364047119140625,-0.00026297103613615036,0.00011050514876842499,0.0014105327427387238
1772555172829980200,7.373980224609375,-0.0009884661994874477,0.0003677438944578171,-0.000028483569622039795
1772555172839912200,7.383912109375,0.0013697627000510693,0.000256955623626709,-0.0019108057022094727
1772555172849845200,7.39384521484375,-0.001646086573600769,-0.0012311143800616264,-0.0017055952921509743
1772555172859777300,7.40377734375,-0.0011182483285665512,0.00006238371133804321,-0.00004990771412849426
1772555172869710000,7.4137099609375,-0.0021384586580097675,-0.0035281945019960403,0.002694142982363701
1772555172879642000,7.42364208984375,0.000647207722067833,-0.0012421375140547752,-0.002521923743188381
1772555172889574100,7.43357421875,0.002477855421602726,-0.001283838413655758,0.00006195995956659317
1772555172899507000,7.4435068359375,0.0007721008732914925,-0.001765870489180088,0.002087026834487915
1772555172909439000,7.45343896484375,-0.0005794214084744453,-0.0013393023982644081,-0.0027119340375065804
1772555172919372000,7.4633720703125,-0.0015410890337079763,0.0006737802177667618,-0.0004405239596962929
1772555172929304000,7.473303955078125,0.0030349474400281906,0.0004315488040447235,-0.0015042060986161232
1772555172939237000,7.483237060546875,0.001124662347137928,0.0010699089616537094,0.0008127437904477119
1772555172949169200,7.493169189453125,-0.0015948563814163208,0.00024199485778808594,-0.0024206284433603287
1772555172959102200,7.503102294921875,-0.0020023200195282698,-0.0011404529213905334,0.0008659781888127327
1772555172969034200,7.5130341796875,-0.0010533682070672512,-0.0005848100408911705,-0.0005211010575294495
1772555172978966000,7.522966064453125,-0.0018453923985362053,-0.00006895512342453003,0.0013244692236185074
1772555172988899000,7.532899169921875,0.0012861001305282116,0.00017929822206497192,-0.0005126791074872017
1772555172998831000,7.5428310546875,-0.00019621523097157478,0.00014174729585647583,0.0013888170942664146
1772555173008764000,7.552763916015625,-0.000024677254259586334,-0.0015904651954770088,-0.0018998663872480392
1772555173018696200,7.5626962890625,0.0013042399659752846,0.00028147175908088684,-0.0015810858458280563
1772555173028629000,7.57262890625,0.0011791260913014412,-0.0011555468663573265,0.0012057675048708916
1772555173038561000,7.58256103515625,-0.00018095038831233978,0.00028176233172416687,0.002575165592133999
1772555173048493000,7.5924931640625,-0.0003217700868844986,-0.0019370485097169876,-0.0005603330209851265
1772555173058426000,7.602426025390625,-0.0016959612257778645,-0.001819070428609848,-0.00011984631419181824
1772555173068358100,7.612358154296875,-0.001337550114840269,0.00024718791246414185,-0.0019054180011153221
1772555173078291200,7.622291259765625,0.00032159918919205666,-0.0004098154604434967,-0.001165059395134449
1772555173088223000,7.632222900390625,0.0003200559876859188,0.0009283628314733505,0.0006173960864543915
1772555173098156300,7.64215625,-0.000497001688927412,0.004967046901583672,0.0007399022579193115
1772555173108088000,7.652088134765625,-0.002096407348290086,-0.00020258501172065735,0.001298675313591957
1772555173118020000,7.66202001953125,0.0012192283757030964,-0.0001613069325685501,-0.002062499523162842
1772555173127953200,7.671953125,-0.0010233470238745213,0.000013774260878562927,-0.00016664061695337296
1772555173137885200,7.68188525390625,-0.0009125596843659878,-0.0013926401734352112,0.0006107361987233162
1772555173147818000,7.69181787109375,-0.001076974906027317,-0.001663457602262497,-0.0004383819177746773
1772555173157749800,7.701749755859375,-0.001280440017580986,0.0018215551972389221,0.0018122559413313866
1772555173167682600,7.7116826171875,0.0003606020472943783,-0.001363012008368969,0.0007764110341668129
1772555173177614600,7.721614501953125,0.0017411848530173302,-0.000483635812997818,-0.0018183067440986633
1772555173187547600,7.731547607421875,-0.0025456040166318417,-0.0007757609710097313,0.002459201030433178
1772555173197479700,7.741479736328125,-0.0017357366159558296,-0.0008247634395956993,-0.0015440629795193672
1772555173207411700,7.75141162109375,0.003463905770331621,0.0005337055772542953,0.001413595862686634
1772555173217344800,7.7613447265625,-0.0014746603555977345,-0.0008585946634411812,0.00048814713954925537
1772555173227276800,7.77127685546875,-0.00024230778217315674,0.0010056551545858383,-0.001108512282371521
1772555173237209900,7.7812099609375,-0.0006055627018213272,-0.0033611301332712173,-0.0005164910107851028
1772555173247142000,7.791141845703125,0.0008143307641148567,0.0005899518728256226,-0.00017422903329133987
1772555173257075000,7.801074951171875,0.0014343145303428173,0.00003068707883358002,-0.0012051379308104515
1772555173267006700,7.8110068359375,-0.0007939818315207958,-0.001174229197204113,-0.0019287830218672752
1772555173276938800,7.820938720703125,0.0018563964404165745,-0.00042907707393169403,0.0009133424609899521
1772555173286871600,7.83087158203125,-0.0011523622088134289,0.0011787712574005127,0.0008083013817667961
1772555173296803800,7.840803955078125,0.0011328966356813908,-0.0005229897797107697,-0.003886052407324314
1772555173306736600,7.850736572265625,0.002573383506387472,-0.00010284781455993652,-0.0008593685925006866
1772555173316668700,7.860668701171875,0.001258314587175846,0.0002356395125389099,0.0036237966269254684
1772555173326601700,7.870601806640625,-0.0013652895577251911,-0.002658385783433914,0.0011612894013524055
1772555173336533800,7.88053369140625,0.00036709709092974663,0.0008956026285886765,-0.0015018722042441368
1772555173346466800,7.890466796875,-0.0008139689452946186,-0.0033838897943496704,0.000756729394197464
1772555173356398800,7.90039892578125,0.0020944694988429546,-0.0012951726093888283,-0.0006781816482543945
1772555173366330600,7.91033056640625,0.0004280642606317997,0.0020367763936519623,0.00005307793617248535
1772555173376263700,7.920263671875,0.0016011865809559822,0.0014578048139810562,-0.00400877557694912
1772555173386195700,7.93019580078125,0.0003647604025900364,-0.0005846703425049782,0.0012414194643497467
1772555173396128800,7.940128662109375,-0.0010650907643139362,-0.0005039777606725693,0.00013434328138828278
1772555173406060800,7.950060791015625,-0.0003884541802108288,0.0004895031452178955,-0.0027632107958197594
1772555173415993600,7.95999365234375,0.001331681851297617,0.0008698031306266785,0.0019535133615136147
1772555173425925600,7.969925537109375,0.002160528674721718,0.0014576166868209839,-0.0016149496659636497
1772555173435857700,7.979857666015625,-0.00003764452412724495,-0.000750410370528698,0.000591745600104332
1772555173445790700,7.989790771484375,-0.000822343397885561,0.0017425306141376495,-0.0016444465145468712
1772555173455722800,7.99972265625,-0.001491862116381526,0.0005494337528944016,-0.001517946831882
1772555173465655800,8.00965576171875,0.0009815525263547897,0.0009827353060245514,-0.000774613581597805
1772555173475587600,8.019587646484375,0.000947730615735054,0.0033108703792095184,-0.0008451873436570168
1772555173485521000,8.02952099609375,0.0017748423852026463,-0.0017084535211324692,0.0004696352407336235
1772555173495452700,8.03945263671875,0.0004006512463092804,0.0019243638962507248,-0.0010097501799464226
1772555173505384700,8.049384765625,0.001490944530814886,-0.0004945136606693268,-0.0019975248724222183
1772555173515317800,8.05931787109375,-0.0012696883641183376,-0.0019667092710733414,0.00007494725286960602
1772555173525249800,8.069249755859374,-0.0005318899638950825,0.0008131023496389389,-0.0005956003442406654
1772555173535182600,8.0791826171875,0.00038263993337750435,-0.00113739725202322,-0.0003745574504137039
1772555173545115000,8.089114990234375,-0.00031572533771395683,0.00006172060966491699,-0.0003812052309513092
1772555173555047700,8.099047607421875,0.0017660679295659065,-0.0013913009315729141,0.0002470342442393303
1772555173564979700,8.108979736328125,0.002462141215801239,-0.0001699049025774002,-0.0015896186232566833
1772555173574912800,8.118912841796876,0.0014599934220314026,0.000051936134696006775,0.00044184084981679916
1772555173584844800,8.1288447265625,-0.0015205510426312685,0.001203952357172966,0.001179576851427555
1772555173594776600,8.138776611328124,0.0006632409058511257,0.0007144641131162643,0.0006397543475031853
1772555173604709600,8.148709716796875,0.0027582417242228985,0.0022712983191013336,0.0010154815390706062
1772555173614641700,8.1586416015625,0.000020512379705905914,-0.001367911696434021,0.0008077546954154968
1772555173624574700,8.16857470703125,0.0004058191552758217,-0.0016341684386134148,-0.0015910295769572258
1772555173634506800,8.1785068359375,0.0002979608252644539,-0.002242167480289936,0.0006140684708952904
1772555173644439800,8.188439697265625,-0.0006551099941134453,-0.00022398866713047028,-0.00007976964116096497
1772555173654371800,8.198371826171876,0.00240086717531085,0.00027428753674030304,0.001219586469233036
1772555173664303900,8.208303955078126,-0.0005630138330161572,0.00032200850546360016,-0.00025277677923440933
1772555173674236700,8.218236572265624,-0.00038165226578712463,0.0013739578425884247,-0.002067454159259796
1772555173684168700,8.228168701171874,-0.0008817501366138458,0.0012977663427591324,-0.0003197481855750084
1772555173694101800,8.238101806640625,-0.001403996255248785,0.0010261237621307373,-0.0010696947574615479
1772555173704033500,8.248033447265625,0.0021682484075427055,-0.0011049462482333183,-0.0002568913623690605
1772555173713966600,8.257966552734375,0.0006430563516914845,0.0018879137933254242,0.00006135646253824234
1772555173723898600,8.267898681640625,-0.0016035945154726505,0.0007250532507896423,0.00043016020208597183
1772555173733830700,8.27783056640625,-0.001245665829628706,-0.0008651195093989372,-0.0014023613184690475
1772555173743763700,8.287763671875,-0.0004069940187036991,-0.0019937818869948387,0.00019227154552936554
1772555173753695700,8.29769580078125,0.0009504188783466816,0.0018576811999082565,-0.004066389054059982
1772555173763628800,8.30762890625,0.00011313566938042641,0.0012067034840583801,0.0005790255963802338
1772555173773560800,8.317560791015625,0.002174156252294779,0.00008125230669975281,-0.000833515077829361
1772555173783493600,8.32749365234375,-0.0013934699818491936,0.0001550242304801941,-0.0008360641077160835
1772555173793426000,8.337426025390625,0.0013786139898002148,-0.0016966722905635834,0.0007740836590528488
1772555173803358700,8.347358642578126,0.001334472093731165,-0.0007529985159635544,0.0008857995271682739
1772555173813290800,8.357290771484376,-0.0011752909049391747,-0.0008781673386693001,0.0014895377680659294
1772555173823222500,8.367222412109374,0.0008363937959074974,0.0003375951200723648,-0.000627029687166214
1772555173833155600,8.377155517578124,-0.000603044405579567,-0.0013838717713952065,0.0012049581855535507
1772555173843087600,8.387087646484375,0.0000685318373143673,-0.001881469041109085,0.0009190253913402557
1772555173853020700,8.397020751953125,0.0018512518145143986,-0.0007640067487955093,-0.0019257636740803719
1772555173862952700,8.40695263671875,-0.0022593452595174313,0.0004090089350938797,0.0018722880631685257
1772555173872885800,8.4168857421875,-0.00013627344742417336,-0.00004159659147262573,-0.0007706331089138985
1772555173882817800,8.42681787109375,-0.001333140768110752,-0.001434633508324623,-0.0007058829069137573
1772555173892749800,8.436749755859376,-0.0017312830314040184,0.0014873873442411423,-0.002665170468389988
1772555173902683000,8.446682861328124,0.0008986550383269787,0.0006554443389177322,-0.0014062002301216125
1772555173912615000,8.456614990234375,-0.0006888555362820625,0.0003009773790836334,-0.0012245727702975273
1772555173922547700,8.466547607421875,0.0019729528576135635,0.00006998144090175629,0.000793134793639183
1772555173932479700,8.476479736328125,-0.0017911591567099094,0.0009243246167898178,-0.0009272675961256027
1772555173942412500,8.48641259765625,-0.00060701509937644,0.0009570755064487457,0.001091962680220604
1772555173952344600,8.496344482421875,0.0007314900867640972,-0.00011032074689865112,0.0012877052649855614
1772555173962276600,8.506276611328126,-0.0017376078758388758,-0.001415155827999115,-0.00001010112464427948
1772555173972209700,8.516209716796874,0.0007764161564409733,0.00022322125732898712,-0.0007275566458702087
1772555173982141700,8.5261416015625,-0.0003564688377082348,0.0013675596565008163,0.00023886188864707947
1772555173992074800,8.53607470703125,0.0016558156348764896,0.001251712441444397,0.0008639050647616386
1772555174002006800,8.5460068359375,0.0006627403199672699,-0.0005455091595649719,-0.00022572744637727737
1772555174011939800,8.55593994140625,0.0007434338331222534,-0.00042566657066345215,0.0006310120224952698
1772555174021871900,8.565871826171875,0.0007609049789607525,0.0000870879739522934,0.0016376441344618797
1772555174031803600,8.5758037109375,0.0013233642093837261,0.008884575217962265,0.0043564653024077415
1772555174041737000,8.585737060546874,0.0013080541975796223,0.05021309480071068,0.01943260245025158
1772555174051668700,8.595668701171874,0.0019432180561125278,0.007371090352535248,0.00285948533564806
1772555174061601500,8.6056015625,0.0005173808895051479,0.02939126268029213,0.009877961128950119
1772555174071533600,8.615533447265625,0.0010063368827104568,0.008176254108548164,0.0011736853048205376
1772555174081466600,8.625466552734375,0.0002757539041340351,0.009513478726148605,0.0031003328040242195
1772555174091398700,8.635398681640625,-0.0004238584078848362,0.0032635722309350967,0.0032023312523961067
1772555174101331700,8.645331787109376,0.0011421763338148594,0.00675387866795063,0.0005592526867985725
1772555174111263700,8.655263671875,-0.001255734357982874,0.006470251828432083,0.00225755013525486
1772555174121195800,8.66519580078125,0.0014254632405936718,-0.010960653424263,-0.005938107147812843
1772555174131128800,8.67512890625,-0.0007282351143658161,-0.02858491986989975,-0.007805515080690384
1772555174141060900,8.685060791015625,0.0003535710275173187,-0.04942070320248604,-0.016519933938980103
1772555174150994000,8.694993896484375,0.001375159714370966,-0.032485924661159515,-0.01004366111010313
1772555174160925700,8.70492578125,-0.003918755333870649,0.022233953699469566,0.007637525908648968
