time,seconds_elapsed,z,y,x
1772555891713422800,0.0664228515625,-0.0018027913756668568,0.0017356723546981812,0.0007114093750715256
1772555891723353900,0.076353759765625,0.0018095220439136028,0.0005518235266208649,-0.0007773758843541145
1772555891733284600,0.08628466796875,0.0009663654491305351,-0.0027371803298592567,0.0021877875551581383
1772555891743216600,0.096216552734375,-0.0014743134379386902,-0.00035317428410053253,-0.00010629743337631226
1772555891753148000,0.10614794921875,0.0010698046535253525,-0.00032281409949064255,-0.0006618322804570198
1772555891763078700,0.11607861328125,-0.0009523807093501091,-0.0009251376613974571,0.0010376442223787308
1772555891773010700,0.1260107421875,0.0005033030174672604,-0.00024310126900672913,-0.0021291207522153854
1772555891782941700,0.135941650390625,-0.0016271169297397137,0.0003890804946422577,-0.001736074686050415
1772555891792872700,0.145872802734375,0.0017854575999081135,0.0005054604262113571,0.0009952634572982788
1772555891802804700,0.1558046875,-0.0008684895001351833,0.0003536362200975418,-0.0005651246756315231
1772555891812735700,0.16573583984375,0.00018026353791356087,-0.00239421334117651,0.0003752373158931732
1772555891822666800,0.175666748046875,0.0010318150743842125,-0.001407417468726635,-0.000010385178029537201
1772555891832598800,0.185598876953125,0.00022700801491737366,0.003574557602405548,-0.0003288993611931801
1772555891842529800,0.19552978515625,0.0006078565493226051,0.0013319458812475204,0.0007969317957758904
1772555891852460800,0.205460693359375,0.0005719037726521492,-0.000034788623452186584,0.0018118629232048988
1772555891862392800,0.215392822265625,-0.000051746610552072525,-0.0002115946263074875,0.0017919670790433884
1772555891872324000,0.225323974609375,0.0005027232691645622,-0.0003492804244160652,-0.0015108855441212654
1772555891882254800,0.2352548828125,0.00011958833783864975,0.0003341883420944214,-0.00023119989782571793
1772555891892187000,0.245186767578125,0.000328646507114172,0.00008331798017024994,-0.0019654501229524612
1772555891902118000,0.255117919921875,0.0012445100583136082,0.000664345920085907,-0.0004336778074502945
1772555891912049000,0.265048828125,0.0027617127634584904,-0.0008786898106336594,-0.0010757660493254662
1772555891921981000,0.27498095703125,0.0013361824676394463,0.0004655122756958008,-0.00018052291125059128
1772555891931912000,0.284911865234375,0.0006083403714001179,-0.0016759345307946205,0.002396618016064167
1772555891941842700,0.2948427734375,0.0017255055718123913,-0.00009363330900669098,0.000625312328338623
1772555891951774700,0.304774658203125,0.000977689865976572,0.0007721595466136932,-0.0012575425207614899
1772555891961706000,0.3147060546875,-0.0013584974221885204,0.0005356427282094955,-0.0004935590550303459
1772555891971636700,0.32463671875,-0.001183261163532734,0.0008879788219928741,0.0020369766280055046
1772555891981567700,0.334567626953125,0.001020568422973156,0.00012014247477054596,-0.00009887944906949997
1772555891991499800,0.344499755859375,-0.001042848452925682,-0.0004068966954946518,0.0004832874983549118
1772555892001431000,0.35443115234375,0.0026308237574994564,-0.0008891737088561058,-0.000022673048079013824
1772555892011361800,0.36436181640625,-0.0001793443225324154,0.00035878270864486694,-0.00027753785252571106
1772555892021293800,0.3742939453125,0.0005232621915638447,-0.0002914164215326309,0.000008939765393733978
1772555892031225000,0.38422509765625,0.0006367126479744911,0.0012329760938882828,-0.0020454227924346924
1772555892041155800,0.39415576171875,0.001259984914213419,-0.0008409162983298302,-0.00015046633780002594
1772555892051088000,0.404087890625,-0.000595705583691597,0.0003889314830303192,0.00017417315393686295
1772555892061019000,0.414018798828125,0.0005521168932318687,-0.0013652928173542023,-0.0015784529969096184
1772555892070950000,0.423949951171875,-0.0005304580554366112,-0.0024044588208198547,0.00020346790552139282
1772555892080882000,0.4338818359375,-0.0017466279678046703,0.0010576751083135605,0.000023130327463150024
1772555892090813000,0.44381298828125,0.0005727186799049377,-0.00019214488565921783,-0.00100032240152359
1772555892100743700,0.45374365234375,0.0018645855598151684,0.0024118218570947647,-0.0014399699866771698
1772555892110675700,0.46367578125,-0.00010109366849064827,-0.0007426925003528595,0.0015584826469421387
1772555892120607000,0.47360693359375,0.00006892671808600426,0.0004548020660877228,0.0004925699904561043
1772555892130538000,0.4835380859375,0.0010183434933423996,0.0020180772989988327,0.0025743627920746803
1772555892140469800,0.4934697265625,0.0011249156668782234,0.0005365516990423203,0.00018387380987405777
1772555892150400800,0.50340087890625,0.0009563378989696503,-0.0023862672969698906,-0.001187387853860855
1772555892160332000,0.51333203125,-0.0005880445241928101,-0.0012217778712511063,0.00004892610013484955
1772555892170264000,0.52326416015625,-0.0008277292363345623,-0.001292085275053978,0.0003538588061928749
1772555892180194800,0.53319482421875,0.0010707140900194645,0.0002491045743227005,-0.0015511773526668549
1772555892190125800,0.543125732421875,-0.00009575067088007927,-0.0011956607922911644,0.0004014521837234497
1772555892200057900,0.553057861328125,0.0023030824959278107,-0.00043340492993593216,0.00039015524089336395
1772555892209988900,0.56298876953125,0.0020367661491036415,-0.0012227660045027733,-0.0005286354571580887
1772555892219920000,0.572919921875,0.0003547924570739269,0.00031580589711666107,0.003154972568154335
1772555892229852000,0.582851806640625,0.0019987616688013077,0.0006234012544155121,-0.0008437633514404297
1772555892239783000,0.592782958984375,-0.0011934447102248669,-0.0003369515761733055,-0.0007502101361751556
1772555892249714000,0.6027138671875,0.0005807531997561455,0.0012968983501195908,-0.00017310306429862976
1772555892259645000,0.61264501953125,0.000606476329267025,0.0006000027060508728,0.0010035187005996704
1772555892269576700,0.62257666015625,0.0009228596463799477,0.0014343708753585815,-0.00008704513311386108
1772555892279508000,0.632508056640625,0.00009721796959638596,-0.001005382277071476,0.001116093248128891
1772555892289439000,0.64243896484375,-0.0018556779250502586,0.0011144932359457016,0.0006447145715355873
1772555892299371000,0.65237109375,0.00011379271745681763,-0.0039333077147603035,-0.0007111011072993279
1772555892309301800,0.6623017578125,-0.0026748033706098795,0.0003666318953037262,-0.002335895784199238
1772555892319233000,0.67223291015625,0.0006461893208324909,0.0015790518373250961,-0.0001294286921620369
1772555892329165000,0.6821650390625,0.0007505854591727257,0.0009894277900457382,0.0013869749382138252
1772555892339095800,0.692095703125,-0.002673676237463951,-0.0011920863762497902,-0.0011083679273724556
1772555892349026800,0.70202685546875,-0.0006518042646348476,-0.0010014045983552933,0.00011428911238908768
1772555892358958800,0.711958740234375,0.0007601752877235413,-0.000052209943532943726,0.0002683699131011963
1772555892368889900,0.721889892578125,-0.0003785924054682255,-0.0013134833425283432,0.0002734297886490822
1772555892378820900,0.73182080078125,-0.002353736199438572,0.0009915400296449661,0.0026168981567025185
1772555892388753000,0.7417529296875,-0.0001153494231402874,0.0008221622556447983,-0.0013472167775034904
1772555892398684000,0.751683837890625,-0.00029060104861855507,-0.002522802911698818,0.001034867949783802
1772555892408615000,0.761614990234375,0.0005861115641891956,-0.002287912182509899,0.0024593928828835487
1772555892418547000,0.771546875,0.002063165884464979,-0.0007918709889054298,0.0012867236509919167
1772555892428478000,0.78147802734375,0.0008599497377872467,0.0010054968297481537,0.0012462437152862549
1772555892438409000,0.791408935546875,0.0015230430290102959,0.002376152202486992,-0.00017797481268644333
1772555892448341000,0.801341064453125,0.001722780056297779,-0.0024383096024394035,-0.0002887621521949768
1772555892458272000,0.81127197265625,0.0019670561887323856,-0.00023831985890865326,-0.0022989166900515556
1772555892468202800,0.82120263671875,-0.0008513671346008778,-0.002257794141769409,-0.0005705254152417183
1772555892478134800,0.831134765625,-0.0019690347835421562,-0.00013921968638896942,-0.0008961530402302742
1772555892488066000,0.841066162109375,-0.0018832809291779995,-0.0004678536206483841,0.00020027067512273788
1772555892497996800,0.850996826171875,-0.000668973196297884,0.0008905213326215744,0.00025136489421129227
1772555892507928800,0.8609287109375,0.0010271938517689705,0.0007589627057313919,-0.0024107303470373154
1772555892517859800,0.87085986328125,0.00025732070207595825,0.0006137378513813019,0.003810033667832613
1772555892527790800,0.880790771484375,0.0022672084160149097,0.00047898106276988983,-0.00020947493612766266
1772555892537721900,0.890721923828125,0.0021885670721530914,-0.0019765179604291916,0.0013011451810598373
1772555892547654000,0.90065380859375,0.0016684518195688725,-0.0005434704944491386,0.0016010170802474022
1772555892557585000,0.9105849609375,-0.00037491414695978165,-0.0018483549356460571,-0.00009708944708108902
1772555892567516000,0.920515869140625,0.0015343064442276955,-0.001125040464103222,-0.003293149173259735
1772555892577448000,0.930447998046875,-0.0009869546629488468,0.004421340301632881,0.00035842414945364
1772555892587379000,0.94037890625,0.00044555962085723877,0.002278028056025505,0.0009512435644865036
1772555892597310000,0.95031005859375,0.001995519269257784,0.0002899784594774246,-0.0011840788647532463
1772555892607242000,0.960241943359375,0.0011228015646338463,0.00010515563189983368,0.0010353997349739075
1772555892617173000,0.970173095703125,-0.0019370145164430141,0.0013367310166358948,0.0014488380402326584
1772555892627103700,0.980103759765625,0.0013887411914765835,0.0008363239467144012,0.001050163060426712
1772555892637035800,0.990035888671875,-0.0016679251566529274,-0.0011774227023124695,0.0013917312026023865
1772555892646967000,0.999967041015625,0.0009057535789906979,0.0013909302651882172,-0.0012040520086884499
1772555892656897800,1.009897705078125,-0.000341685488820076,-0.0011413134634494781,-0.0004729395732283592
1772555892666829800,1.019829833984375,-0.00032916851341724396,0.00040944479405879974,0.00013133138418197632
1772555892676760800,1.0297607421875,-0.000239610206335783,-0.001325462944805622,0.00025570299476385117
1772555892686692000,1.039692138671875,-0.0006081913597881794,0.0024559590965509415,-0.0007278025150299072
1772555892696623900,1.049623779296875,-0.0005480330437421799,0.000014415010809898376,0.0008838269859552383
1772555892706555000,1.059554931640625,0.001596077810972929,0.001192331314086914,0.00025665294378995895
1772555892716486000,1.06948583984375,0.00048567913472652435,0.00049600750207901,0.0003698384389281273
1772555892726417700,1.079417724609375,-0.0013870554976165295,-0.0002933535724878311,-0.0016211401671171188
1772555892736349000,1.089348876953125,-0.0027526146732270718,0.0007331669330596924,-0.0006270986050367355
1772555892746280000,1.099280029296875,0.0002469038590788841,0.00040613114833831787,0.0016847914084792137
1772555892756212000,1.1092119140625,0.0007772031240165234,-0.0003446629270911217,-0.00016557425260543823
1772555892766142700,1.119142822265625,0.0008208788931369781,-0.0020123347640037537,0.0004560081288218498
1772555892776074000,1.129073974609375,-0.0003364039584994316,0.0004507787525653839,-0.0011871084570884705
1772555892786004700,1.139004638671875,0.0012955814599990845,-0.00018917769193649292,-0.001230517402291298
1772555892795936800,1.148936767578125,-0.0018954654224216938,-0.0019488902762532234,0.000025591813027858734
1772555892805868000,1.158867919921875,-0.0008949157781898975,-0.001332635059952736,-0.0020261071622371674
1772555892815799000,1.168799072265625,-0.00024201860651373863,-0.0005774907767772675,0.000583241693675518
1772555892825730800,1.178730712890625,-0.0005773105658590794,0.0012427791953086853,0.0011142762377858162
1772555892835661800,1.188661865234375,-0.001572304405272007,-0.0012405049055814743,-0.00027372874319553375
1772555892845593000,1.198593017578125,0.0001963009126484394,-0.00005406700074672699,-0.0006622839719057083
1772555892855524900,1.20852490234375,-0.0008278065361082554,-0.000022958964109420776,-0.000942734070122242
1772555892865455600,1.21845556640625,0.002539760898798704,0.0013877172023057938,-0.00016083009541034698
1772555892875386400,1.228386474609375,-0.0006218100897967815,-0.0010514240711927414,-0.0006456365808844566
1772555892885318400,1.238318359375,0.0017257663421332836,-0.0013100169599056244,-0.00072526466101408
1772555892895249700,1.248249755859375,0.0010934732854366302,-0.0011313408613204956,0.00021875742822885513
1772555892905180400,1.258180419921875,-0.0006170747801661491,0.0007294099777936935,0.0001766793429851532
1772555892915112400,1.268112548828125,0.0009124507196247578,0.00012018531560897827,0.0007332172244787216
1772555892925043500,1.27804345703125,-0.0010561579838395119,-0.0008044634014368057,0.0014259051531553268
1772555892934974700,1.287974609375,0.0012108301743865013,-0.00033892225474119186,-0.0009019020944833755
1772555892944906500,1.297906494140625,0.0008656843565404415,-0.0005919225513935089,0.0014291629195213318
1772555892954837500,1.30783740234375,-0.00024076597765088081,-0.00031683407723903656,-0.00035757478326559067
1772555892964768800,1.317768798828125,-0.0013944474048912525,0.0005353763699531555,-0.002627120353281498
1772555892974700500,1.327700439453125,-0.0019816772546619177,0.0005352199077606201,0.0006098579615354538
1772555892984631600,1.337631591796875,0.0007347469218075275,0.00013734400272369385,0.00007296446710824966
1772555892994562600,1.3475625,0.0006113378331065178,-0.0003182506188750267,-0.0012382334098219872
1772555893004494600,1.35749462890625,-0.0010659205727279186,-0.0011243894696235657,-0.0006225099787116051
1772555893014425600,1.367425537109375,-0.0009783562272787094,-0.0007434161379933357,0.0015480974689126015
1772555893024356600,1.377356689453125,-0.001894217450171709,0.0032039210200309753,-0.002234390005469322
1772555893034287400,1.387287353515625,-0.0009256931953132153,0.0016118064522743225,-0.0015810122713446617
1772555893044219400,1.397219482421875,0.002500197384506464,0.00002296455204486847,-0.0010912567377090454
1772555893054150700,1.407150634765625,-0.000925194937735796,0.000002343207597732544,-0.0022591911256313324
1772555893064081700,1.41708154296875,-0.0007744599133729935,-0.0002495907247066498,-0.0019041923806071281
1772555893074013400,1.427013427734375,0.0007348847575485706,0.0012547578662633896,-0.0008103502914309502
1772555893083944400,1.4369443359375,-0.000016126781702041626,-0.001136760227382183,-0.00032352469861507416
1772555893093875700,1.446875732421875,0.0004259119741618633,0.0013308804482221603,0.0013655312359333038
1772555893103807500,1.456807373046875,0.00030793389305472374,-0.00016448460519313812,0.0009064022451639175
1772555893113738500,1.466738525390625,0.0003798878751695156,-0.0009133508428931236,-0.002210034057497978
1772555893123669500,1.47666943359375,0.00028241612017154694,-0.00020255334675312042,-0.00042145419865846634
1772555893133601800,1.486601806640625,-0.000476837158203125,0.00009493343532085419,-0.00044979993253946304
1772555893143532500,1.496532470703125,0.00028429459780454636,0.0005154460668563843,0.001742248423397541
1772555893153463600,1.506463623046875,-0.0013035815209150314,-0.0011826613917946815,0.00025346409529447556
1772555893163395600,1.5163955078125,-0.00009157694876194,-0.0005411058664321899,-0.001685849390923977
1772555893173326600,1.52632666015625,0.001818318385630846,0.0003253631293773651,0.0001755310222506523
1772555893183257600,1.536257568359375,-0.00008317874744534492,-0.0014967722818255424,-0.00030969735234975815
1772555893193189600,1.546189697265625,0.001477154903113842,0.00001788325607776642,-0.000233381986618042
1772555893203120400,1.556120361328125,0.0012595746666193008,-0.0005488377064466476,-0.002561517059803009
1772555893213051600,1.5660517578125,0.0005968431942164898,0.00131295807659626,0.0003417283296585083
1772555893222983700,1.575983642578125,-0.00017041340470314026,0.0011603590101003647,-0.0002843812108039856
1772555893232914400,1.58591455078125,0.0018009035848081112,0.00013298168778419495,-0.0005857152864336967
1772555893242845400,1.595845458984375,-0.0014774478040635586,-0.00021402910351753235,-0.0006091510877013206
1772555893252776700,1.605776611328125,-0.000607179943472147,0.0011675544083118439,-0.00009710993617773056
1772555893262708700,1.615708740234375,-0.0006971950642764568,-0.00246339850127697,-0.0004558376967906952
1772555893272639500,1.625639404296875,-0.002116352552548051,-0.0017704637721180916,0.0032653585076332092
1772555893282570500,1.635570556640625,0.002345507498830557,0.002475680783390999,-0.0012806570157408714
1772555893292502500,1.64550244140625,0.0009611044079065323,-0.0011243782937526703,0.002428131178021431
1772555893302433500,1.65543359375,-0.00025809090584516525,0.0007291827350854874,0.002277929335832596
1772555893312364500,1.665364501953125,0.0035795136354863644,-0.0006247246637940407,0.0003137188032269478
1772555893322296600,1.675296630859375,0.001308369915932417,0.0024032890796661377,-0.0006524762138724327
1772555893332227600,1.6852275390625,-0.0005158102139830589,-0.00029136426746845245,0.002004486508667469
1772555893342158600,1.69515869140625,-0.0017741536721587181,-0.0005012219771742821,0.0013703880831599236
1772555893352090600,1.705090576171875,0.0018715853802859783,0.0011357571929693222,-0.0013719592243432999
1772555893362021400,1.715021484375,0.00017328746616840363,0.0003863424062728882,-0.0018207021057605743
1772555893371952600,1.72495263671875,-0.002228826517239213,0.002118052914738655,0.0021793320775032043
1772555893381884700,1.734884765625,-0.0006612897850573063,-0.0032050730660557747,-0.0008992822840809822
1772555893391815700,1.744815673828125,-0.00005572987720370293,0.0017987284809350967,-0.00009600818157196045
1772555893401746400,1.754746337890625,0.0007173856720328331,-0.0016575213521718979,-0.0005237124860286713
1772555893411678500,1.764678466796875,-0.0003034789115190506,0.0002956707030534744,-0.001280774362385273
1772555893421609700,1.774609619140625,0.00047416379675269127,-0.0007163304835557938,-0.0006181802600622177
1772555893431540500,1.78454052734375,-0.0008126641623675823,0.00023485347628593445,0.0015383325517177582
1772555893441471500,1.794471435546875,-0.00029281526803970337,-0.0013603800907731056,-0.0008531864732503891
1772555893451403500,1.804403564453125,-0.00033623306080698967,0.0012495927512645721,-0.0001837369054555893
1772555893461334500,1.81433447265625,0.00103050097823143,0.000020012259483337402,0.0002948334440588951
1772555893471265500,1.824265625,-0.0026318898890167475,0.002677321434020996,-0.002116353251039982
1772555893481197600,1.834197509765625,-0.000019062776118516922,-0.0013906573876738548,0.001168123446404934
1772555893491128300,1.84412841796875,-0.001120647881180048,0.0011819060891866684,0.0013226307928562164
1772555893501059600,1.8540595703125,-0.0005619162693619728,-0.0012029539793729782,-0.0003146808594465256
1772555893510991600,1.86399169921875,-0.0005571595393121243,0.0004927478730678558,-0.0011046193540096283
1772555893520922600,1.873922607421875,-0.00033025816082954407,0.00036251917481422424,0.00024080928415060043
1772555893530853600,1.883853515625,-0.0019226022996008396,-0.000967836007475853,-0.0038734422996640205
1772555893540785700,1.89378564453125,0.0004356265999376774,-0.001262914389371872,-0.0014467695727944374
1772555893550716700,1.903716552734375,0.0009530177339911461,-0.002709396183490753,-0.0017344513908028603
1772555893560647400,1.9136474609375,0.0013237297534942627,0.0021277032792568207,-0.000005261041224002838
1772555893570579500,1.923579345703125,0.0018112384714186192,0.0033203233033418655,0.0012695025652647018
1772555893580510700,1.9335107421875,0.001906313467770815,-0.0004397928714752197,-0.0006530340760946274
1772555893590441500,1.94344140625,0.0012466860935091972,-0.0010335929691791534,-0.0014576548710465431
1772555893600373500,1.95337353515625,0.001562004443258047,-0.0009060278534889221,-0.0011343471705913544
1772555893610304500,1.963304443359375,0.00033840304240584373,-0.00021305866539478302,-0.0023412639275193214
1772555893620235500,1.973235595703125,-0.00185098173096776,-0.00047298241406679153,-0.0010672081261873245
1772555893630167600,1.98316748046875,0.004168073181062937,-0.0009347563609480858,-0.00048370473086833954
1772555893640098600,1.9930986328125,0.0005046292208135128,0.00011612661182880402,-0.0023497818037867546
1772555893650029600,2.003029541015625,-0.00012273900210857391,0.0003170967102050781,-0.00018273107707500458
1772555893659960600,2.012960693359375,0.0007838006131350994,-0.001339656300842762,-0.00039232242852449417
1772555893669892600,2.022892578125,-0.0003171241842210293,-0.00015895254909992218,-0.0010274657979607582
1772555893679823600,2.03282373046875,0.0008229753002524376,-0.001565634272992611,0.0016522062942385674
1772555893689754400,2.04275439453125,-0.0006185406818985939,0.001428849995136261,-0.0007174881175160408
1772555893699686400,2.052686279296875,0.000208370853215456,-0.0003871601074934006,-0.0007446529343724251
1772555893709617700,2.06261767578125,0.001957709901034832,0.001371081918478012,0.000895107164978981
1772555893719548400,2.07254833984375,-0.00047934846952557564,-0.0001317393034696579,0.0021925996989011765
1772555893729480400,2.08248046875,-0.001694424543529749,-0.002251792699098587,-0.00090766791254282
1772555893739411700,2.09241162109375,-0.0001109088771045208,-0.0008230069652199745,-0.0007276376709342003
1772555893749342500,2.102342529296875,0.0015693404711782932,-0.00044756941497325897,-0.00026768818497657776
1772555893759274500,2.1122744140625,0.0013530915603041649,-0.0015029795467853546,0.0016095740720629692
1772555893769205500,2.12220556640625,-0.0002069566398859024,-0.0030019162222743034,-0.001487639732658863
1772555893779136800,2.13213671875,0.001038870308548212,-0.0013784533366560936,-0.0011584730818867683
1772555893789068500,2.142068603515625,-0.0003533782437443733,-0.0013396618887782097,0.00130530446767807
1772555893798999600,2.15199951171875,-0.000727818813174963,-0.0004190076142549515,-0.0011200355365872383
1772555893808930600,2.1619306640625,0.0016094362363219261,0.0011786110699176788,0.00044708047062158585
1772555893818861600,2.171861572265625,0.0015926584601402283,0.0005743391811847687,0.001710217446088791
1772555893828793600,2.181793701171875,-0.00006896955892443657,-0.0013775043189525604,0.00008593033999204636
1772555893838724600,2.191724609375,0.0033872807398438454,0.00007205456495285034,0.0010489290580153465
1772555893848655400,2.2016552734375,-0.0031247653532773256,0.000003373250365257263,-0.0012702373787760735
1772555893858588200,2.211588134765625,-0.00038836756721138954,-0.00047626160085201263,0.0004142122343182564
1772555893868519200,2.221519287109375,0.00032826047390699387,-0.0010227663442492485,-0.001424526795744896
1772555893878450200,2.2314501953125,-0.0007969248108565807,-0.0005111731588840485,0.0015443647280335426
1772555893888382200,2.24138232421875,0.0008523790165781975,-0.0014860788360238075,0.00048834178596735
1772555893898313000,2.25131298828125,-0.0005798689089715481,-0.0028639985248446465,-0.0005867760628461838
1772555893908244200,2.261244140625,-0.002023849869146943,0.0010936353355646133,0.0022746575996279716
1772555893918176300,2.27117626953125,0.00016819778829813004,-0.001836906187236309,0.00013001356273889542
1772555893928107000,2.28110693359375,-0.0001440206542611122,0.00042892806231975555,-0.00006708502769470215
1772555893938038000,2.2910380859375,0.002030983567237854,0.0003000311553478241,0.00004423502832651138
1772555893947970000,2.300969970703125,-0.001546401996165514,0.0014499388635158539,-0.0013680504634976387
1772555893957901300,2.3109013671875,-0.0023741121403872967,0.0014984086155891418,0.0020138975232839584
1772555893967832000,2.32083203125,0.0002539311535656452,-0.0004208274185657501,0.00043033529072999954
1772555893977764000,2.33076416015625,0.0015266556292772293,-0.0002969913184642792,-0.0005667516961693764
1772555893987695000,2.340695068359375,0.00028571439906954765,0.00013630464673042297,-0.0006847605109214783
1772555893997626000,2.350626220703125,0.002006915397942066,-0.0011715730652213097,0.0016798600554466248
1772555894007557000,2.36055712890625,-0.0021698065102100372,-0.001389242708683014,-0.00013358425348997116
1772555894017489200,2.3704892578125,0.0002914872020483017,0.0005098581314086914,0.0008235564455389977
1772555894027420200,2.380420166015625,-0.0011449065059423447,0.00013716891407966614,-0.0009916462004184723
1772555894037351200,2.39035107421875,0.001604008488357067,-0.0020008161664009094,-0.0014049690216779709
1772555894047283200,2.400283203125,0.001344749704003334,-0.0011098869144916534,0.0007971953600645065
1772555894057214000,2.4102138671875,0.0003516566939651966,0.00032875314354896545,0.000575886107981205
1772555894067145200,2.420145263671875,0.0008854162879288197,0.0009554754942655563,-0.0016683563590049744
1772555894077077200,2.4300771484375,0.0008947374299168587,-0.0004754401743412018,-0.0016672909259796143
1772555894087008300,2.44000830078125,0.00025131087750196457,0.00048657506704330444,-0.0006641307845711708
1772555894096939000,2.44993896484375,0.0008923336863517761,-0.0016474155709147453,-0.00006971322000026703
1772555894106871000,2.45987109375,-0.0010769055224955082,0.00007593072950839996,0.00030953437089920044
1772555894116802300,2.46980224609375,-0.0014766459353268147,0.0005877893418073654,0.0011574849486351013
1772555894126733000,2.479733154296875,0.00020891614258289337,-0.00033065490424633026,-0.0014048898592591286
1772555894136665000,2.4896650390625,-0.0017362567596137524,-0.00015808269381523132,0.00011417735368013382
1772555894146596000,2.49959619140625,0.0009015328250825405,-0.0010223984718322754,0.0004397863522171974
1772555894156527000,2.509527099609375,0.0017121988348662853,0.0003773588687181473,0.002627839334309101
1772555894166458000,2.5194580078125,-0.00035461876541376114,-0.001769169233739376,0.0002366071566939354
1772555894176390100,2.52939013671875,0.0003085085190832615,0.0003890562802553177,0.0014656558632850647
1772555894186321000,2.53932080078125,0.00012508220970630646,-0.0023524053394794464,0.0007371585816144943
1772555894196252200,2.549252197265625,-0.0001351088285446167,-0.001435212790966034,0.0015174653381109238
1772555894206184200,2.55918408203125,-0.0009020841680467129,0.0023090895265340805,0.00085454061627388
1772555894216115200,2.569115234375,-0.001456554513424635,-0.001299493946135044,0.00005399435758590698
1772555894226046200,2.579046142578125,-0.0009813862852752209,-0.0008889678865671158,-0.0002457769587635994
1772555894235978200,2.588978271484375,-0.0007869754917919636,0.0005677808076143265,-0.0009802766144275665
1772555894245909200,2.5989091796875,-0.001097827684134245,0.00042159855365753174,-0.0009611388668417931
1772555894255840000,2.608840087890625,-0.00030180858448147774,-0.0011837556958198547,-0.0006785774603486061
1772555894265772000,2.61877197265625,-0.0009986422955989838,-0.0003908798098564148,-0.000980030745267868
1772555894275703300,2.628703369140625,-0.0003536245785653591,-0.0011019445955753326,-0.0005488647148013115
1772555894285634000,2.638634033203125,0.0017385496757924557,0.0003160722553730011,0.0016556903719902039
1772555894295566000,2.648566162109375,-0.0014950605109333992,0.0018604397773742676,0.003672235645353794
1772555894305497000,2.6584970703125,0.0012294147163629532,0.0002443641424179077,-0.00004400312900543213
1772555894315428000,2.668427978515625,0.001558581367135048,0.0016579702496528625,-0.00018488429486751556
1772555894325359000,2.678359130859375,-0.00021311966702342033,-0.0014111483469605446,0.0009904056787490845
1772555894335291100,2.688291015625,0.0028093019500374794,-0.0008409656584262848,0.0007256874814629555
1772555894345222100,2.69822216796875,-0.0005762348882853985,-0.000603686086833477,-0.0004893867298960686
1772555894355153200,2.708153076171875,0.001676799263805151,0.0008725039660930634,0.0023788372054696083
1772555894365085200,2.718085205078125,0.0017662011086940765,-0.0003742985427379608,0.00045519042760133743
1772555894375016200,2.72801611328125,-0.0000862940214574337,-0.0013524768874049187,0.0001454642042517662
1772555894384947000,2.737947021484375,-0.0008680662140250206,0.0018580835312604904,-0.001295594498515129
1772555894394879000,2.74787890625,0.002171665895730257,-0.0013699326664209366,-0.00018159393221139908
1772555894404810200,2.757810302734375,-0.00021427404135465622,0.0026159007102251053,0.0007326826453208923
1772555894414741000,2.767740966796875,0.003236916847527027,0.00046806223690509796,0.0016666529700160027
1772555894424673000,2.777673095703125,-0.0003872532397508621,-0.00045225024223327637,-0.0006201397627592087
1772555894434604300,2.787604248046875,-0.0002485024742782116,0.0003120768815279007,0.0014478042721748352
1772555894444535300,2.797535400390625,-0.0001686103641986847,0.0006650984287261963,0.00038025714457035065
1772555894454467000,2.807467041015625,-0.0009419922716915607,-0.002116040326654911,0.00028837844729423523
1772555894464398000,2.817398193359375,-0.0028857258148491383,-0.00018714368343353271,0.0006730444729328156
1772555894474329300,2.827329345703125,-0.001094217412173748,0.0014296621084213257,0.0011550765484571457
1772555894484260000,2.837260009765625,0.0015500010922551155,0.0008958503603935242,-0.0013359077274799347
1772555894494192000,2.847192138671875,0.0027974252589046955,-0.0024781078100204468,0.0006715832278132439
1772555894504123100,2.857123046875,0.0005002641119062901,0.00041213259100914,-0.00016048084944486618
1772555894514054100,2.86705419921875,0.0010917522013187408,-0.002278991974890232,0.0010158373042941093
1772555894523986200,2.876986083984375,0.0017872555181384087,-0.001521056517958641,-0.0005404874682426453
1772555894533917200,2.886917236328125,0.00032624509185552597,-0.0015775160863995552,-0.0008494136855006218
1772555894543848000,2.896847900390625,0.001735086552798748,-0.0015522213652729988,-0.0010193437337875366
1772555894553780000,2.906780029296875,-0.0018375441431999207,0.0015271920710802078,0.00042648613452911377
1772555894563711200,2.916711181640625,-0.00040011852979660034,0.002475069835782051,-0.0021209074184298515
1772555894573642200,2.926642333984375,-0.0008877436630427837,-0.0002637263387441635,0.0015004593878984451
1772555894583574000,2.936573974609375,-0.0003473646938800812,0.001108149066567421,-0.0007890313863754272
1772555894593505000,2.946505126953125,-0.0012730793096125126,-0.000011710450053215027,-0.00040393881499767303
1772555894603436300,2.956436279296875,0.0007468829862773418,0.0011491533368825912,0.001534939743578434
1772555894613368000,2.9663681640625,-0.0004704478196799755,-0.0007480820640921593,0.0011168243363499641
1772555894623299000,2.976299072265625,-0.00002232985571026802,0.0007385723292827606,-0.00257309153676033
1772555894633230300,2.986230224609375,0.001600334420800209,0.001261083409190178,0.0013891588896512985
1772555894643162400,2.996162353515625,-0.000931411050260067,-0.0011509303003549576,-0.0011380752548575401
1772555894653093000,3.006093017578125,0.0021184412762522697,0.00015881285071372986,-0.0015223687514662743
1772555894663024000,3.016024169921875,-0.0008536777459084988,0.0015535708516836166,-0.0005890075117349625
1772555894672955100,3.025955078125,-0.0013793855905532837,0.003660930320620537,-0.0013623898848891258
1772555894682887200,3.03588720703125,0.0009246049448847771,-0.00001735985279083252,0.0014977697283029556
1772555894692818200,3.045818115234375,-0.0012711710296571255,0.0006953012198209763,-0.002314012497663498
1772555894702749200,3.055749267578125,0.0007567405700683594,0.0020981598645448685,-0.0022223377600312233
1772555894712681000,3.065680908203125,-0.00009680213406682014,-0.0012646131217479706,-0.00045932549983263016
1772555894722612200,3.0756123046875,-0.0006133592687547207,-0.0007796213030815125,-0.0014234306290745735
1772555894732543200,3.085543212890625,0.0007800068706274033,-0.0020073382183909416,-0.0005232822149991989
1772555894742475000,3.09547509765625,0.0030156797729432583,-0.00045250076800584793,-0.0033541694283485413
1772555894752406000,3.105406005859375,0.0011583911255002022,0.0008484534919261932,0.00022831466048955917
1772555894762337300,3.115337158203125,0.0015695509500801563,-0.0010413294658064842,-0.0010262420400977135
1772555894772269300,3.125269287109375,-0.00014419294893741608,-0.0006511760875582695,-0.00022835936397314072
1772555894782200000,3.135199951171875,0.002153665293008089,-0.0026505542919039726,0.0015456071123480797
1772555894792131000,3.145131103515625,-0.001821368932723999,-0.000125078484416008,-0.003025442361831665
1772555894802062000,3.15506201171875,-0.0002268236130475998,-0.0004099048674106598,-0.0024745380505919456
1772555894811994000,3.164994140625,-0.00023561203852295876,-0.00040138233453035355,-0.003581346943974495
1772555894821925000,3.174925048828125,-0.00030973320826888084,0.00034709274768829346,0.000028570182621479034
1772555894831856000,3.184856201171875,-0.0005259816534817219,-0.0007783584296703339,-0.00021138135343790054
1772555894841788200,3.1947880859375,0.0018398738466203213,-0.0008625462651252747,-0.002369415946304798
1772555894851719200,3.20471923828125,0.0012790123000741005,-0.0013355230912566185,0.0014676665887236595
1772555894861649400,3.2146494140625,0.000319470651447773,-0.0014904597774147987,0.0005873106420040131
1772555894871581400,3.22458154296875,0.0016806120984256268,-0.0007029622793197632,-0.0020268484950065613
1772555894881512400,3.234512451171875,-0.0002432558685541153,-0.0024238284677267075,-0.00045851990580558777
1772555894891443500,3.244443359375,0.00034876447170972824,-0.0008408455178141594,0.002048313617706299
1772555894901375500,3.25437548828125,0.000158567912876606,-0.00016596540808677673,-0.0025822697207331657
1772555894911306500,3.264306396484375,0.00094979302957654,0.0010897144675254822,-0.0034579169005155563
1772555894921237500,3.274237548828125,0.00032605603337287903,0.0012375619262456894,0.002932547591626644
1772555894931169500,3.28416943359375,-0.001954409060999751,0.0010202471166849136,-0.0011444855481386185
1772555894941100500,3.2941005859375,0.00007339101284742355,-0.0008418401703238487,0.000744805671274662
1772555894951031600,3.304031494140625,-0.0018145237118005753,-0.0010823234915733337,-0.0002855714410543442
1772555894960963600,3.313963623046875,-0.0027061225846409798,0.0012813657522201538,0.00017096754163503647
1772555894970894600,3.32389453125,0.00020497897639870644,0.0012560654431581497,-0.0011140070855617523
1772555894980825300,3.333825439453125,-0.00038889236748218536,-0.00006657838821411133,0.0012238547205924988
1772555894990756600,3.343756591796875,0.0015064794570207596,-0.002123870886862278,0.0002768347039818764
1772555895000688600,3.353688720703125,-0.001779272686690092,-0.000413346104323864,0.000051816925406455994
1772555895010619400,3.363619384765625,0.0010490044951438904,-0.0009156176820397377,0.0013343952596187592
1772555895020550400,3.37355029296875,0.001790907233953476,0.0007711667567491531,-0.002298915758728981
1772555895030482400,3.383482421875,0.0001661130227148533,-0.0017577707767486572,0.00034400541335344315
1772555895040413700,3.39341357421875,-0.0017624753527343273,-0.0008646538481116295,-0.0008236775174736977
1772555895050344400,3.403344482421875,0.00007936684414744377,0.003323167562484741,-0.0002684080973267555
1772555895060276500,3.4132763671875,-0.00007682433351874352,-0.0009377105161547661,0.0007087290287017822
1772555895070207500,3.42320751953125,0.00022597704082727432,-0.0014727404341101646,0.0010280422866344452
1772555895080138500,3.433138427734375,0.001194292213767767,0.00033148378133773804,0.0019927527755498886
1772555895090070500,3.443070556640625,-0.00028216419741511345,-0.0009974325075745583,-0.0003423066809773445
1772555895100001500,3.45300146484375,-0.000001923646777868271,0.0008965879678726196,-0.0007572351023554802
1772555895109932500,3.4629326171875,-0.0010237782262265682,-0.000463755801320076,-0.0007018409669399261
1772555895119864600,3.472864501953125,-0.002250573132187128,-0.003206600435078144,-0.0008755363523960114
1772555895129795600,3.482795654296875,0.0031662965193390846,-0.001912836916744709,0.001171635463833809
1772555895139726300,3.492726318359375,-0.0015595201402902603,0.0016808640211820602,-0.003463796339929104
1772555895149657600,3.50265771484375,0.0011880630627274513,-0.0012832339853048325,-0.001502377912402153
1772555895159589600,3.512589599609375,-0.000489281490445137,-0.00041887909173965454,0.003529349807649851
1772555895169520600,3.522520751953125,-0.0007521351799368858,0.0014304202049970627,-0.0014049550518393517
1772555895179451400,3.532451416015625,0.00043214159086346626,-0.0017321156337857246,-0.0020677223801612854
1772555895189383400,3.542383544921875,-0.0018576444126665592,0.0008450262248516083,-0.002443227916955948
1772555895199314700,3.552314697265625,0.0010001901537179947,0.0005663502961397171,0.000614008866250515
1772555895209245400,3.562245361328125,-0.0004626843146979809,-0.00036202743649482727,0.0003993585705757141
1772555895219177500,3.572177490234375,0.001721054781228304,-0.0014348505064845085,-0.0019608652219176292
1772555895229108500,3.5821083984375,0.0012262393720448017,-0.0011269887909293175,0.0008570253849029541
1772555895239039500,3.59203955078125,-0.0010276660323143005,-0.0006543919444084167,-0.000051159411668777466
1772555895248971500,3.601971435546875,-0.0006284578703343868,0.0006702635437250137,-0.0020373454317450523
1772555895258902500,3.611902587890625,0.0013638385571539402,-0.0012636799365282059,0.002017345279455185
1772555895268833300,3.621833251953125,-0.0006284723058342934,-0.0011060209944844246,0.0015036221593618393
1772555895278764500,3.6317646484375,0.0011550094932317734,0.0007731318473815918,-0.0019062533974647522
1772555895288696600,3.641696533203125,-0.00121227465569973,0.0013915188610553741,0.002095412462949753
1772555895298627600,3.651627685546875,0.0009012613445520401,0.00011372938752174377,-0.00022777915000915527
1772555895308558600,3.66155859375,0.002530050929635763,-0.0003198329359292984,0.0026103518903255463
1772555895318490600,3.67149072265625,0.0002698996104300022,0.00072433240711689,0.0012773294001817703
1772555895328421600,3.681421630859375,-0.0007769889198243618,0.0003938339650630951,0.0012757312506437302
1772555895338352400,3.691352294921875,0.0006696218624711037,0.002008635550737381,0.0005569541826844215
1772555895348284400,3.701284423828125,0.000002766493707895279,0.001061880961060524,0.0011276695877313614
1772555895358215700,3.711215576171875,0.001776149496436119,-0.0008625704795122147,0.0014937818050384521
1772555895368146400,3.721146484375,-0.00006409501656889915,0.00022719427943229675,0.00021200254559516907
1772555895378078500,3.731078369140625,-0.0021028544288128614,0.001537499949336052,-0.0018408335745334625
1772555895388009500,3.741009521484375,0.0009557860903441906,-0.0006931638345122337,0.0013898471370339394
1772555895397940500,3.7509404296875,-0.00047269323840737343,0.001105383038520813,0.0019525615498423576
1772555895407872500,3.76087255859375,0.0000519496388733387,-0.0024219732731580734,-0.002485329285264015
1772555895417803500,3.770803466796875,0.0021424219012260437,-0.000971461646258831,-0.0011528925970196724
1772555895427734500,3.780734619140625,-0.0009146207012236118,0.0026757381856441498,-0.0017723441123962402
1772555895437665500,3.79066552734375,0.001640539150685072,-0.0012687994167208672,-0.0008966298773884773
1772555895447597600,3.80059765625,0.002543883863836527,-0.0013367095962166786,0.002402493730187416
1772555895457528600,3.810528564453125,-0.002079600701108575,-0.0022855298593640327,0.0004864754155278206
1772555895467459300,3.820459228515625,-0.0009834435768425465,-0.0008692611008882523,-0.0004616100341081619
1772555895477391400,3.830391357421875,0.0016706767491996288,-0.0010905852541327477,-0.0004838276654481888
1772555895487322600,3.840322509765625,0.000007266178727149963,-0.0022011231631040573,0.0013516228646039963
1772555895497253400,3.85025341796875,0.0008805566467344761,-0.0013472950085997581,0.00004834495484828949
1772555895507185400,3.860185302734375,-0.0011034985072910786,0.0016964320093393326,0.0015658140182495117
1772555895517116700,3.87011669921875,-0.002080601640045643,-0.0010060369968414307,0.00028158165514469147
1772555895527047400,3.88004736328125,0.0007439469918608665,0.0019671153277158737,-0.0007258923724293709
1772555895536979500,3.8899794921875,0.0009359032846987247,-0.0016581770032644272,0.0016658660024404526
1772555895546910500,3.899910400390625,0.001400358509272337,0.0007173623889684677,0.001056002452969551
1772555895556841700,3.909841796875,0.0012226151302456856,0.0010357443243265152,-0.0008608493953943253
1772555895566773500,3.9197734375,0.002003720495849848,-0.0016071777790784836,-0.0011410145089030266
1772555895576704500,3.92970458984375,0.0010526962578296661,0.0010978002101182938,-0.001753196120262146
1772555895586635500,3.939635498046875,0.00023963302373886108,0.0014325585216283798,-0.0004578353837132454
1772555895596566500,3.94956640625,-0.0007651760242879391,-0.00008451379835605621,-0.001157999038696289
1772555895606498600,3.95949853515625,0.0008292589336633682,0.0007557123899459839,0.0015882523730397224
1772555895616429600,3.9694296875,0.0009736502543091774,0.0013019721955060959,-0.002373212017118931
1772555895626360300,3.9793603515625,0.001110004261136055,-0.00045970920473337173,-0.0010610725730657578
1772555895636292400,3.989292236328125,-0.0010779150761663914,-0.00034473836421966553,-0.0015769600868225098
1772555895646223600,3.9992236328125,0.0007820362225174904,-0.0025234706699848175,0.0012443922460079193
1772555895656154400,4.009154296875,0.0011979565024375916,0.00023320689797401428,0.0020585209131240845
1772555895666086400,4.01908642578125,-0.00038316240534186363,0.001408994197845459,0.001584744080901146
1772555895676017400,4.029017333984375,0.0020073363557457924,0.0007923804223537445,0.002501513808965683
1772555895685948700,4.03894873046875,-0.003164522582665086,0.0002451017498970032,0.001232784241437912
1772555895695880400,4.04888037109375,-0.0009796088561415672,-0.0007088957354426384,-0.0011142492294311523
1772555895705811500,4.0588115234375,-0.00034444499760866165,0.001160377636551857,0.0003358423709869385
1772555895715742500,4.068742431640625,-0.0005121687427163124,0.0006157513707876205,0.0014470843598246574
1772555895725673500,4.078673583984375,-0.0005808784626424313,0.000254092738032341,-0.0003880998119711876
1772555895735605500,4.08860546875,0.0014271973632276058,-0.0014877049252390862,-0.0010826895013451576
1772555895745536500,4.09853662109375,0.0010687359608709812,0.0012066159397363663,0.000155680812895298
1772555895755467500,4.108467529296875,-0.0002679489552974701,0.00017729774117469788,-0.000485478900372982
1772555895765399600,4.118399658203125,0.001307044643908739,0.0001448076218366623,0.0019973861053586006
1772555895775330600,4.12833056640625,0.0002946453168988228,0.0015166960656642914,0.0007458589971065521
1772555895785261300,4.13826123046875,0.001267497893422842,0.00037393346428871155,0.0015850206837058067
1772555895795193300,4.148193359375,-0.00039950618520379066,-0.0005410118028521538,0.000058871693909168243
1772555895805124600,4.15812451171875,-0.0028477502055466175,0.0007636714726686478,0.0010122833773493767
1772555895815055600,4.1680556640625,0.0004314384423196316,0.001433204859495163,-0.0007330477237701416
1772555895824987400,4.1779873046875,0.0014972356148064137,-0.0015287632122635841,-0.00037325453013181686
1772555895834918400,4.18791845703125,-0.000003150198608636856,0.000169241800904274,0.000021401792764663696
1772555895844849700,4.197849609375,0.0013478714972734451,-0.0005261106416583061,0.0019055884331464767
1772555895854781700,4.20778173828125,0.00042763538658618927,-0.0012044776231050491,0.0009299516677856445
1772555895864712200,4.217712158203125,0.0014915680512785912,0.002452841028571129,-0.0008176146075129509
1772555895874643200,4.227643310546875,-0.0012252312153577805,-0.0004839478060603142,0.00039230939000844955
1772555895884574500,4.237574462890625,-0.001110715325921774,-0.0018642637878656387,0.00008577946573495865
1772555895894506200,4.24750634765625,-0.001119417604058981,0.0000837910920381546,-0.0004710238426923752
1772555895904437200,4.257437255859375,0.0005991202779114246,0.0013900715857744217,-0.0005900673568248749
1772555895914368500,4.267368408203125,-0.00011002179235219955,0.0010120440274477005,-0.001659291796386242
1772555895924300300,4.27730029296875,-0.0005840645171701908,0.0016757044941186905,0.0006352877244353294
1772555895934231300,4.287231201171875,-0.001431410200893879,-0.00022219493985176086,-0.00025291554629802704
1772555895944162300,4.297162353515625,-0.00012406427413225174,-0.00035135820508003235,0.001571083441376686
1772555895954094300,4.30709423828125,-0.00035863183438777924,0.0012955386191606522,-0.00039888545870780945
1772555895964025300,4.317025390625,0.00022460008040070534,-0.003096279688179493,-0.0003493502736091614
1772555895973956400,4.326956298828125,-0.0015585701912641525,0.0006709787994623184,-0.0009573614224791527
1772555895983888400,4.336888427734375,-0.0010379222221672535,-0.00035620294511318207,0.002626188099384308
1772555895993819100,4.346819091796875,0.0006790906190872192,-0.0013380292803049088,0.00015423353761434555
1772555896003750400,4.35675048828125,-0.0011164122261106968,-0.0013510789722204208,-0.0018322179093956947
1772555896013681400,4.366681396484375,-0.0004366752691566944,0.0004576612263917923,-0.00030933599919080734
1772555896023613200,4.37661328125,0.0002008853480219841,0.0009724516421556473,-0.00116660725325346
1772555896033544200,4.386544189453125,-0.00008452776819467545,0.0012017972767353058,0.0005296021699905396
1772555896043475500,4.396475341796875,-0.0005915937945246696,-0.0011697476729750633,0.0014497246593236923
1772555896053407200,4.4064072265625,0.0014657038263976574,-0.0003387797623872757,-0.0013398230075836182
1772555896063338200,4.416338134765625,-0.0016752281226217747,0.00018026866018772125,0.0012216055765748024
1772555896073269200,4.426269287109375,-0.001133524812757969,-0.0015805559232831001,-0.002360421232879162
1772555896083201500,4.436201416015625,-0.0001204581931233406,0.0007430519908666611,0.0011685341596603394
1772555896093132300,4.44613232421875,-0.0009235674515366554,-0.0014205193147063255,-0.001360911875963211
1772555896103063300,4.456063232421875,0.0028040586039423943,-0.000958993099629879,-0.00014917366206645966
1772555896112995300,4.465995361328125,0.0034918407909572124,0.0020691249519586563,-0.0005238307639956474
1772555896122926300,4.47592626953125,-0.0010997154749929905,-0.00012691877782344818,-0.0028106877580285072
1772555896132857300,4.485857421875,0.0005567842163145542,0.001003580167889595,0.001505519263446331
1772555896142788400,4.495788330078125,-0.0017961184494197369,0.0008384641259908676,-0.001555783674120903
1772555896152720100,4.50572021484375,-0.0005395747721195221,-0.0003638174384832382,-0.000060809776186943054
1772555896162651400,4.5156513671875,-0.0007488992996513844,0.001989351585507393,-0.000021127983927726746
1772555896172582400,4.52558251953125,-0.0006143860518932343,0.0011984333395957947,-0.0016125431284308434
1772555896182514200,4.53551416015625,-0.0020495636854320765,-0.0007464727386832237,-0.0009448882192373276
1772555896192445200,4.545445068359375,0.0003930027596652508,0.00016913563013076782,-0.00011121667921543121
1772555896202376400,4.55537646484375,-0.0010573547333478928,-0.0015225047245621681,0.0009766845032572746
1772555896212308500,4.56530859375,0.001485446933656931,-0.0007910560816526413,-0.001004124991595745
1772555896222239200,4.5752392578125,-0.000863194465637207,-0.001335405744612217,0.0017573069781064987
1772555896232170200,4.585170166015625,0.0003737276419997215,0.00026631541550159454,-0.0012495405972003937
1772555896242102300,4.595102294921875,0.0013324655592441559,0.0013965610414743423,-0.000138736329972744
1772555896252033300,4.605033203125,-0.0021522941533476114,-0.001628529280424118,0.0003528967499732971
1772555896261964300,4.61496435546875,-0.00028541823849081993,-0.001000288873910904,-0.0004926575347781181
1772555896271895300,4.624895263671875,0.0010148282162845135,-0.0037956498563289642,-0.00025426968932151794
1772555896281827300,4.634827392578125,-0.0002933163195848465,0.0002092123031616211,-0.0009339088574051857
1772555896291758300,4.64475830078125,0.0004853503778576851,-0.002073305658996105,-0.0014820331707596779
1772555896301689300,4.654689453125,-0.00037937797605991364,-0.0002285335212945938,-0.0008604517206549644
1772555896311621000,4.66462109375,-0.0010658749379217625,-0.0011282125487923622,0.0002215178683400154
1772555896321552400,4.674552490234375,0.0001852782443165779,-0.0014685643836855888,0.0006588082760572433
1772555896331483400,4.6844833984375,-0.0014675087295472622,0.0006556492298841476,0.001507570967078209
1772555896341415400,4.69441552734375,-0.0000685499981045723,-0.00044503621757030487,0.001489461399614811
1772555896351346200,4.70434619140625,-0.0015599345788359642,-0.0017628353089094162,-0.001038842834532261
1772555896361277400,4.71427734375,-0.0006696400232613087,-0.0016065072268247604,-0.00009741540998220444
1772555896371209500,4.72420947265625,0.001441183965653181,0.0008683297783136368,0.001565687358379364
1772555896381140200,4.73414013671875,0.0009647444821894169,-0.0003045275807380676,0.0003598080947995186
1772555896391071200,4.7440712890625,0.00038190558552742004,-0.0007024658843874931,0.001038968563079834
1772555896401003300,4.754003173828125,0.00117872329428792,-0.0020891735330224037,0.0027505820617079735
1772555896410934300,4.763934326171875,-0.0011664526537060738,-0.0014692246913909912,0.0009597968310117722
1772555896420865300,4.773865234375,-0.0014066696166992188,-0.0005341889336705208,0.00042609870433807373
1772555896430796300,4.78379638671875,-0.00006497558206319809,0.0022633355110883713,-0.0004246458411216736
1772555896440728000,4.79372802734375,0.0011566164903342724,-0.0001364387571811676,-0.0004147924482822418
1772555896450659300,4.803659423828125,0.0016538724303245544,-0.0016278401017189026,-0.0010039294138550758
1772555896460590300,4.81359033203125,0.00005624210461974144,-0.0009183734655380249,0.00002724677324295044
1772555896470522400,4.8235224609375,-0.00014548562467098236,-0.0022411905229091644,-0.0025475099682807922
1772555896480453400,4.833453369140625,-0.00046399980783462524,-0.0005040103569626808,0.0017369827255606651
1772555896490384400,4.84338427734375,-0.0022991260048002005,-0.0013289442285895348,-0.0017002522945404053
1772555896500316400,4.85331640625,-0.0005041556432843208,-0.002792883664369583,-0.00039370544254779816
1772555896510247200,4.8632470703125,-0.001156588550657034,0.00002119317650794983,0.00030402280390262604
1772555896520178400,4.873178466796875,-0.0017275703139603138,0.0014366637915372849,-0.0010006595402956009
1772555896530110500,4.8831103515625,0.0006748214364051819,-0.0016778083518147469,-0.0010287398472428322
1772555896540041200,4.893041259765625,-0.001766764558851719,-0.00006712786853313446,0.0013084504753351212
1772555896549972200,4.90297216796875,0.0003768559545278549,-0.00012788362801074982,-0.0003740619868040085
1772555896559903500,4.912903564453125,0.0009241355583071709,0.00023936666548252106,-0.00018124934285879135
1772555896569835300,4.922835205078125,0.0002978895790874958,-0.0012549031525850296,-0.0010806350037455559
1772555896579766300,4.932766357421875,0.0016363942995667458,-0.0003811195492744446,0.0009952988475561142
1772555896589697300,4.942697265625,0.00032706838101148605,0.00013050995767116547,0.00010210089385509491
1772555896599629300,4.95262939453125,0.000600575003772974,0.0005502235144376755,-0.0009186891838908195
1772555896609560300,4.962560302734375,-0.001238495111465454,0.002624422311782837,-0.0006738714873790741
1772555896619491300,4.9724912109375,0.0001484788954257965,-0.00007682107388973236,-0.0010203486308455467
1772555896629423400,4.98242333984375,-0.0010962099768221378,-0.0010661082342267036,-0.0006404174491763115
1772555896639354000,4.99235400390625,-0.0012107263319194317,-0.0018552029505372047,-0.0015552137047052383
1772555896649285400,5.002285400390625,-0.00037295417860150337,-0.00034187547862529755,0.00007146410644054413
1772555896659217400,5.012217529296875,0.0017980551347136497,0.0034792274236679077,0.002713586203753948
1772555896669148200,5.022148193359375,0.0018480299040675163,-0.0006374036893248558,-0.0009016217663884163
1772555896679079200,5.0320791015625,0.0006283018738031387,0.0012939218431711197,-0.00018070358783006668
1772555896689010400,5.042010498046875,0.0008378094062209129,0.0005165915936231613,0.0020773913711309433
1772555896698942200,5.051942138671875,0.0011307569220662117,0.0005323048681020737,-0.0006574094295501709
1772555896708873200,5.061873291015625,-0.0011714426800608635,-0.000789242796599865,-0.0009008888155221939
1772555896718804500,5.071804443359375,-0.0014249756932258606,0.00003473833203315735,0.0006975410506129265
1772555896728736500,5.081736572265625,-0.001167437992990017,-0.00010358542203903198,-0.0016958536580204964
1772555896738667300,5.091667236328125,0.001522621139883995,-0.0012982795014977455,-0.0005903756245970726
1772555896748598300,5.101598388671875,-0.0004863152280449867,-0.0008783712983131409,-0.0001637917011976242
1772555896758530300,5.1115302734375,-0.00010654842481017113,0.0005011465400457382,0.001943567767739296
1772555896768461300,5.12146142578125,0.0007419674657285213,0.0001811441034078598,0.002048501744866371
1772555896778392300,5.131392333984375,-0.0025566238909959793,0.0021572094410657883,-0.0017598187550902367
1772555896788323300,5.1413232421875,0.0007015997543931007,0.0002155732363462448,0.000034117139875888824
1772555896798255000,5.151255126953125,-0.0004227869212627411,0.00015698373317718506,0.0015473244711756706
1772555896808186400,5.161186279296875,0.0000974731519818306,-0.0007911380380392075,0.00016598962247371674
1772555896818117400,5.171117431640625,0.0025071012787520885,-0.00032881274819374084,0.0009995587170124054
1772555896828049400,5.18104931640625,0.0013046897947788239,0.0013847462832927704,-0.00034788157790899277
1772555896837980200,5.190980224609375,0.00033849524334073067,0.0004308018833398819,0.0007839621976017952
1772555896847911400,5.200911376953125,0.0005295858718454838,-0.0008787000551819801,0.0016198651865124702
1772555896857843500,5.210843505859375,-0.0021050795912742615,-0.00013035163283348083,0.0014795167371630669
1772555896867774700,5.220774658203125,-0.0012656934559345245,-0.002138543874025345,-0.00029534846544265747
1772555896877705700,5.230705810546875,0.0001511084847152233,-0.0011031068861484528,0.00032410304993391037
1772555896887637800,5.2406376953125,-0.0028618276119232178,0.0022516660392284393,-0.0007760887965559959
1772555896897568800,5.25056884765625,0.00036539090797305107,0.000401301309466362,0.0007395166903734207
1772555896907499800,5.260499755859375,-0.00011748168617486954,-0.0001406557857990265,0.00008995458483695984
1772555896917430800,5.2704306640625,0.002466584090143442,-0.0015209726989269257,-0.0011625299230217934
1772555896927362600,5.280362548828125,-0.004257122054696083,0.00032616592943668365,0.0012258561328053474
1772555896937293800,5.2902939453125,0.0008894368074834347,-0.002589995041489601,0.0005451524630188942
1772555896947224800,5.300224853515625,0.0009216461330652237,-0.0001728106290102005,0.00011128373444080353
1772555896957156600,5.310156494140625,0.001101143192499876,0.0003182757645845413,0.00024071335792541504
1772555896967087900,5.320087890625,-0.00015889061614871025,0.00031112320721149445,0.00006835255771875381
1772555896977019000,5.330018798828125,0.000838196836411953,-0.001035105437040329,0.0008228262886404991
1772555896986951000,5.339950927734375,-0.001893283799290657,0.0015842970460653305,0.00020524486899375916
1772555896996881700,5.349881591796875,-0.0008594444952905178,0.0014748405665159225,-0.0023367423564195633
1772555897006813000,5.35981298828125,-0.001141880638897419,-0.00023090094327926636,0.0011084163561463356
1772555897016745000,5.369744873046875,0.0004602773115038872,0.002520143985748291,-0.00006124377250671387
1772555897026675700,5.37967578125,-0.002023210283368826,-0.0021192850545048714,-0.00011497456580400467
1772555897036606700,5.389606689453125,0.0013219863176345825,-0.0009549511596560478,-0.0012923581525683403
1772555897046538000,5.3995380859375,-0.0018141316249966621,0.0014092903584241867,-0.0017033973708748817
1772555897056469800,5.4094697265625,0.0019406587816774845,0.0014729388058185577,-0.0008088415488600731
1772555897066400800,5.41940087890625,0.000041961669921875,-0.0006169434636831284,-0.0017913095653057098
1772555897076331800,5.429331787109375,-0.0010035950690507889,-0.002553594298660755,0.0013102078810334206
1772555897086263600,5.439263671875,0.00008120434358716011,0.00007820315659046173,0.0010780086740851402
1772555897096194800,5.44919482421875,-0.0022349469363689423,0.0015858188271522522,-0.002180103212594986
1772555897106125800,5.459125732421875,-0.0008166665211319923,-0.0013301791623234749,0.002336678095161915
1772555897116057900,5.469057861328125,0.0016717910766601562,-0.001708613708615303,-0.0010796254500746727
1772555897125988600,5.478988525390625,-0.0009700208902359009,0.0005170907825231552,0.00015226192772388458
1772555897135919900,5.488919921875,0.0014262916520237923,-0.001456843689084053,0.0005711773410439491
1772555897145852000,5.498851806640625,0.00015992019325494766,0.001481732353568077,0.0006976323202252388
1772555897155782700,5.50878271484375,0.00038682110607624054,-0.0009579900652170181,0.0013077622279524803
1772555897165713700,5.518713623046875,0.000024489127099514008,0.0003333650529384613,-0.00020955968648195267
1772555897175645000,5.52864501953125,-0.0011773956939578056,-0.0013420293107628822,-0.0009264824911952019
1772555897185576700,5.53857666015625,0.00023364508524537086,0.000554962083697319,-0.003421153873205185
1772555897195507700,5.5485078125,0.0016187550500035286,0.0008881241083145142,-0.0009444141760468483
1772555897205439000,5.55843896484375,0.0015931962989270687,-0.0004556262865662575,-0.000019956380128860474
1772555897215370800,5.568370849609375,0.00008664606139063835,0.0009835455566644669,0.0012530339881777763
1772555897225301800,5.5783017578125,0.0003538765013217926,-0.0002503804862499237,-0.0009596655145287514
1772555897235232800,5.588232666015625,-0.0018088766373693943,0.00133473239839077,-0.0014875037595629692
1772555897245164800,5.598164794921875,0.0013115126639604568,-0.0005772104486823082,-0.002040531486272812
1772555897255095800,5.608095703125,-0.00030955346301198006,-0.00006721541285514832,-0.0004775216802954674
1772555897265026800,5.61802685546875,0.0012003649026155472,0.0008831024169921875,0.00021422747522592545
1772555897274958800,5.627958740234375,-0.0008193766698241234,0.0013744551688432693,-0.0014497153460979462
1772555897284889600,5.6378896484375,-0.0007725195027887821,-0.000017607584595680237,0.00019410811364650726
1772555897294820900,5.64782080078125,-0.0019922470673918724,-0.000016009435057640076,-0.0009108372032642365
1772555897304751900,5.657751953125,-0.0010468652471899986,0.00006498582661151886,0.0018474487587809563
1772555897314683600,5.66768359375,-0.000964839942753315,0.000009592622518539429,-0.0013038702309131622
1772555897324614700,5.67761474609375,0.0011254353448748589,-0.0005884682759642601,-0.0026105567812919617
1772555897334546000,5.6875458984375,-0.0008410424925386906,0.0012339334934949875,0.0013751303777098656
1772555897344477700,5.697477783203125,0.0006094737909734249,-0.0011149607598781586,0.00011273100972175598
1772555897354408700,5.70740869140625,-0.0021136081777513027,-0.000774608924984932,0.0005068788304924965
1772555897364339700,5.717339599609375,-0.0019085281528532505,-0.0000783577561378479,-0.0013082632794976234
1772555897374271700,5.727271728515625,-0.00119852926582098,-0.0021582860499620438,0.0015240078791975975
1772555897384202800,5.73720263671875,-0.0012599071487784386,-0.002230646088719368,0.00035999808460474014
1772555897394133800,5.7471337890625,-0.0004774704575538635,-0.000520629808306694,0.0015232665464282036
1772555897404064800,5.757064697265625,0.0004161619581282139,0.0014184731990098953,-0.0020377440378069878
1772555897413996800,5.766996826171875,0.000016687903553247452,-0.00032163597643375397,-0.0005389172583818436
1772555897423927800,5.776927734375,-0.0006862347945570946,-0.00004071742296218872,0.0006604408845305443
1772555897433858800,5.78685888671875,-0.0004553389735519886,0.0005981754511594772,0.0003339368849992752
1772555897443790600,5.79679052734375,-0.0030766227282583714,0.00022945739328861237,0.002538846805691719
1772555897453721900,5.806721923828125,0.0006147846579551697,-0.0011449996381998062,-0.0018231449648737907
1772555897463652900,5.81665283203125,2.4726614356040955e-7,0.0010493751615285873,-0.000028036534786224365
1772555897473584600,5.826584716796875,-0.0009108199737966061,0.0013598985970020294,0.0006697122007608414
1772555897483515600,5.836515625,-0.0041686915792524815,0.0003863312304019928,-0.0019788872450590134
1772555897493447000,5.846447021484375,0.00037146545946598053,0.0007133688777685165,-0.0008654193952679634
1772555897503379000,5.85637890625,-0.001863587647676468,0.00010668858885765076,-0.0007004514336585999
1772555897513309700,5.866309814453125,-0.0003985827788710594,0.0026803668588399887,0.0016170311719179153
1772555897523240700,5.87624072265625,0.00017671426758170128,-0.0021163439378142357,-0.0008384399116039276
1772555897533171700,5.886171630859375,0.0006872420199215412,-0.00144895538687706,-0.0013806596398353577
1772555897543103700,5.896103759765625,-0.00008741114288568497,-0.00125059112906456,-0.0008101854473352432
1772555897553034800,5.90603466796875,-0.0010224469006061554,-0.0013605793938040733,-0.0032184822484850883
1772555897562965800,5.9159658203125,0.0006331270560622215,0.0005894564092159271,-0.0005725966766476631
1772555897572897800,5.925897705078125,0.0007428489625453949,0.0025673862546682358,-0.0006855148822069168
1772555897582828800,5.935828857421875,0.0010527814738452435,0.0016113799065351486,0.0009907912462949753
1772555897592759800,5.945759765625,-0.0008756136521697044,-0.0013404684141278267,0.0003401804715394974
1772555897602691600,5.955691650390625,0.002116831950843334,-0.00040692370384931564,0.0008308961987495422
1772555897612622800,5.965622802734375,-0.002306678332388401,-0.001390429213643074,-0.0006460929289460182
1772555897622553900,5.975553955078125,-0.0019612815231084824,-0.00036311428993940353,0.0002970704808831215
1772555897632486000,5.98548583984375,0.002743192482739687,-0.002536253072321415,0.000605996698141098
1772555897642416600,5.995416748046875,0.0001808851957321167,0.001134820282459259,0.002252178266644478
1772555897652348000,6.005347900390625,-0.0017171497456729412,-0.0002838447690010071,-0.00001390557736158371
1772555897662278700,6.015278564453125,0.0026463870890438557,-0.00038670841604471207,-0.0001462753862142563
1772555897672210700,6.025210693359375,-0.001647427212446928,-0.0010058935731649399,0.0008691875264048576
1772555897682141700,6.0351416015625,-0.0001841462217271328,0.0013946965336799622,-0.0007678810507059097
1772555897692073000,6.045072998046875,0.0008158707059919834,-0.0016226647421717644,-0.0014278125017881393
1772555897702004700,6.055004638671875,-0.0020604142919182777,0.0004410017281770706,0.00005344860255718231
1772555897711935700,6.064935791015625,0.0005849036388099194,0.0011688433587551117,0.0017035426571965218
1772555897721866800,6.07486669921875,-0.0011801510117948055,-0.00021735206246376038,-0.0021229153499007225
1772555897731798500,6.084798583984375,0.00030322931706905365,-0.0011044517159461975,0.003826320171356201
1772555897741729800,6.094729736328125,-0.0006409124471247196,-0.00022587180137634277,-0.0016734208911657333
1772555897751660800,6.104660888671875,-0.0031671870965510607,0.002176830545067787,-0.0017573107033967972
1772555897761591600,6.114591552734375,-0.0007725455798208714,0.0010458212345838547,0.0009459340944886208
1772555897771523800,6.12452392578125,0.0015153763815760612,0.0007960163056850433,0.00047348998486995697
1772555897781454800,6.134454833984375,-0.0005138274282217026,-0.00018183700740337372,-0.000586741603910923
1772555897791385600,6.144385498046875,0.0004766019992530346,0.00043894536793231964,-0.00041949562728405
1772555897801317600,6.154317626953125,-0.0004778844304382801,-0.0004052892327308655,0.0006176000460982323
1772555897811249000,6.164248779296875,0.0014198841527104378,-0.0013435203582048416,-0.0023342473432421684
1772555897821180000,6.174179931640625,0.001090847421437502,-0.0006202831864356995,-0.00331684947013855
1772555897831111700,6.184111572265625,-0.0006647086702287197,-0.00015396438539028168,0.0006403420120477676
1772555897841042700,6.194042724609375,0.000698138028383255,-0.00045789778232574463,-0.00025733374059200287
1772555897850974000,6.203973876953125,0.00015272246673703194,-0.0023487424477934837,0.0018361769616603851
1772555897860905700,6.21390576171875,-0.00020342925563454628,-0.00080922432243824,-0.00032857246696949005
1772555897870836500,6.22383642578125,-0.00008092401549220085,-0.0015764804556965828,0.001556413248181343
1772555897880767200,6.233767333984375,-0.0008771074935793877,-0.0013239700347185135,-0.000716119073331356
1772555897890698500,6.243698486328125,0.0005868319422006607,0.0005780607461929321,0.00011532008647918701
1772555897900630500,6.253630615234375,0.00039389822632074356,0.0011754129081964493,-0.0023263301700353622
1772555897910561300,6.263561279296875,-0.00045857951045036316,0.000765552744269371,-0.00015478860586881638
1772555897920492300,6.2734921875,0.0004935124889016151,0.0006273481994867325,0.0009961193427443504
1772555897930424600,6.283424560546875,-0.001097193919122219,0.0004206877201795578,-0.0017637144774198532
1772555897940355600,6.29335546875,0.0019927513785660267,-0.0007934235036373138,0.00013898778706789017
1772555897950286300,6.303286376953125,0.0008920663967728615,-0.00019447878003120422,-0.0017254911363124847
1772555897960218400,6.31321826171875,-0.00015922170132398605,0.0004912558943033218,-0.0003357408568263054
1772555897970149600,6.323149658203125,0.0001009688712656498,-0.000398772768676281,0.0001050122082233429
1772555897980080400,6.333080322265625,0.0015138252638280392,-0.0013195602223277092,-0.0001353621482849121
1772555897990011400,6.343011474609375,-0.0009986008517444134,0.0013025887310504913,0.00020152796059846878
1772555897999943400,6.352943359375,-0.0015328326262533665,0.0011554080992937088,-0.000043762847781181335
1772555898009874400,6.36287451171875,0.0008512292988598347,-0.0009279828518629074,-0.002839815802872181
1772555898019805400,6.372805419921875,-0.00026198942214250565,0.0037023648619651794,-0.0003445325419306755
1772555898029737500,6.382737548828125,0.0005942168645560741,0.0005052406340837479,-0.0002792859449982643
1772555898039668200,6.392668212890625,0.0021549309603869915,0.0010956954210996628,0.0006866008043289185
1772555898049599500,6.402599609375,-0.0010680262930691242,0.00007224269211292267,-0.0001978352665901184
1772555898059531500,6.412531494140625,-0.001813353504985571,-0.000170266255736351,-0.0009227897971868515
1772555898069462500,6.422462646484375,-0.001757160760462284,0.0002393275499343872,-0.0000016028061509132385
1772555898079393300,6.432393310546875,-0.001443986315280199,0.00021901167929172516,0.002394329756498337
1772555898089324500,6.442324462890625,0.0037550372071564198,-0.0014406703412532806,-0.00056417565792799
1772555898099256600,6.452256591796875,0.00045673688873648643,0.0014442503452301025,0.0005839187651872635
1772555898109187300,6.462187255859375,0.002964901737868786,0.0017126984894275665,0.0006896462291479111
1772555898119118300,6.472118408203125,0.00017348071560263634,0.000023387372493743896,0.002631225623190403
1772555898129050400,6.48205029296875,-0.00016687111929059029,0.0023102425038814545,0.0014306725934147835
1772555898138981400,6.4919814453125,0.0013608802109956741,-0.0008896812796592712,-0.0018738983199000359
1772555898148912400,6.501912353515625,-0.0006940150633454323,0.0011007655411958694,0.002643887884914875
1772555898158844400,6.511844482421875,0.0016301902942359447,0.00045489706099033356,-0.001160038635134697
1772555898168775400,6.521775390625,0.001854694914072752,0.0014772843569517136,0.0001885863021016121
1772555898178706400,6.53170654296875,0.0020046476274728775,-0.0007182490080595016,0.0005297493189573288
1772555898188637400,6.541637451171875,-0.0006100437603890896,-0.0006612576544284821,-0.00016506947576999664
1772555898198569500,6.551569580078125,-0.00031400565057992935,-0.00011449307203292847,-0.0013489723205566406
1772555898208500500,6.56150048828125,0.0002793464809656143,-0.0002218186855316162,-0.001716754399240017
1772555898218431500,6.571431396484375,0.0017983978614211082,0.00037638843059539795,-0.001384388655424118
1772555898228363500,6.581363525390625,-0.001577691175043583,-0.0005115093663334846,-0.0005505522713065147
1772555898238294300,6.591294189453125,0.002191237173974514,-0.001715201884508133,0.0017316266894340515
1772555898248225500,6.6012255859375,0.000876700971275568,0.0006286464631557465,-0.0000819861888885498
1772555898258157600,6.611157470703125,0.0015640612691640854,0.002285277470946312,0.0004682941362261772
1772555898268088300,6.62108837890625,0.0016239825636148453,0.0016612987965345383,0.00019159168004989624
1772555898278019300,6.631019287109375,0.00027111778035759926,-0.0008287606760859489,-0.0006103049963712692
1772555898287951400,6.640951416015625,0.00011106161400675774,-0.000025285407900810242,-0.0017450777813792229
1772555898297882400,6.65088232421875,0.0017012390308082104,0.0013945680111646652,-0.00013117119669914246
1772555898307813400,6.6608134765625,0.0008101454004645348,0.0009322427213191986,-0.0014209402725100517
1772555898317744400,6.670744384765625,0.0023743989877402782,0.00016011856496334076,-0.003301970660686493
1772555898327676400,6.680676513671875,0.0004595862701535225,-0.0002641240134835243,0.00018224306404590607
1772555898337607400,6.690607421875,-0.0018332055769860744,-0.00013036839663982391,-0.003535858355462551
1772555898347538400,6.700538330078125,-0.00087366858497262,-0.00009494833648204803,0.00013051554560661316
1772555898357470500,6.710470458984375,-0.0012162509374320507,-0.0012718774378299713,-0.0011899322271347046
1772555898367401500,6.7204013671875,-0.00273212231695652,0.001858934760093689,-0.0022908831015229225
1772555898377332500,6.73033251953125,0.00285660894587636,0.00024504587054252625,0.0009290212765336037
1772555898387264500,6.740264404296875,0.00021235598251223564,-0.000325668603181839,0.0004131672903895378
1772555898397195300,6.7501953125,0.0009734798222780228,0.0001141577959060669,0.000030112452805042267
1772555898407126500,6.76012646484375,-0.0006840713322162628,0.0003077704459428787,0.002316969446837902
1772555898417057500,6.7700576171875,-0.000018703285604715347,0.0016293544322252274,0.0007994445040822029
1772555898426989300,6.7799892578125,0.0016740020364522934,-0.001072421669960022,0.001546194776892662
1772555898436920300,6.78992041015625,-0.0006807991303503513,-0.0010799337178468704,-0.00041709188371896744
1772555898446851600,6.7998515625,-0.0009361961856484413,0.00021862424910068512,-0.0024770470336079597
1772555898456783600,6.80978369140625,0.00003470713272690773,0.00008220411837100983,0.0003199763596057892
1772555898466714400,6.81971435546875,-0.0017240443266928196,-0.000655490905046463,0.001468065194785595
1772555898476645400,6.829645263671875,0.0004470064304769039,0.0005743708461523056,0.000012851320207118988
1772555898486577400,6.839577392578125,0.0013743191957473755,0.0021379124373197556,0.003684817347675562
1772555898496508400,6.84950830078125,0.0005005840212106705,0.0028201136738061905,-0.000055458396673202515
1772555898506439400,6.859439453125,0.001961327623575926,0.002505859360098839,-0.0017827842384576797
1772555898516370400,6.869370361328125,-0.0009616222232580185,0.00196913443505764,-0.0011103413999080658
1772555898526302500,6.879302490234375,0.00023653404787182808,-0.0003579361364245415,0.00008168909698724747
1772555898536233500,6.8892333984375,0.0010734377428889275,-0.00006833858788013458,-0.00026489607989788055
1772555898546164500,6.89916455078125,-0.0011279312893748283,0.0014121122658252716,0.0008365875110030174
1772555898556096300,6.90909619140625,-0.000012986361980438232,0.0036123618483543396,-0.0009432388469576836
1772555898566027500,6.919027587890625,-0.0002651875838637352,0.0011127181351184845,-0.000013795681297779083
1772555898575958500,6.92895849609375,-0.0013810456730425358,-0.0009400006383657455,-0.0001792125403881073
1772555898585890600,6.938890625,0.00018036598339676857,-0.0006273454055190086,0.0008738012984395027
1772555898595821300,6.9488212890625,-0.0001458069309592247,-0.0004689926281571388,-0.002091321162879467
1772555898605752600,6.958752685546875,-0.0012917649000883102,-0.00027484819293022156,0.0012829042971134186
1772555898615684600,6.9686845703125,0.0018938076682388783,0.002621704712510109,0.001245090737938881
1772555898625615400,6.978615478515625,0.000016545411199331284,0.0011274050921201706,0.0011593364179134369
1772555898635546400,6.98854638671875,0.0005063838325440884,0.00001368299126625061,-0.0010188287124037743
1772555898645477600,6.9984775390625,-0.001246242318302393,0.0022994745522737503,0.0006642891094088554
1772555898655409400,7.008409423828125,-0.000652446411550045,-0.0006897542625665665,0.0016733966767787933
1772555898665340400,7.01834033203125,-0.002113190246745944,0.0001845620572566986,-0.0016904417425394058
1772555898675271400,7.028271484375,-0.0003688102588057518,-0.0012052468955516815,-0.000024063512682914734
1772555898685203200,7.038203125,-0.0005448451265692711,-0.0001157466322183609,0.0012225629761815071
1772555898695134500,7.048134521484375,-0.0009265225380659103,-0.0011486029252409935,-0.00014659669250249863
1772555898705065500,7.0580654296875,0.0022141430526971817,-0.00002261810004711151,0.00110721867531538
1772555898714997500,7.06799755859375,-0.001255381852388382,-0.00012546591460704803,-0.0008179871365427971
1772555898724928300,7.07792822265625,0.00006820913404226303,-0.00016514770686626434,-0.0007937522605061531
1772555898734859500,7.087859619140625,0.0006536305882036686,-0.001825348474085331,-0.0023586535826325417
1772555898744790300,7.097790283203125,0.0014629652723670006,-0.00018776953220367432,0.0004885317757725716
1772555898754722300,7.107722412109375,0.0008650808595120907,-0.00021238438785076141,0.001441221684217453
1772555898764653600,7.117653564453125,0.0007580220699310303,0.000963134691119194,-0.0011361856013536453
1772555898774584600,7.12758447265625,0.0007726321928203106,-0.0019117575138807297,0.00212034210562706
1772555898784516400,7.137516357421875,0.00033134641125798225,0.00029893219470977783,0.001235106959939003
1772555898794447400,7.147447265625,0.00006273295730352402,0.00022634118795394897,0.0014053629711270332
1772555898804378600,7.157378662109375,-0.0013751080259680748,0.0008726902306079865,-0.0011179819703102112
1772555898814310400,7.167310302734375,-0.00001615472137928009,-0.0021458053961396217,0.0010278476402163506
1772555898824241400,7.177241455078125,-0.0030795889906585217,0.0003208145499229431,0.0009626001119613647
1772555898834172400,7.18717236328125,0.0020041209645569324,0.0003093499690294266,-0.00004003569483757019
1772555898844103400,7.197103515625,-0.00117143290117383,0.0008230730891227722,-0.0013662902638316154
1772555898854035500,7.207035400390625,0.0015315227210521698,0.002315197139978409,0.002519281581044197
1772555898863966700,7.216966796875,-0.0016088765114545822,-0.0006401129066944122,-0.0004661222919821739
1772555898873897700,7.226897705078125,0.0005637519061565399,0.0008807964622974396,0.0002413364127278328
1772555898883829800,7.236829833984375,-0.0006040441803634167,-0.0012739673256874084,0.000712183304131031
1772555898893760800,7.2467607421875,-0.0020127263851463795,0.000011317431926727295,-0.00025117862969636917
1772555898903691800,7.25669189453125,0.0027625877410173416,-0.000164717435836792,0.00039357226341962814
1772555898913623800,7.266623779296875,-0.0004092124290764332,0.0022909827530384064,0.00045278482139110565
1772555898923554600,7.276554443359375,0.0006619109772145748,0.0006328988820314407,-0.0002452293410897255
1772555898933485800,7.28648583984375,-0.001028296072036028,0.0003800131380558014,-0.0012425165623426437
1772555898943416800,7.296416748046875,-0.00006210105493664742,0.000597858801484108,0.0008198358118534088
1772555898953348900,7.306348876953125,-0.0020744847133755684,-0.00041943322867155075,0.0005138330161571503
1772555898963279600,7.316279541015625,-0.0004486250691115856,-0.0017060060054063797,-0.0002086823806166649
1772555898973211000,7.3262109375,0.0021128072403371334,-0.0003118319436907768,-0.0003110012039542198
1772555898983143000,7.336142822265625,0.0018512844108045101,0.0008375886827707291,0.0005958052352070808
1772555898993073700,7.34607373046875,-0.0009153923019766808,-0.0011714296415448189,0.00031194742769002914
1772555899003004700,7.356004638671875,0.000045742373913526535,0.0006397869437932968,-0.0013799583539366722
1772555899012936700,7.365936767578125,0.0006741220131516457,-0.0002625463530421257,-0.0010916870087385178
1772555899022867700,7.37586767578125,-0.0009466777555644512,-0.00032939203083515167,-0.00006636977195739746
1772555899032798700,7.385798828125,-0.002926994813606143,-0.0013022692874073982,-0.0002961810678243637
1772555899042729700,7.395729736328125,-0.0010739671997725964,-0.0007818872109055519,0.0008487114682793617
1772555899052661800,7.405661865234375,0.00013696076348423958,-0.00047467928379774094,0.002819218672811985
1772555899062592800,7.4155927734375,0.000603014137595892,-0.002022508531808853,-0.000906011089682579
1772555899072523800,7.425523681640625,-0.0004025166854262352,-0.0008942466229200363,0.0019677672535181046
1772555899082455800,7.435455810546875,-0.0025413010735064745,0.0010693017393350601,-0.00012467894703149796
1772555899092386800,7.44538671875,0.001787012442946434,-0.0017517292872071266,0.0024034706875681877
1772555899102317800,7.45531787109375,0.0011827414855360985,-0.002170911058783531,0.00033073220402002335
1772555899112249900,7.465249755859375,0.0016794619150459766,-0.0011945543810725212,0.0005534570664167404
1772555899122180600,7.4751806640625,0.0001864936202764511,0.0005428921431303024,0.0005214987322688103
1772555899132112000,7.48511181640625,-0.0004227929748594761,-0.0024827010929584503,0.0011154981330037117
1772555899142043000,7.49504296875,0.00017322227358818054,-0.0006685554981231689,-0.00037587154656648636
1772555899151974700,7.504974609375,0.0008481838740408421,0.0024526305496692657,-0.0010067606344819069
1772555899161905700,7.51490576171875,0.0008923923596739769,-0.00043077487498521805,0.0002659643068909645
1772555899171837000,7.5248369140625,-0.0006240610964596272,-0.00014598481357097626,0.000050438567996025085
1772555899181768700,7.534768798828125,0.0012340261600911617,-0.00010683573782444,0.0026398301124572754
1772555899191699700,7.54469970703125,-0.0006465031765401363,-0.0001813303679227829,0.00019610021263360977
1772555899201630700,7.554630615234375,-0.001754377968609333,0.0023161806166172028,0.0004059579223394394
1772555899211562800,7.564562744140625,0.0014445241540670395,-0.0008141016587615013,0.0015596114099025726
1772555899221493800,7.57449365234375,0.0018344111740589142,-0.0009986590594053268,0.0010597361251711845
1772555899231424800,7.5844248046875,0.0004695453681051731,0.0003925301134586334,-0.00038622692227363586
1772555899241355800,7.594355712890625,0.00048632360994815826,0.0006889384239912033,0.0016510915011167526
1772555899251287800,7.604287841796875,0.0030192877165973186,0.001206282526254654,0.000020937994122505188
1772555899261218800,7.61421875,-0.001821007113903761,-0.00006830692291259766,-0.0006816033273935318
1772555899271149800,7.62414990234375,0.001140865497291088,0.0015597529709339142,0.0005904361605644226
1772555899281081600,7.63408154296875,0.001447395421564579,-0.0012805089354515076,0.0014003030955791473
1772555899291012900,7.644012939453125,-0.0004705330356955528,-0.0008080778643488884,0.0002109874039888382
1772555899300944000,7.65394384765625,0.0006059170700609684,0.0006271004676818848,-0.0007006125524640083
1772555899310875600,7.663875732421875,0.0008342457003891468,-0.0011231107637286186,-0.00025848299264907837
1772555899320806700,7.673806640625,0.0008182665333151817,-0.0020421668887138367,-0.0009889882057905197
1772555899330738000,7.683738037109375,0.0003751348704099655,0.0010827034711837769,-0.0004352228716015816
1772555899340668700,7.693668701171875,-0.0017862864769995213,0.00017163529992103577,-0.0002554589882493019
1772555899350600700,7.7036005859375,-0.0013452526181936264,-0.0026266174390912056,0.0008431505411863327
1772555899360531700,7.71353173828125,0.0003418601118028164,0.0006962083280086517,-0.0006767148151993752
1772555899370462700,7.723462646484375,0.002474210225045681,0.00009644776582717896,0.0005916692316532135
1772555899380394800,7.733394775390625,0.000322908628731966,0.000787004828453064,-0.0007071550935506821
1772555899390325800,7.74332568359375,0.0015474087558686733,0.0004648696631193161,-0.002631991170346737
1772555899400256800,7.7532568359375,-0.0004097484052181244,0.0003506205976009369,-0.0007339566946029663
1772555899410188800,7.763188720703125,0.002133376430720091,-0.0012523774057626724,0.000055363401770591736
1772555899420119800,7.773119873046875,-0.0023734914138913155,0.0021580662578344345,-0.00044238101691007614
1772555899430050800,7.78305078125,0.001325066201388836,0.0003148633986711502,-0.0015697823837399483
1772555899439981800,7.79298193359375,-0.0006238352507352829,0.0009207315742969513,0.0004763249307870865
1772555899449913900,7.802913818359375,0.0007947762496769428,-0.00006862357258796692,-0.0011247768998146057
1772555899459844900,7.812844970703125,0.0022989297285676003,-0.00017062202095985413,-0.003159431740641594
1772555899469775600,7.822775634765625,-0.0018777884542942047,-0.0024580564349889755,0.0015394501388072968
1772555899479707600,7.832707763671875,0.0005068061873316765,0.000787271186709404,0.0014824587851762772
1772555899489639000,7.842638916015625,0.0015950952656567097,0.0013908445835113525,0.0008275769650936127
1772555899499569700,7.852569580078125,-0.0008169296197593212,-0.0012344997376203537,0.0021439772099256516
1772555899509501700,7.862501708984375,-0.0010129734873771667,0.0022158920764923096,-0.0003532757982611656
1772555899519432700,7.8724326171875,-0.0003690212033689022,0.00046726129949092865,-0.00044861622154712677
1772555899529364000,7.882364013671875,-0.0003875093534588814,0.0004062596708536148,-0.001561235636472702
1772555899539294700,7.892294677734375,-0.0008487692102789879,-0.0012073488906025887,0.0005226880311965942
1772555899549226800,7.902226806640625,-0.001104577910155058,0.00061802938580513,0.00005811173468828201
1772555899559157800,7.91215771484375,0.001309843733906746,0.0014244336634874344,-0.0011874493211507797
1772555899569088800,7.9220888671875,0.0006417743861675262,0.00051085464656353,-0.000676766037940979
1772555899579020800,7.932020751953125,0.0011107567697763443,-0.0008369702845811844,0.0007988912984728813
1772555899588951800,7.941951904296875,0.002206772565841675,-0.0007498152554035187,-0.0021825218573212624
1772555899598882600,7.951882568359375,-0.00029553379863500595,-0.0001063961535692215,-0.0009561367332935333
1772555899608814600,7.961814697265625,0.00029147276654839516,0.0015918556600809097,0.0005341414362192154
1772555899618745900,7.971745849609375,0.0020619421266019344,0.0004083476960659027,-0.0009817304089665413
1772555899628676600,7.981676513671875,-0.0010697082616388798,-0.00007893331348896027,0.00040613673627376556
1772555899638607600,7.991607666015625,0.0005004913546144962,0.0001232009381055832,0.003480489831417799
1772555899648540000,8.001539794921875,0.0004583229310810566,0.0015112347900867462,-0.002109801396727562
1772555899658471000,8.011470947265625,0.0009733783081173897,0.0005213376134634018,-0.001064244657754898
1772555899668401700,8.021401611328125,0.00009583961218595505,-0.000003645196557044983,-0.0017833644524216652
1772555899678333700,8.031333740234375,0.000640456099063158,0.0014682840555906296,0.00009736046195030212
1772555899688265000,8.041264892578125,0.000527367927134037,0.0006390567868947983,0.0033090882934629917
1772555899698195700,8.05119580078125,-0.0014186040498316288,0.0008638277649879456,0.0008920030668377876
1772555899708127700,8.061127685546875,-0.0011126254685223103,-0.0004358971491456032,-0.0015102066099643707
1772555899718058800,8.071058837890625,0.00040777307003736496,0.0010203197598457336,0.0011497586965560913
1772555899727989800,8.08098974609375,-0.0001919795759022236,-0.0018601734191179276,0.00023750215768814087
1772555899737920800,8.090920654296875,-0.0015163691714406013,0.0012535955756902695,0.001821017824113369
1772555899747852800,8.100852783203125,-0.0010553631000220776,0.001628529280424118,-0.00039234384894371033
1772555899757783600,8.110783447265625,0.0014040661044418812,0.0012767240405082703,-0.002038709819316864
1772555899767714800,8.12071484375,-0.0007418515160679817,-0.0013344204053282738,0.0007867095991969109
1772555899777646800,8.130646728515625,0.001436613965779543,0.0016701575368642807,0.0005443617701530457
1772555899787577900,8.140577880859375,-0.00037247641012072563,-0.001159938983619213,0.0022127628326416016
1772555899797508600,8.150508544921875,0.0008914596401154995,0.00036871619522571564,-0.00017289631068706512
1772555899807440000,8.16043994140625,-0.003660187590867281,-0.000002732500433921814,-0.0019971514120697975
1772555899817372000,8.170371826171875,-0.0014151427894830704,-0.00047544483095407486,0.00084683857858181
1772555899827302700,8.180302734375,-0.0002573244273662567,-0.001539822667837143,0.0006675655022263527
1772555899837233700,8.190233642578125,-0.0018999623134732246,0.0002953615039587021,0.000017753802239894867
1772555899847165700,8.200165771484375,0.002057598438113928,-0.0014458661898970604,0.000031490810215473175
1772555899857096700,8.2100966796875,0.000908177811652422,0.0004468429833650589,0.0016213972121477127
1772555899867028000,8.220028076171875,0.0000945855863392353,-0.001251700334250927,-0.0004280218854546547
1772555899876960000,8.2299599609375,-0.0006092879921197891,0.00043274834752082825,-0.0014384249225258827
1772555899886891000,8.23989111328125,-0.00046680448576807976,0.015212897211313248,0.0067128068767488
1772555899896822000,8.249822021484375,-0.0019989211577922106,0.02726822905242443,0.01021539606153965
1772555899906754000,8.259754150390625,0.002833280712366104,0.03630229830741882,0.009983057156205177
1772555899916684800,8.269684814453125,0.0008188653737306595,0.030228430405259132,0.01072341576218605
1772555899926616000,8.279615966796875,0.0000018747523427009583,0.023236479610204697,0.0072624897584319115
1772555899936547000,8.289547119140625,0.002399784978479147,0.018131200224161148,0.0067397113889455795
1772555899946478800,8.299478759765625,-0.0012109153904020786,0.01242106780409813,0.006022787187248468
1772555899956409900,8.309409912109375,0.0007307953201234341,0.006944542750716209,0.004421694669872522
1772555899966341000,8.319341064453125,-0.0006879037246108055,0.006532404571771622,0.001205887645483017
1772555899976273000,8.32927294921875,-0.0009219958446919918,-0.003453650511801243,-0.001495623029768467
1772555899986204000,8.339203857421875,0.0006829537451267242,-0.00818825326859951,-0.0007319413125514984
1772555899996135000,8.349135009765625,0.001043546013534069,-0.016464293003082275,-0.00618662778288126
1772555900006066000,8.35906591796875,-0.0011261259205639362,-0.023510916158556938,-0.008577310480177402
1772555900015998000,8.368998046875,0.0006206412799656391,-0.037801437079906464,-0.015199526213109493
1772555900025929000,8.378928955078125,0.0017729708924889565,-0.03141051530838013,-0.012894143350422382
1772555900035859700,8.388859619140625,0.0012608449906110764,-0.017919206991791725,-0.008866379968822002
1772555900045791700,8.398791748046875,-0.0021620558109134436,-0.02209613472223282,-0.007335817441344261
1772555900055723000,8.408722900390625,-0.00016788067296147346,0.0015956107527017593,0.0023146793246269226
1772555900065654000,8.418654052734375,0.0016612457111477852,-0.006625760346651077,-0.0020137969404459
1772555900075585800,8.428585693359375,0.00008944794535636902,-0.000044289976358413696,-0.0013892855495214462
1772555900085517000,8.43851708984375,-0.00037514884024858475,-0.002571013756096363,0.00010858941823244095
1772555900095448000,8.448447998046875,0.00028078770264983177,0.0003744419664144516,0.0004848940297961235
1772555900105378800,8.45837890625,-0.0011049248278141022,-0.0009619593620300293,0.0001924019306898117
1772555900115310800,8.468310791015625,0.000040234532207250595,0.00032248347997665405,-0.0010963017120957375
1772555900125242000,8.4782421875,0.0006092190742492676,-0.00334266759455204,0.0003316132351756096
1772555900135172900,8.4881728515625,-0.00014339014887809753,-0.001482715830206871,0.0013228412717580795
1772555900145105000,8.49810498046875,-0.0007007159292697906,-0.0006268331781029701,-0.0012203678488731384
1772555900155036000,8.508035888671875,0.0007962468080222607,-0.0018715942278504372,0.0009660879150032997
1772555900164967000,8.517966796875,0.0008552367798984051,-0.0003118719905614853,-0.001370185986161232
1772555900174899000,8.52789892578125,0.00028478773310780525,0.0014032032340765,0.0006042812019586563
1772555900184830000,8.537829833984375,0.0010255691595375538,-0.0020824242383241653,-0.0019852248951792717
1772555900194761000,8.547760986328125,0.0013768398202955723,-0.0007564360275864601,0.001154908910393715
1772555900204692000,8.55769189453125,-0.0010902206413447857,0.00015955232083797455,-0.002479657530784607
1772555900214624000,8.5676240234375,-0.0007567927241325378,0.0011318735778331757,-0.00009213387966156006
1772555900224555000,8.577554931640625,0.00007150229066610336,-0.00027806684374809265,0.000914083793759346
1772555900234485800,8.58748583984375,0.0008872286416590214,0.0020679105073213577,-0.0007077818736433983
1772555900244417800,8.597417724609375,-0.00016570929437875748,0.002514999359846115,-0.0004932871088385582
1772555900254349000,8.60734912109375,-0.00014014309272170067,0.0008563827723264694,-0.0009460244327783585
1772555900264279800,8.61727978515625,-0.0006872783415019512,-0.0010096952319145203,-0.0015167398378252983
1772555900274210800,8.6272109375,-0.0005200318992137909,0.00014185532927513123,-0.00007650256156921387
1772555900284142800,8.637142822265625,0.002338967751711607,-0.00036053359508514404,-0.000003905035555362701
1772555900294073900,8.647073974609375,-0.00041234400123357773,-0.0010942332446575165,-0.0020673228427767754
1772555900304004900,8.6570048828125,0.00011869426816701889,0.001459246501326561,-0.0017779553309082985
1772555900313937000,8.66693701171875,-0.0011319257318973541,-0.0007216157391667366,0.0019163815304636955
1772555900323868200,8.6768681640625,-0.0008788350969552994,0.00014133192598819733,0.0016288748010993004
1772555900333799000,8.686798828125,0.0011076168157160282,0.00006117112934589386,0.0006198026239871979
1772555900343731000,8.69673095703125,0.0008955500088632107,0.0008072070777416229,-0.0010344386100769043
1772555900353662000,8.706661865234375,0.00002229912206530571,-0.0013792486861348152,-0.0002259034663438797
1772555900363593000,8.716593017578125,-0.002290199277922511,0.0006483886390924454,0.00027716532349586487
1772555900373524000,8.72652392578125,-0.0005982932634651661,0.0015746373683214188,-0.00003948435187339783
1772555900383456000,8.7364560546875,0.0011024759151041508,0.00015375763177871704,-0.0011565294116735458
1772555900393386800,8.74638671875,0.00017356546595692635,0.00046827830374240875,-0.0002816803753376007
1772555900403318000,8.756318115234375,-0.0007300921715795994,0.0016494989395141602,-0.0005249008536338806
1772555900413250000,8.76625,0.000045686960220336914,-0.00024960190057754517,0.0003427565097808838
1772555900423180800,8.776180908203125,-0.0026042202953249216,0.0005110092461109161,-0.0005367295816540718
1772555900433111800,8.78611181640625,-0.00009126123040914536,0.0006359107792377472,-0.0015455354005098343
1772555900443043800,8.7960439453125,0.0007569706067442894,0.0005340017378330231,0.001407792791724205
1772555900452975000,8.80597509765625,0.00016468344256281853,0.0017441418021917343,0.0014525344595313072
1772555900462905900,8.81590576171875,0.0018525654450058937,-0.000010797753930091858,-0.0002477793022990227
1772555900472836900,8.8258369140625,0.00022564036771655083,0.0015306398272514343,0.0007402533665299416
1772555900482769000,8.835768798828125,0.001224815845489502,0.0012741517275571823,-0.000059451907873153687
1772555900492700000,8.845699951171875,0.001231473870575428,-0.0011160355061292648,-0.00016624480485916138
1772555900502631000,8.855630859375,-0.0009500449523329735,0.00016801990568637848,-0.002204975113272667
1772555900512563000,8.86556298828125,-0.0002448400482535362,-0.0011060358956456184,0.00025285594165325165
1772555900522494000,8.875493896484375,0.0002986476756632328,0.0008378401398658752,0.0035867132246494293
1772555900532425000,8.885425048828125,0.0013607162982225418,-0.0008865566924214363,0.0010617701336741447
1772555900542357000,8.89535693359375,0.00008065998554229736,0.00018583610653877258,0.0005988422781229019
1772555900552287700,8.905287841796875,-0.0008714203722774982,-0.00028687529265880585,0.0021613184362649918
1772555900562219000,8.915218994140625,0.0005677654407918453,-0.0010911570861935616,0.0000446029007434845
1772555900572150000,8.92514990234375,0.0010183723643422127,-0.00031324848532676697,0.001738639548420906
1772555900582082000,8.93508203125,-0.0017320211045444012,0.00008577480912208557,-0.0015423791483044624
1772555900592012800,8.9450126953125,0.0007172883488237858,0.0012908559292554855,0.0010507404804229736
1772555900601944000,8.954944091796875,-0.0013116560876369476,0.0009508486837148666,0.0011706966906785965
1772555900611876000,8.9648759765625,0.0009528296068310738,-0.00008299015462398529,-0.0013079075142741203
1772555900621806800,8.974806884765625,0.0011348300613462925,0.0014465302228927612,0.00030109938234090805
1772555900631737900,8.98473779296875,0.0007870211265981197,-0.00023126043379306793,0.001925361342728138
1772555900641669000,8.994669189453125,0.0008022249676287174,-0.000444960780441761,0.002185727469623089
1772555900651601000,9.004600830078125,0.0017548375762999058,0.0002546515315771103,-0.0033350056037306786
1772555900661532000,9.014531982421875,-0.00124679459258914,-0.0011853203177452087,-0.0008175969123840332
1772555900671463000,9.024462890625,-0.0006220173090696335,0.000045593827962875366,0.0016021514311432838
1772555900681394700,9.034394775390625,0.00011017452925443649,0.0019874200224876404,-0.0006990600377321243
1772555900691326000,9.044325927734375,0.0006313552148640156,0.00003026239573955536,0.00032812170684337616
1772555900701257000,9.054257080078125,0.0006540073081851006,0.001068631187081337,-0.0014304323121905327
1772555900711189000,9.06418896484375,-0.0011388328857719898,-0.002560725435614586,0.0013501746580004692
1772555900721120000,9.0741201171875,0.0016528693959116936,-0.0007484881207346916,-0.0004540439695119858
1772555900731051000,9.084051025390625,-0.0014366637915372849,-0.0012984303757548332,0.0016714241355657578
1772555900740981800,9.093981689453125,-0.0006425231695175171,0.0023776181042194366,-0.002004304900765419
1772555900750913800,9.103913818359375,0.0007271403446793556,0.0011736024171113968,0.0023845843970775604
1772555900760845000,9.113844970703125,-0.0025529032573103905,-0.0003844108432531357,-0.002971408888697624
1772555900770776000,9.123776123046875,0.0003203810192644596,-0.0014022700488567352,0.0013112202286720276
1772555900780707800,9.133707763671875,0.000384387094527483,-0.0005262978374958038,-0.0010111844167113304
1772555900790638800,9.143638916015625,-0.0020289693493396044,-0.00022402964532375336,0.00016966089606285095
1772555900800570000,9.153570068359375,0.0014589675702154636,-0.00010760128498077393,-0.0024257395416498184
1772555900810500900,9.1635009765625,0.0017460561357438564,-0.001372070051729679,0.0013226596638560295
1772555900820433000,9.173432861328125,0.0019317660480737686,-0.0004974920302629471,-0.00032628048211336136
1772555900830364000,9.183364013671875,0.0006135012954473495,-0.002343595027923584,-0.0018663862720131874
1772555900840295000,9.193294921875,-0.0006816242821514606,0.0012788232415914536,0.0015786010771989822
1772555900850227000,9.20322705078125,-0.0009442120790481567,0.00009158626198768616,0.00011386256664991379
1772555900860158000,9.213157958984375,-0.0008718138560652733,0.0007707588374614716,0.001360519789159298
1772555900870088700,9.223088623046875,-0.00041934289038181305,0.0011798199266195297,0.0000475812703371048
1772555900880020700,9.233020751953125,0.0014981264248490334,0.0009887628257274628,-0.0012765498831868172
1772555900889952000,9.242951904296875,0.0009519122540950775,-0.0016791913658380508,-0.0012334063649177551
1772555900899882800,9.2528828125,-0.000401573721319437,0.00016524456441402435,0.0003521144390106201
1772555900909813800,9.262813720703125,0.0008040396496653557,0.000517580658197403,-0.0004891781136393547
1772555900919746000,9.27274609375,-0.0009416616521775723,-0.004190301522612572,0.0015707360580563545
1772555900929676800,9.2826767578125,-0.0002601584419608116,0.013806009665131569,0.007195598445832729
1772555900939607800,9.29260791015625,0.003154184203594923,0.018840191885828972,0.008674702607095242
1772555900949539800,9.302539794921875,0.0008329725824296474,0.03133387863636017,0.011866500601172447
1772555900959471000,9.31247119140625,-0.0002560676075518131,0.04284439980983734,0.014528289437294006
1772555900969401900,9.32240185546875,0.0030089677311480045,0.01707512140274048,0.003066576085984707
1772555900979332900,9.332332763671875,0.00206252234056592,0.013322636485099792,0.002313818782567978
1772555900989265000,9.342264892578125,0.0006257472559809685,0.0009354744106531143,0.00031138770282268524
1772555900999196000,9.35219580078125,-0.0016874801367521286,-0.010651599615812302,-0.003361685201525688
1772555901009127000,9.362126953125,0.002398874145001173,-0.027621261775493622,-0.012423889711499214
1772555901019059000,9.372058837890625,0.0012282957322895527,-0.036235421895980835,-0.013419341295957565
1772555901028989700,9.38198974609375,-0.0005842517130076885,-0.043266166001558304,-0.017321137711405754
1772555901038921000,9.3919208984375,-0.001664973795413971,-0.006919987499713898,-0.0003604572266340256
1772555901048853000,9.40185302734375,0.00014304602518677711,-0.005429149605333805,-0.0017860475927591324
