time,seconds_elapsed,z,y,x
1772527236404159200,0.0841591796875,1.6202134296685455,-0.07930617642700671,-0.10824497840255498
1772527236414142200,0.09414208984375,1.5461509991139173,-0.09279694164097309,-0.04096533985584974
1772527236424124200,0.104124267578125,1.4760089568734167,-0.14100246188342572,0.039984073733538385
1772527236434106000,0.114106201171875,1.3508990606486797,-0.15203589707314968,-0.09427198262959718
1772527236444089000,0.124089111328125,1.1613994020998477,-0.050884968584775925,-0.35740444814413785
1772527236454071300,0.1340712890625,0.9476111054688692,0.13347206637859343,-0.5523913059324026
1772527236464053200,0.14405322265625,0.68110010343194,0.34095454086363314,-0.48033670806884765
1772527236474036200,0.1540361328125,0.4483206906050443,0.5803799675762653,-0.269039205340296
1772527236484018400,0.164018310546875,0.636795097759366,1.1481950526118279,-0.008699293153733014
1772527236494001200,0.174001220703125,1.2701011843591927,1.775761718776822,0.2550356682986021
1772527236503983400,0.1839833984375,1.9482699105143546,1.7404168491512535,0.4444540783047676
1772527236513965000,0.193965087890625,2.1236609642118216,0.905991977879405,0.6091095107153057
1772527236523948300,0.2039482421875,1.890323332980275,0.045431963875889776,0.4693669857650995
1772527236533930200,0.21393017578125,1.4551666598528623,0.35237785215377804,0.06832564046829938
1772527236543912200,0.223912109375,1.054789623683691,1.6046423510491847,-0.05929097788035869
1772527236553895200,0.233895263671875,0.5431055911928415,2.7461323530644175,0.10812047524005174
1772527236563877400,0.24387744140625,0.004558101695775986,3.442657404643297,0.047857437457144256
1772527236573859300,0.253859375,0.0524807133436203,3.6594916448414323,-0.27232874840497967
1772527236583842300,0.26384228515625,0.09503682952225208,3.039174803674221,-0.7531660994723439
1772527236593824300,0.27382421875,0.5762105729371308,1.5587822248890995,-0.6073027535542845
1772527236603806200,0.28380615234375,1.4847306079894302,0.15438158341646194,0.6065966511115432
1772527236613789400,0.29378955078125,1.8308172510445118,-0.02070639568120241,1.2245084769636392
1772527236623771100,0.303771240234375,1.765401652804017,-0.1317766606375575,1.2160241417348383
1772527236633753300,0.31375341796875,1.6968161923557519,-1.1285346588522196,1.43843267493397
1772527236643736000,0.323736083984375,1.508036080253124,-2.9994810911893843,1.163515663601458
1772527236653718300,0.33371826171875,0.889283419662714,-4.846082771342992,-0.08243424531966448
1772527236663701200,0.343701171875,-0.6584528028160334,-6.115735042890906,-1.0455851574867963
1772527236673683200,0.35368310546875,-3.1288381234645843,-6.485476702299714,-0.8353279575914144
1772527236683665200,0.3636650390625,-6.436310812592506,-6.362461732527613,0.2651075649797916
1772527236693648400,0.3736484375,-10.048972901719807,-5.75544451791644,1.191468377149105
1772527236703630300,0.38363037109375,-13.252682434034346,-5.140054027235507,2.355135431919992
1772527236713612300,0.3936123046875,-15.081521663004159,-4.0036096181720495,3.9358258294954895
1772527236723595300,0.40359521484375,-15.396199022316932,-1.8144161513417958,4.753921497257053
1772527236733577200,0.4135771484375,-14.151866485464572,-0.9968833781599998,5.787164182782173
1772527236743559200,0.42355908203125,-11.653314808517694,-1.686840157264471,6.63531830419898
1772527236753542100,0.433542236328125,-8.818625635600089,-2.451909752759337,5.860590068998932
1772527236763524400,0.4435244140625,-6.118140350466966,-2.9967005205601454,3.594429682344198
1772527236773506000,0.453506103515625,-3.509100007843971,-3.5161557715743776,1.3056406997740269
1772527236783489300,0.4634892578125,-1.1759522435873746,-3.8955227529406544,-0.2440837739124894
1772527236793471200,0.47347119140625,0.4716396068722009,-3.6471862900197505,-0.991884839220345
1772527236803454200,0.4834541015625,1.276421035030484,-2.509267132228613,-0.8075333572149276
1772527236813436200,0.493436279296875,1.2351345003962515,-0.7216460488319396,0.1120613948855549
1772527236823418000,0.503418212890625,0.7270172204762697,0.9889356340259313,0.4327739427093416
1772527236833401000,0.513401123046875,0.37414194019436836,1.9418501065999267,-1.011116778434813
1772527236843383300,0.52338330078125,0.6535708759933709,2.4578975949972866,-2.9347867929607627
1772527236853365200,0.533365234375,1.5720067403823137,2.73387492903769,-4.274796795326471
1772527236863348200,0.54334814453125,2.6645214068263767,2.222159916886687,-4.695592934668064
1772527236873330200,0.553330078125,4.036898139789701,1.540819574958086,-4.408211578559875
1772527236883312000,0.56331201171875,5.618123374894261,1.505658245205879,-4.079216063298285
1772527236893295400,0.57329541015625,6.968386475726962,2.2857231652587653,-3.412866077491641
1772527236903277000,0.583277099609375,7.6402482106924055,2.9551462749004362,-1.7668790318802
1772527236913259300,0.59325927734375,7.473990311521291,3.4488445688456295,-0.603042173500359
1772527236923242200,0.6032421875,6.4229620861977335,3.634400458204746,-0.5839337145350874
1772527236933224200,0.61322412109375,4.998388133007288,3.7106840719401832,-0.7588570045903325
1772527236943207200,0.623207275390625,3.506986376690864,4.0252223150432105,-0.8622888836227357
1772527236953189000,0.633189208984375,2.37971077798903,4.300317605552077,-0.46959041925743217
1772527236963171300,0.64317138671875,1.7626906402796505,4.5666532510221005,-0.2787761709786951
1772527236973154300,0.653154296875,1.287053488203883,4.902136666998267,-0.902494052761048
1772527236983136300,0.66313623046875,1.0731190611004828,5.011296129897237,-1.3815266924940048
1772527236993118200,0.6731181640625,1.1949071194261311,4.656426460927724,-1.5489419450066984
1772527237003101200,0.68310107421875,1.5355296518564223,3.963244290035963,-1.8301364291734992
1772527237013083100,0.693083251953125,2.1410183417260646,3.6982273259490728,-2.1654778063304723
1772527237023065300,0.7030654296875,2.7051047616273163,3.7028883034974336,-1.8841208250783383
1772527237033048600,0.713048583984375,2.8592285708904264,4.055997977057099,-1.5344059085234998
1772527237043030500,0.723030517578125,2.7836247561126948,4.173780891394615,-1.052184409621358
1772527237053012700,0.7330126953125,2.8364544290244575,4.042327763622999,-0.6879810951173305
1772527237062995700,0.74299560546875,3.316358590894937,4.011770128273963,-0.8636869138523936
1772527237072977700,0.752977783203125,4.026552686864138,4.044734240242839,-1.205623743751645
1772527237082960600,0.762960693359375,4.878287004855275,4.133257742348313,-2.096600231067836
1772527237092942600,0.772942626953125,5.5543689878642555,3.8884097060650586,-3.1830408382952213
1772527237102924500,0.782924560546875,4.703314468830824,2.592462717309594,-3.737298522621393
1772527237112907800,0.79290771484375,3.0013825408965347,1.3232903382331132,-3.1959701702341436
1772527237122889500,0.802889404296875,1.941217653915286,0.8671563435286282,-2.3476520904272795
1772527237132871700,0.81287158203125,1.949904818239808,1.1570055510550736,-1.9461685543209313
1772527237142854400,0.8228544921875,2.650291221421957,1.629263582086563,-1.8981883672669528
1772527237152836600,0.832836669921875,2.2354548672676087,1.8960674295902251,-1.1915978487476706
1772527237162818600,0.842818603515625,3.2197710247993467,2.223556924203038,-1.247390463118255
1772527237172801500,0.852801513671875,4.589464802289009,2.526100193607807,-1.8689666566967964
1772527237182783500,0.862783447265625,0.585527851858735,-0.35403263362348075,-0.728109399627149
1772527237192766700,0.8727666015625,-2.785429175186157,-3.267699481666088,0.14895575897544622
1772527237202748400,0.88274853515625,-5.453177727365493,-4.727133151313662,0.9631067807644605
1772527237212730600,0.892730712890625,-5.722986601904034,-4.715125318133831,1.6018921755582094
1772527237222713300,0.90271337890625,-5.573547735586762,-6.133247903227805,3.6411397033318873
1772527237232695600,0.912695556640625,-5.286409540584683,-13.64496208846569,10.063140543282032
1772527237242677500,0.922677490234375,-4.361771314424276,-16.634857020664214,9.44293768388331
1772527237252660500,0.932660400390625,-4.285977530032396,-10.242918433761597,7.570061160266399
1772527237262642700,0.942642578125,-7.689625697323679,-5.706532895231247,8.968084375661611
1772527237272624400,0.952624267578125,-10.570098716294765,-3.9490263795912264,9.754738610976935
1772527237282607600,0.962607666015625,-13.028787169408798,-2.3529817610174417,8.829480207091569
1772527237292589600,0.972589599609375,-13.83468854150772,-1.6598241400450466,7.905920423817634
1772527237302571500,0.982571533203125,-12.655102325332164,-1.2167290751338005,5.383338467463851
1772527237312554500,0.992554443359375,-10.07877299669981,-0.9461264198690652,1.724209226194024
1772527237322536400,1.002536376953125,-6.412099331399798,-1.258030222815275,-1.5069095604412257
1772527237332519400,1.01251953125,-2.6059645884394644,-1.696955893087387,-2.9081437007069586
1772527237342501600,1.022501708984375,0.3147650375962257,-1.1384896511554716,-2.4771686971783637
1772527237352483600,1.032483642578125,1.9951450589358806,-0.04853577511012554,-1.1449605276700108
1772527237362466600,1.042466552734375,3.1075504207640883,0.9086971451848744,-0.020369144817162305
1772527237372448500,1.052448486328125,4.159712034031749,1.328076403465867,0.031031682601571083
1772527237382430500,1.062430419921875,4.7671693936258555,1.1989607787311076,-0.665552186492458
1772527237392413700,1.07241357421875,5.561145934653282,0.9787088390439748,-1.2250803585674612
1772527237402395400,1.0823955078125,6.795067552128434,1.358725808751583,-1.7149938002116978
1772527237412377600,1.092377685546875,7.805896453532576,1.470002994456887,-1.7271107928544283
1772527237422360600,1.102360595703125,7.943989165449142,1.8064175538033247,-1.4806956533849238
1772527237432342500,1.112342529296875,7.00406686091721,2.6278859128683805,-0.8132558265149593
1772527237442324700,1.12232470703125,5.270563736677169,3.0219711554169653,0.035862573356740174
1772527237452307500,1.132307373046875,3.2684090912401675,3.1976006940454242,0.9571851356305181
1772527237462289700,1.14228955078125,1.6695482462018727,3.5797768876135345,1.424181739002466
1772527237472272600,1.152272705078125,0.6802361800789832,3.9222295580804345,1.2718114954084156
1772527237482254600,1.162254638671875,0.15507424185574054,3.880770004966855,1.0670048160038887
1772527237492236500,1.172236572265625,-0.0522539188504219,3.234159323374927,0.7869910660542547
1772527237502219800,1.1822197265625,-0.023007950621843336,2.524969436012208,0.015072481447458267
1772527237512201500,1.192201416015625,0.2552870127111673,2.0498364340662953,-1.1307694321669637
1772527237522183700,1.20218359375,0.7645616459727287,1.7386700054839253,-2.193961996406317
1772527237532166400,1.21216650390625,1.4477081605404614,1.6739768762990832,-2.882386743637919
1772527237542148600,1.222148681640625,2.4244793095201254,1.8906860288128255,-3.082125472128391
1772527237552130600,1.232130615234375,3.5106770479023455,1.9258277770817278,-2.8995068052649495
1772527237562113500,1.242113525390625,4.518168329316377,2.0388941842913626,-2.4601658321902153
1772527237572095700,1.252095703125,5.059669992443919,2.4006682258218524,-1.7596710001975298
1772527237582078500,1.262078369140625,5.320560231989622,2.6567022575080395,-1.0297019441783428
1772527237592060700,1.272060791015625,5.462897741869091,2.605731948727369,-0.5820275886528193
1772527237602042600,1.282042724609375,5.331252306395768,2.4560125119030474,-0.19621888380125163
1772527237612025600,1.292025634765625,5.055556127384305,2.258501396334171,0.22543431076109408
1772527237622007600,1.302007568359375,5.06226059345901,1.801823211750388,0.7482876797810196
1772527237631989500,1.311989501953125,5.349886864238977,1.0145131428748368,1.286474665402621
1772527237641972500,1.321972412109375,5.27268788922429,0.19486790758371353,1.7281471501648424
1772527237651954700,1.33195458984375,4.183939881837368,-1.024438324561715,2.1983710450202225
1772527237661936600,1.3419365234375,2.152562064525485,-2.297207851347327,2.927117281246185
1772527237671919600,1.351919677734375,-0.42917175349891185,-3.803729435384273,3.6629081752866504
1772527237681901600,1.361901611328125,-3.1926895411282774,-5.705275004124641,3.931488677074015
1772527237691884500,1.371884521484375,-5.972286356899142,-7.512735344979166,3.4279286220669745
1772527237701866800,1.38186669921875,-8.956086479353905,-8.384311258515716,1.9654919712111352
1772527237711848400,1.391848388671875,-12.879006942307948,-7.800366291934251,0.6193002114705741
1772527237721831700,1.401831787109375,-17.224333317887783,-6.090763683241605,1.363440562313795
1772527237731813600,1.411813720703125,-20.282432602262496,-4.02044910929203,3.4608494794160127
1772527237741795600,1.421795654296875,-21.666898416948317,-2.4699106888741253,5.3829187807470555
1772527237751778600,1.431778564453125,-21.331240228927133,-1.5110346775472163,6.597966770926117
1772527237761760500,1.441760498046875,-18.685783003532887,-1.0512667102545499,6.364805665305257
1772527237771742500,1.451742431640625,-14.263767356026172,-1.0331412709772587,5.081065831694007
1772527237781725700,1.4617255859375,-9.186020439621805,-1.726969338557124,3.7528982428133486
1772527237791707400,1.471707275390625,-4.39835595497787,-2.735463659533858,1.9036692828960715
1772527237801689600,1.481689697265625,-0.29129765276908876,-3.3614152917176483,-0.09096870330050587
1772527237811672600,1.491672607421875,3.001723317158222,-3.2496897777229545,-1.4645299698732792
1772527237821654500,1.501654541015625,5.409084903138876,-2.328899459162354,-2.588333946941793
1772527237831637500,1.511637451171875,7.203900281953811,-1.3216823185145854,-3.9362650976955886
1772527237841619500,1.521619384765625,8.826822970581054,-0.4121820402532816,-4.973246677488088
1772527237851601700,1.5316015625,10.060524223303794,0.19019991577267645,-5.627948018816113
1772527237861584600,1.541584716796875,10.393336958765984,0.6538777499854564,-6.05410890006125
1772527237871566600,1.551566650390625,9.789483761143684,1.4974831220567226,-6.114772335338592
1772527237881548500,1.561548583984375,8.501140817651152,2.5836621557384727,-5.549986242735385
1772527237891531500,1.571531494140625,6.7997431427240365,3.818632990005612,-4.5130721752211445
1772527237901513500,1.581513427734375,4.864299396035075,4.96119558968842,-3.185864955805242
1772527237911495400,1.591495361328125,3.256684751176834,5.957064822369814,-1.7530583040595054
1772527237921478400,1.601478515625,2.085619695109129,6.6450511781841515,-0.6250905583750456
1772527237931460600,1.611460693359375,1.3954022192418574,6.9491019295424215,0.06978358419165015
1772527237941443300,1.621443359375,1.2420412110447883,7.011094567596912,0.33958953612074255
1772527237951425500,1.631425537109375,1.6024124000400304,7.066210305619239,0.2826619994360953
1772527237961407700,1.64140771484375,2.1619489015519617,6.935470879074931,0.17006386732533574
1772527237971390500,1.651390380859375,2.7478485093325373,6.501978339767455,-0.03459215156212449
1772527237981372700,1.66137255859375,3.4948037714660165,5.998658230996131,-0.27034524643756447
1772527237991354400,1.671354248046875,4.282643417173624,5.489952337533235,-0.4223777825098485
1772527238001337600,1.681337646484375,5.035747265064716,5.161889426946639,-0.4519602161511779
1772527238011319600,1.691319580078125,5.7392895019292824,5.074863469922542,-0.33067239896524697
1772527238021301500,1.701301513671875,6.310142347225547,4.86412170138061,0.05194591234717518
1772527238031284500,1.711284423828125,6.679570118379592,4.6379053003311155,0.4824273967377841
1772527238041266400,1.721266357421875,6.883280673110485,4.696878298303485,0.667993807490915
1772527238051249400,1.73124951171875,6.989597021538019,5.218970912083983,1.3113035478413104
1772527238061231400,1.7412314453125,6.898650091677903,4.708925878971815,1.6358710175275801
1772527238071213600,1.751213623046875,6.586839227712154,4.285380733183026,1.4273020629800854
1772527238081196500,1.761196533203125,5.8410436570078135,4.211488983020186,1.0297408879492431
1772527238091178500,1.771178466796875,4.542186918285489,3.919741248396039,0.4347390322372317
1772527238101160400,1.781160400390625,2.7879776906251905,3.5300282295823093,-0.3880647766826674
1772527238111143700,1.791143798828125,1.2367068642795085,3.0368980909138914,-0.5582229712279513
1772527238121125400,1.80112548828125,0.40964170812070366,2.57635680116117,0.049666139980079606
1772527238131107600,1.811107666015625,0.03293663944005966,1.8530933802604674,0.8554944011770188
1772527238141090300,1.82109033203125,-0.04133154281973839,0.7323147423624992,1.2674535924598573
1772527238151072500,1.831072509765625,-0.6404623880952597,-0.5991811141580343,1.462714591014385
1772527238161055500,1.841055419921875,-2.287178040242195,-2.4152397720098495,2.018001033866405
1772527238171037400,1.851037353515625,-4.334354315188527,-4.723419099226594,2.9568630156904456
1772527238181019600,1.86101953125,-5.382284574496746,-7.17542296001017,3.987219916646182
1772527238191002400,1.87100244140625,-4.521820422083139,-8.683868205586075,3.8839129791676994
1772527238200984600,1.880984619140625,-3.2921208062171936,-9.541131516131758,1.6530004315048454
1772527238210966500,1.890966552734375,-4.005098395425081,-11.020514917874335,-1.6005065664187073
1772527238220949500,1.900949462890625,-7.579729152321815,-11.90754091399908,-3.8023262905880806
1772527238230931500,1.910931396484375,-12.817185569167137,-10.66835918403864,-3.838588567319512
1772527238240913400,1.920913330078125,-16.960522222459314,-7.917718998160958,-1.6275383657291531
1772527238250896400,1.930896484375,-18.21459757016897,-5.950105504751205,0.46943416924979536
1772527238260878600,1.940878662109375,-17.208768669009206,-4.8636160899460315,1.453875597129017
1772527238270861300,1.950861328125,-14.462390232229232,-4.491666691359877,1.2244569659721105
1772527238280843500,1.960843505859375,-11.101903745794296,-4.948658764198422,0.13715786048555745
1772527238290825500,1.970825439453125,-8.215121982067823,-5.456617638686299,-1.2743357531890271
1772527238300808400,1.980808349609375,-6.335040057116746,-5.292751603087782,-2.0940603373266757
1772527238310790700,1.990790771484375,-4.888089436945319,-4.417576788276434,-2.1059490741714835
1772527238320772400,2.0007724609375,-2.6938457009881733,-3.216674227827787,-1.757987138763815
1772527238330755600,2.010755615234375,0.23239304385781287,-2.238807100304961,-1.477573429711163
1772527238340737500,2.020737548828125,2.9658453635692594,-1.4313982462525368,-1.2628503364481032
1772527238350719500,2.030719482421875,4.743136776131391,-0.8568804487079381,-0.9865860021598637
1772527238360702500,2.040702392578125,5.197089919665456,-0.14964637158811092,-0.8269359768211841
1772527238370684400,2.050684326171875,4.567068846085667,0.9587889175653457,-0.7312515701103955
1772527238380667400,2.06066748046875,3.318654592877626,2.03550512637496,-0.6572916500821709
1772527238390649600,2.070649658203125,2.177868355217576,2.895021184283495,-0.5738530500255524
1772527238400631600,2.080631591796875,1.8000410045087336,3.5338533408284185,-0.4531457361413166
1772527238410614500,2.090614501953125,2.09654674731493,3.9929298187255857,-0.36207956381570544
1772527238420596500,2.100596435546875,2.6536621591597793,4.237129620233178,-0.11735106225889176
1772527238430578400,2.110578369140625,3.0406881308466196,4.650950075343251,0.49412693115342404
1772527238440561400,2.1205615234375,2.9322002835989,5.279117045488953,1.1868638790283352
1772527238450543400,2.13054345703125,2.695364873379469,5.818689201858639,1.7771182479523122
1772527238460525600,2.140525634765625,3.328751624000072,5.975706394475698,1.7252309704571962
1772527238470508500,2.150508544921875,4.962158297240734,5.679332169094681,1.0623434731293468
1772527238480490500,2.160490478515625,6.659359689521789,5.44283461252749,0.40236207250654693
1772527238490473500,2.170473388671875,7.564086177510022,5.5079170332908625,0.08744335131910629
1772527238500455400,2.180455322265625,7.882236765891313,5.8178813926070925,-0.11883361983369103
1772527238510437400,2.190437255859375,7.822726007780433,6.151631116658449,-0.4268933602381497
1772527238520420600,2.200420654296875,7.477365925434231,6.3938756924450395,-0.9164919637795537
1772527238530402300,2.21040234375,6.90911946324408,6.506228398427367,-1.5551396306030452
1772527238540384500,2.220384521484375,6.4729644267290825,6.5133776856601235,-2.092409793640673
1772527238550367500,2.230367431640625,6.4942597282141445,6.592588000497222,-2.225349945099652
1772527238560349400,2.240349365234375,6.535396625244617,6.7297250191241496,-1.8694903883099554
1772527238570331600,2.25033154296875,6.362606109434366,6.970421196424961,-1.4397304596595466
1772527238580314400,2.260314453125,6.073664664402604,7.156862636446952,-1.0449834652666001
1772527238590296600,2.270296630859375,5.816845035296678,7.214357378560305,-0.900937251773104
1772527238600279600,2.280279541015625,5.6667193557590245,7.144518703180551,-0.9367982542272657
1772527238610261500,2.290261474609375,5.647661019545793,6.95003716456592,-0.9642125500492751
1772527238620243500,2.300243408203125,5.800039446446299,6.361392057469486,-1.0869332130499183
1772527238630226400,2.310226318359375,5.755522843849659,5.554094847097993,-1.1125886094406245
1772527238640208400,2.32020849609375,4.878968557378649,4.478747588554024,-0.6659682199474424
1772527238650190600,2.330190673828125,3.5057816770762202,2.5257950731813907,0.5547238405331969
1772527238660173300,2.34017333984375,2.5126959376335143,-0.7261907065242529,2.2864193308293816
1772527238670155500,2.350155517578125,3.0420155800580977,-4.865194883570075,4.153318533602357
1772527238680137500,2.360137451171875,4.769439092123508,-8.723626800000668,4.772552547968924
1772527238690120400,2.370120361328125,5.357447070360183,-11.711618528926373,3.4265374599695204
1772527238700102700,2.3801025390625,2.4857348654717204,-14.59604233134985,1.3975688957564532
1772527238710085400,2.39008544921875,-4.546618178731203,-15.641260993611812,-0.9783519884303211
1772527238720067600,2.400067626953125,-14.581426946020125,-15.099098236227034,-1.5816086814641952
1772527238730049300,2.41004931640625,-23.627728533828257,-13.80197402038574,0.0493790392675437
1772527238740032500,2.420032470703125,-27.952418948614596,-12.439532990503311,2.2251794108383356
1772527238750014500,2.430014404296875,-26.02716984820366,-10.793501813489199,3.0121047181800007
1772527238759996400,2.439996337890625,-18.31315029885769,-9.165251207837462,3.2297172492742536
1772527238769979400,2.4499794921875,-9.401356550216674,-8.784986400848627,3.6508377982646225
1772527238779961600,2.459961669921875,-5.356023175036907,-8.73900498639643,3.5895120996862646
1772527238789943600,2.469943603515625,-7.960921011027693,-7.727581041708588,2.3106376801542936
1772527238799926500,2.479926513671875,-12.023960138767958,-6.485342262265085,0.6735591865330934
1772527238809908500,2.489908447265625,-12.750110513281822,-4.99733950073719,-0.09796652629859745
1772527238819891500,2.499891357421875,-11.078010829031466,-3.571768353202939,-0.11013831786848605
1772527238829873700,2.509873779296875,-7.7208496876269574,-2.942763178667426,-0.5593482854634523
1772527238839855400,2.51985546875,-3.034915392664075,-2.90733881406486,-1.6192302638500928
1772527238849838600,2.529838623046875,0.7215770752489566,-2.637564426317811,-2.73390269382745
1772527238859820300,2.5398203125,2.4548539895176886,-1.648297952902317,-3.5483018451586363
1772527238869802500,2.549802490234375,3.0213030468970534,-0.33107553640604015,-3.9041464966401453
1772527238879785500,2.559785400390625,3.3086423174291846,1.2183400174617767,-3.7815012369632717
1772527238889767400,2.569767333984375,3.5610675109684466,2.7385084340572354,-3.2234786471456287
1772527238899750400,2.57975048828125,3.6234482715576886,3.9893461150199174,-2.3044825185254214
1772527238909732600,2.589732666015625,3.593233750557899,5.0513113294214005,-1.2555376753471792
1772527238919714600,2.599714599609375,3.586398936101794,6.006411329340934,-0.3969515917651355
1772527238929697500,2.609697509765625,3.8902725773274898,6.751748634883761,0.256386571450904
1772527238939679500,2.619679443359375,4.440115952342748,7.172864507699012,0.68320306706056
1772527238949661400,2.629661376953125,4.865270871415734,7.530291459935903,0.7199757775321602
1772527238959644700,2.639644775390625,5.001372117254138,7.718831918063759,0.5494765875294805
1772527238969626400,2.64962646484375,5.141134223687648,7.708861143669486,0.22539514779448508
1772527238979608600,2.659608642578125,5.166528777185082,7.6890803384006015,-0.1805019669704139
1772527238989591300,2.66959130859375,5.309575312116742,7.551391531109809,-0.7616598601166158
1772527238999573500,2.679573486328125,5.6897162004649635,7.245252283039688,-1.532803734023869
1772527239009556500,2.689556396484375,6.040116615065932,6.9338587677031756,-2.0376547056242824
1772527239019538400,2.699538330078125,6.265976457762718,6.686532358607649,-2.133944165556133
1772527239029520400,2.709520263671875,6.405366223752498,6.505740322649478,-2.015566938587278
1772527239039503600,2.719503662109375,6.325712841323018,6.338669938051701,-1.9293666187323628
1772527239049485600,2.729485595703125,6.100288467434049,6.146366327998042,-1.835275984019041
1772527239059467500,2.739467529296875,5.893268934285641,5.939831363496184,-1.6337141317546366
1772527239069450500,2.749450439453125,5.89112432347238,5.609001910805702,-1.5499381164371966
1772527239079432400,2.759432373046875,5.793778047963976,5.276397265136241,-1.4969431699611246
1772527239089414400,2.769414306640625,5.301338229647278,4.939862294280529,-1.0324462013851852
1772527239099397400,2.7793974609375,4.538181774297357,4.188721270895004,-0.09168006644025445
1772527239109379600,2.789379638671875,3.96421927254796,2.5868068835049867,0.9380337873715907
1772527239119362600,2.799362548828125,3.9395606321096417,0.20151392146945,1.6360126179553567
1772527239129344500,2.809344482421875,4.195679419469833,-2.7662352298945185,1.9074781736597417
1772527239139326500,2.819326416015625,4.2487504999220365,-5.547148973482847,1.949735014630854
1772527239149309400,2.829309326171875,3.3199814575672146,-7.071846265679597,1.927155518554151
1772527239159291400,2.83929150390625,1.214301555725932,-7.794778847190737,2.474273560258746
1772527239169273300,2.8492734375,-1.2892641499906778,-7.876916447651386,3.636597968249023
1772527239179256300,2.85925634765625,-4.0615544421404595,-7.306574474486708,4.834178983059525
1772527239189238500,2.869238525390625,-6.996544064196944,-5.870770686751603,5.908666994425654
1772527239199221200,2.87922119140625,-9.580465163132548,-4.1171407202839845,6.818380038654804
1772527239209203500,2.889203369140625,-11.452976945090294,-2.8490006068646907,7.053597492283583
1772527239219185700,2.899185546875,-12.469229040586947,-2.242160502386093,6.842491566604376
1772527239229168400,2.90916845703125,-12.283795316302776,-2.4389865583002566,6.157649354034662
1772527239239150600,2.919150634765625,-10.799600714886187,-3.1758132251292466,4.500852452856302
1772527239249132300,2.92913232421875,-8.421120939996838,-4.2255192619383335,2.4455334957256913
1772527239259115500,2.939115478515625,-5.629048673534393,-4.831275078311562,0.7135599191404879
1772527239269097500,2.949097412109375,-2.9284961683839557,-5.767476901015639,0.09448482166267931
1772527239279079400,2.959079345703125,-0.38854163694679733,-6.4554293545603745,0.13755984714888037
1772527239289062400,2.9690625,0.9697989718794822,-6.381641649293899,0.05848455686829984
1772527239299044400,2.97904443359375,0.6790384947270155,-5.370776507532597,-0.6877827960662544
1772527239309027300,2.98902734375,-0.8054150498867034,-3.1978643134176727,-1.8632143767803906
1772527239319009500,2.999009521484375,-1.9492787952959536,-0.7603390598416327,-2.8900118316888808
1772527239328991500,3.008991455078125,-1.6707903552174568,-0.6444026501536368,-3.622561551851034
1772527239338974500,3.018974365234375,0.2906166847676039,-1.3316653678685426,-4.322024118186533
1772527239348956700,3.028956787109375,1.508633461624384,-0.16039689818322658,-4.716193824148178
1772527239358938400,3.0389384765625,0.398762586709857,1.1632850697159767,-4.2548239746168255
1772527239368921600,3.048921630859375,-0.498152350744605,2.8061750260949134,-3.8229745263412593
1772527239378903300,3.0589033203125,-0.3794289406865835,4.477396758466959,-3.2147096497565504
1772527239388885500,3.068885498046875,0.2984136222541332,5.9004579690068955,-2.1403128238052127
1772527239398868500,3.078868408203125,1.2606594022750854,6.957257178947329,-0.9618834495145827
1772527239408850400,3.088850341796875,2.1906600322514773,7.32671417619586,-0.3960152607630938
1772527239418833400,3.09883349609375,3.273119168627262,7.2070327347606415,-0.7334131320584565
1772527239428815400,3.1088154296875,4.567136066102981,6.907298093035816,-1.3822241732388734
1772527239438797600,3.118797607421875,5.886828087583184,6.723033997052908,-1.698819056610763
1772527239448780500,3.128780517578125,6.974681776478886,6.861586143174767,-1.4847954899191855
1772527239458762500,3.138762451171875,7.690807600584626,7.089882273107767,-1.0604620432969183
1772527239468744400,3.148744384765625,8.109766003105044,7.2545111097723245,-0.8788848483104258
1772527239478727700,3.158727783203125,8.471513741150497,7.405842657968401,-0.7462051744185387
1772527239488709400,3.16870947265625,8.789992830833793,7.432040344542265,-0.6321667073063552
1772527239498692600,3.178692626953125,8.851627156969904,7.283189507246017,-0.5830468121653423
1772527239508674300,3.18867431640625,8.55045576044023,7.082972055327892,-0.7606491487041115
1772527239518656500,3.198656494140625,7.998722626155614,6.953747709521651,-0.9587649521678686
1772527239528639500,3.208639404296875,7.611335419940948,6.721399673849344,-0.9755893187839537
1772527239538621400,3.218621337890625,7.504485987550019,6.260372646406292,-0.9844039819456636
1772527239548603600,3.228603759765625,7.542198170828819,5.641376824709773,-1.2815296102158724
1772527239558586400,3.23858642578125,7.441193372812867,4.829278936058283,-1.215040756720677
1772527239568568600,3.248568603515625,7.0276301073342555,3.743427234634757,-0.581822969458811
1772527239578550500,3.258550537109375,5.006396667417883,2.9843571718156334,0.0009879150588065384
1772527239588533500,3.268533447265625,1.9808651891708373,2.0442805535048247,-0.7503670433383435
1772527239598515500,3.278515380859375,3.8034476958334444,0.12199205646514892,-3.211629511658847
1772527239608498700,3.288498779296875,10.049745639657974,-2.259524309641123,-1.9596432451829313
1772527239618480400,3.29848046875,16.01357221124768,-6.19456074232459,2.5038515369206666
1772527239628462600,3.308462646484375,16.152875467997788,-8.62792829169929,4.774970715026557
1772527239638445300,3.3184453125,7.841814739131927,-9.275479761272669,4.49866546420604
1772527239648427500,3.328427490234375,-4.6448020741075275,-9.927302332293987,2.933432748003304
1772527239658409500,3.338409423828125,-16.37102722053528,-9.254783010202646,0.5617298468377441
1772527239668392400,3.348392333984375,-25.93423086774349,-8.495278063097595,-0.7550198375802487
1772527239678374700,3.358374755859375,-30.59562927186489,-7.769287263059615,-1.4445884210847317
1772527239688357600,3.368357666015625,-30.25735008769035,-7.3523688419342035,-1.1777838429287075
1772527239698339600,3.378339599609375,-27.677670279586312,-7.125985267624259,0.30650274762026963
1772527239708321500,3.388321533203125,-24.700349582278726,-6.464199520993232,2.0903031767502425
1772527239718304500,3.398304443359375,-22.328474320220945,-6.757944566914439,3.7375568812966344
1772527239728286500,3.408286376953125,-19.72585319699049,-7.556728800484538,4.2518116410583255
1772527239738268400,3.418268310546875,-16.76134989567995,-7.703861143425106,3.582524725016951
1772527239748251400,3.42825146484375,-14.424258362233639,-7.154958848652243,2.8638480473846197
1772527239758233600,3.438233642578125,-12.408151179289817,-6.120466747587919,2.3281977406337857
1772527239768215300,3.44821533203125,-10.01209541569948,-4.87292460103929,2.214436190766841
1772527239778198500,3.458198486328125,-7.395826290866732,-3.8825048659354446,2.049193752248585
1772527239788180500,3.468180419921875,-4.931034844702482,-3.0330875927150247,1.0157184270113706
1772527239798163500,3.47816357421875,-2.9504882199615237,-1.9766367578208446,-0.48573776339478786
1772527239808145400,3.4881455078125,-1.4926473724633453,-0.7459995688438416,-1.6230789021022616
1772527239818127400,3.49812744140625,-0.40134675798416136,0.47838732756674285,-1.9575453961208462
1772527239828110300,3.5081103515625,0.37108839784264563,1.6628642383933065,-1.6772778175406158
1772527239838092500,3.518092529296875,1.3027484854638576,3.0007097562015055,-1.3268670276761054
1772527239848074500,3.528074462890625,2.6439392220467326,4.263312109237909,-0.981945555942878
1772527239858057500,3.538057373046875,4.120447945135831,5.1569291741907595,-0.9079502723403274
1772527239868039400,3.548039306640625,5.3557198081761594,5.810655533006787,-1.3021658632703124
1772527239878022400,3.5580224609375,6.147184074121713,6.347482774582505,-1.6786241175830363
1772527239888004600,3.568004638671875,6.3837915208041665,6.910282077282667,-1.7333147620610891
1772527239897986300,3.577986328125,6.256123172268271,7.557797306498885,-1.5509347262591122
1772527239907969500,3.587969482421875,6.122208622819185,8.143328665488959,-1.290015260618925
1772527239917951500,3.597951416015625,6.167900698935985,8.552036307629942,-1.108329417626187
1772527239927933400,3.607933349609375,6.4488838784396645,8.723111251693963,-0.956358183287084
1772527239937916400,3.61791650390625,7.077423189029097,8.677785086280107,-0.7715033548694104
1772527239947898400,3.6278984375,7.91898214996457,8.531928754624724,-0.6418711589146405
1772527239957880600,3.637880615234375,8.629293150311709,8.314178568625449,-0.7300086573772132
1772527239967863600,3.647863525390625,9.130157098102568,8.079638575866818,-0.926651831005141
1772527239977845500,3.657845458984375,9.300266412004827,7.974207778102159,-0.9135570063062012
1772527239987828500,3.667828369140625,9.007501024770736,7.888850631073117,-0.7469896758597344
1772527239997810400,3.677810546875,8.47055921690464,7.819339872473478,-0.6723878046661615
1772527240007792400,3.68779248046875,7.822099400314689,7.706157145407795,-0.7730799565363675
1772527240017775600,3.697775634765625,7.244347443154454,7.423821382251381,-0.9131842274710535
1772527240027757300,3.70775732421875,7.002185284954309,6.919756592592597,-0.9769400758057832
1772527240037739300,3.7177392578125,7.365185653409362,6.2335021751374,-1.0271985099900514
1772527240047722200,3.72772216796875,7.833031713217497,5.510895756840705,-1.0021244206186384
1772527240057704200,3.7377041015625,7.4590563617616885,4.648652904316783,-0.8010495481535792
1772527240067686400,3.747686279296875,5.737295697763562,3.5918835049927234,-0.4300897451266646
1772527240077669400,3.75766943359375,3.2780122013658284,2.439878538703918,0.021993421550747006
1772527240087651300,3.7676513671875,1.2400216879159212,0.9849375043004751,1.105385619259253
1772527240097634300,3.77763427734375,0.172020700481534,-0.453983538672328,2.7318258875533936
1772527240107616500,3.787616455078125,0.06825403653681278,-1.5879659415364265,3.666864511696994
1772527240117598200,3.79759814453125,-0.2186579484939575,-3.104095311874151,3.4697152151778337
1772527240127581400,3.80758154296875,-1.548557475733757,-4.891106154417991,2.0482782448388637
1772527240137563100,3.817563232421875,-4.721985267031193,-6.028916591137647,0.3164773944720626
1772527240147545300,3.82754541015625,-9.707444944882392,-6.281484992539882,-0.058322863500565286
1772527240157528300,3.8375283203125,-14.246781149911879,-5.9657730294823645,0.8125363531339913
1772527240167510300,3.84751025390625,-16.915796945548056,-5.9513604732483625,1.770484509026259
1772527240177493200,3.8574931640625,-17.21963609998226,-6.474864122870564,2.0795304383233186
1772527240187475200,3.86747509765625,-15.682467448747158,-7.139627424007654,1.6167836013503372
1772527240197457400,3.87745751953125,-13.546166198670864,-7.7417235488295555,1.2166126091472804
1772527240207440400,3.8874404296875,-11.338166324561834,-7.552604998552799,1.1513155227199197
1772527240217422300,3.89742236328125,-8.747062036123872,-6.885469123065471,1.0605613389529287
1772527240227404300,3.907404296875,-5.912906531691551,-6.800829768916964,1.5193376648597419
1772527240237387500,3.917387451171875,-3.5468934396654364,-7.5163617187827825,2.1132452225290237
1772527240247369200,3.927369140625,-1.4333295065760612,-8.050176919060945,1.72325616325289
1772527240257351400,3.937351318359375,0.4567781378269195,-8.355988250350952,0.024737950468936468
1772527240267334100,3.947334228515625,1.3922066380709408,-8.514809862041472,-2.385924245676398
1772527240277316400,3.95731640625,1.6657365789592264,-7.647782113328575,-4.311094727893173
1772527240287299300,3.96729931640625,1.4849310989975928,-5.645031840085983,-4.976285606792569
1772527240297281300,3.97728125,0.48311084895730017,-3.270860576045513,-4.453287860865891
1772527240307263500,3.987263427734375,-1.0223159255802632,-1.4814567008852957,-3.2343966392621395
1772527240317246200,3.99724609375,-2.103756240302324,-0.12972937271893023,-2.1676436060622333
1772527240327228400,4.007228515625,-2.3994758011668917,1.3987486070603132,-1.3911454385802149
1772527240337210400,4.01721044921875,-1.982467948192358,2.997914572525024,-0.746634651876986
1772527240347193300,4.027193359375,-1.24615975227952,4.340509330686927,-0.34821430273354054
1772527240357175300,4.03717529296875,-0.5845552074342966,5.1807624697208405,-0.5473528733737767
1772527240367158500,4.047158447265625,-0.00801087249815464,5.701145941495895,-1.5747823425754903
1772527240377140200,4.05714013671875,0.49361061566174025,6.003764029702544,-2.8878002931192515
1772527240387122400,4.067122314453125,1.0811638358682394,6.261997617259621,-3.7732378510087727
1772527240397105200,4.077105224609375,1.9479004926800727,6.701971335279941,-3.8401241063237186
1772527240407087400,4.08708740234375,3.042572044897079,7.209260932204127,-3.108575087636709
1772527240417069300,4.0970693359375,4.507946210509538,7.6373104036748405,-1.9919871794268487
1772527240427052300,4.10705224609375,6.303448402544856,7.8341539952456944,-0.8646426071420311
1772527240437034500,4.117034423828125,8.188198319306968,7.812488691404462,-0.13469181743189693
1772527240447016200,4.12701611328125,9.472934762740135,7.848604545402527,-0.028014197943918406
1772527240456999400,4.13699951171875,9.39519159784615,7.89822519313991,-0.3234336798833683
1772527240466981400,4.1469814453125,8.151497943419217,7.809586540222168,-0.8038220816068351
1772527240476964400,4.15696435546875,6.604701047617197,7.836200406381487,-1.0591729533344507
1772527240486946300,4.1669462890625,5.367981323856115,7.805805852639675,-0.8157865140363574
1772527240496928300,4.17692822265625,4.830665421980619,7.873691640385985,-0.1940982018528506
1772527240506911200,4.1869111328125,5.019687526145577,8.073532660207151,0.4895940004315227
1772527240516893400,4.1968935546875,5.593508573597669,8.042544816747307,0.9791933346252888
1772527240526875100,4.206875244140625,6.141267543554306,7.70060886363089,1.347170395514369
1772527240536858400,4.2168583984375,6.411067650264501,7.199463176289201,1.5061888449512422
1772527240546840000,4.226840087890625,6.291208514174818,6.546888910117745,1.4038748640328644
1772527240556823300,4.2368232421875,5.864385954150557,5.627236071154475,1.3023897351540625
1772527240566805200,4.24680517578125,5.3739335102587935,4.48011712334156,1.2402230557069183
1772527240576787200,4.256787109375,5.016522924634814,3.3080098647445437,1.0661351935625076
1772527240586770200,4.266770263671875,4.705903900802135,2.274807803490758,0.8751470500215888
1772527240596752400,4.27675244140625,4.418037391525507,1.4036013077884912,0.7692490731365978
1772527240606734300,4.286734375,4.095582968470454,0.33829262817800043,1.0766155249141156
1772527240616717300,4.29671728515625,3.7580829519748686,-0.8252040384620427,2.0666867388412355
1772527240626699300,4.30669921875,3.5937183192044495,-1.9457482830822466,3.4881872759357093
1772527240636682200,4.31668212890625,3.321480171692371,-3.5584804170846938,4.897614221137761
1772527240646664400,4.32666455078125,3.2026205680340527,-5.415705198061466,5.48772355556786
1772527240656646100,4.336646240234375,2.0913760666787624,-7.153743627643585,6.502063095441461
1772527240666629400,4.34662939453125,0.5818120462059975,-7.40905343670845,6.76060998673141
1772527240676611300,4.356611328125,-1.847581338840723,-7.0908671924918885,5.758229764720797
1772527240686593300,4.36659326171875,-5.763510919994116,-7.214211248087882,4.486609992492198
1772527240696576300,4.376576171875,-10.963893451464175,-7.720076365166902,2.4594369333937762
1772527240706558200,4.38655810546875,-15.429762269222735,-6.604876404184103,0.5200868999812752
1772527240716540400,4.39654052734375,-17.5306087595582,-4.575125603552163,-0.2041373287755996
1772527240726523400,4.4065234375,-17.838222756356,-3.3413460248962044,0.2717204437809065
1772527240736505300,4.41650537109375,-17.059334478867054,-2.8630738481417297,0.7750515488702804
1772527240746488300,4.42648828125,-15.639282971537112,-2.3204744529053567,1.160188565005362
1772527240756470300,4.43647021484375,-13.703781357181072,-1.4921937834769488,1.303398766066134
1772527240766452200,4.4464521484375,-11.858923890346288,-0.9254542187184095,0.9674670218005775
1772527240776435500,4.456435546875,-10.35773957568407,-0.968230991910398,-0.1701676930259913
1772527240786417200,4.466417236328125,-9.156927031606434,-1.2221356103524565,-2.163171429084241
1772527240796399400,4.4763994140625,-8.016253022149204,-1.0620876717373728,-4.345974025833606
1772527240806382300,4.48638232421875,-7.015633380070328,-0.9145999394878744,-6.164232824078202
1772527240816364300,4.4963642578125,-6.15550825035274,-0.9572697451740503,-7.273825466573238
1772527240826347300,4.50634716796875,-5.602783182421327,-0.3408583870127797,-7.696776153600215
1772527240836329200,4.5163291015625,-5.293117513790726,0.823704155293107,-7.503856457474828
1772527240846311400,4.5263115234375,-4.86843021222949,1.7916043078139423,-6.644860039526224
1772527240856294400,4.53629443359375,-4.344882138943672,2.454797290894389,-5.151354588928818
1772527240866276400,4.5462763671875,-3.441764255195856,3.2673104823485013,-3.4392069719284772
1772527240876258300,4.55625830078125,-2.1168612210690974,4.404336782953143,-2.045190069565177
1772527240886241300,4.5662412109375,-0.7689835540682077,5.407431290712952,-0.9919009135723114
1772527240896223200,4.57622314453125,0.5777355905473232,6.102223819410801,-0.12258914557546377
1772527240906206500,4.58620654296875,1.9372721311599015,6.649842504113912,0.5243154043965041
1772527240916188200,4.596188232421875,3.2878292465031147,7.011860291272401,0.7484595292165875
1772527240926170400,4.60617041015625,4.578797862324119,7.062324988618492,0.5748382616706192
1772527240936153300,4.6161533203125,5.67586595428884,7.221074704116583,0.028820070966705677
1772527240946135300,4.62613525390625,6.486214368924498,7.373247963833808,-0.5555824301239103
1772527240956117500,4.636117431640625,6.997026294755935,7.5376178573012345,-0.9968173271864652
1772527240966100200,4.646100341796875,7.180633972656726,7.572116339230537,-1.3168095979116856
1772527240976082400,4.65608251953125,7.094671845471859,7.467090030613541,-1.5408606376208365
1772527240986064100,4.666064208984375,6.816835147300362,7.318498721036314,-1.7656766703531146
1772527240996047400,4.67604736328125,6.457184673795104,7.096566865438223,-2.0234252508722244
1772527241006029300,4.686029296875,6.022502047920226,6.938879810735583,-2.187822324607521
1772527241016012300,4.69601220703125,5.5143502812087535,6.786735777112841,-2.176166081344336
1772527241025994200,4.705994140625,5.01444144218564,6.795647397843003,-2.164295610808581
1772527241035976200,4.71597607421875,4.462556916731596,6.997310956916213,-2.4233424144446847
1772527241045959000,4.725958984375,4.014651821190118,7.084643787932396,-2.5414327872961757
1772527241055941000,4.735941162109375,3.8200183068841693,6.664569533124566,-2.0826326421223578
1772527241065923000,4.745923095703125,3.997199751129746,5.431665568259358,-0.838951554916054
1772527241075906000,4.755906005859375,4.432807675155997,4.078908312523365,0.7273575583465397
1772527241085888300,4.76588818359375,4.978675716799497,2.9813270103394984,2.1938198114566503
1772527241095871000,4.77587109375,5.5654363253235815,1.5919272463828325,3.5332787558108567
1772527241105853200,4.785853271484375,6.29441461673975,-1.164410858875513,4.5369367426723235
1772527241115835000,4.7958349609375,6.530446309360862,-4.494202931839228,4.214978286440671
1772527241125818000,4.805818115234375,5.994159166011214,-6.158750593274831,1.6132881604500113
1772527241135800000,4.815800048828125,4.388084151810407,-6.087650519657134,-2.2909956988342106
1772527241145782000,4.825781982421875,1.5432932715952397,-7.018056807824969,-4.495053703449666
1772527241155765000,4.835764892578125,-2.63859143127799,-8.71828719253838,-4.1639384195551274
1772527241165747200,4.845747314453125,-7.1348308373808855,-9.687142746087908,-3.0626302058026194
1772527241175730000,4.85572998046875,-10.092186605024336,-9.49213455325067,-2.233066072434932
1772527241185712000,4.865712158203125,-11.690106954342125,-9.060695439341664,-0.7514292657423765
1772527241195694000,4.875694091796875,-11.26329257762432,-8.377170739111303,0.9359103654768317
1772527241205677000,4.885677001953125,-8.649920927798748,-7.83638219268918,2.516228495673835
1772527241215659300,4.8956591796875,-4.245189592570066,-7.760302577093243,4.0741020812854165
1772527241225641000,4.905640869140625,0.4354845899075269,-8.037028099152446,5.120520474725962
1772527241235624200,4.915624267578125,3.2372710256546733,-7.36309949478507,4.600039680056273
1772527241245606000,4.92560595703125,2.9858313360214233,-5.433294630765914,3.000826076057553
1772527241255588000,4.935588134765625,0.799897163248062,-3.81522347382307,1.7772738769054413
1772527241265571000,4.945571044921875,-1.7238234417468308,-2.690653626948595,0.9806352039966731
1772527241275553000,4.955552978515625,-4.244910775628686,-1.4602186825454235,0.0018377642206382006
1772527241285536000,4.965535888671875,-6.1553708877086635,-0.3785077341884374,-0.4446927824314683
1772527241295518200,4.975518310546875,-6.635232964003086,0.30787995425760745,-0.24796246024305
1772527241305500000,4.9855,-6.1345490489542485,1.4251409394234418,-0.319886070404388
1772527241315483100,4.995483154296875,-5.209263757061958,2.201152784693241,-0.058042566988151516
1772527241325465000,5.005465087890625,-3.908728271472454,2.415218144699931,0.8249442184820771
1772527241335447000,5.015447021484375,-2.3377017742991444,2.656054022732377,1.673103162204474
1772527241345430000,5.025429931640625,-0.9037737173080443,3.2243460776299235,1.951839731825143
1772527241355412000,5.035411865234375,0.17530395993590353,3.723050217038393,1.6100427487879991
1772527241365395000,5.04539501953125,0.8782838867425918,3.8585418065458534,0.8886539626527578
1772527241375377200,5.055377197265625,1.4046744899779557,4.249040422779322,0.20114519775491208
1772527241385359000,5.065359130859375,1.9366946235328912,4.820953006261587,-0.1840769576466642
1772527241395342000,5.075342041015625,2.4637591805070636,5.231753821289539,-0.44309243456274267
1772527241405324000,5.085323974609375,3.1209277887314557,5.686344678205251,-0.7546112567793577
1772527241415306000,5.095305908203125,3.806391348069906,6.1697974724680185,-0.9912827086087316
1772527241425289200,5.105289306640625,4.402338302612304,6.533833613711595,-1.0775505407419055
1772527241435271000,5.11527099609375,4.863336688482761,6.748938838160037,-1.0336134915988893
1772527241445254100,5.125254150390625,5.2054567659944295,6.701225485348701,-0.9528987635482102
1772527241455235800,5.13523583984375,5.6341264151901,6.691656277492642,-1.283349957510829
1772527241465218000,5.145218017578125,5.970986964738368,6.791163530427217,-1.5373470765419304
1772527241475201000,5.155200927734375,6.060567282420396,7.071264666399359,-1.444006967934966
1772527241485183000,5.165182861328125,5.8583192014575,7.6320625661492345,-1.3507152285143733
1772527241495165200,5.175165283203125,5.4231859092056744,8.017916571447254,-1.1685299846321344
1772527241505148200,5.185148193359375,4.916833885392546,8.011425455862284,-0.9440694142740219
1772527241515130000,5.195130126953125,4.4928035864353175,7.683624411082267,-0.7223576311673968
1772527241525112000,5.205112060546875,4.125612196031213,7.1477587080150835,-0.4625855819966644
1772527241535095000,5.215094970703125,3.770074418541789,6.419992130476236,-0.35348636138495054
1772527241545077000,5.225076904296875,3.525568327564001,5.529383599689602,-0.1984173436935991
1772527241555060200,5.235060302734375,3.650129942256212,4.219528497090935,0.26833818093147127
1772527241565042000,5.2450419921875,4.068941045260429,2.4519886632144448,0.8279813942208886
1772527241575024000,5.255024169921875,4.144396391478181,0.23352234014868734,1.3755942337051033
1772527241585006800,5.2650068359375,2.854027495115995,-2.7702754451960323,1.3862617581918835
1772527241594989000,5.274989013671875,0.4535235199451446,-6.169996794432401,-0.3253561358459294
1772527241604971300,5.28497119140625,-1.5100877520859242,-7.581925201061368,-3.0199717982932923
1772527241614954000,5.2949541015625,-4.142580281966924,-5.7407958148390055,-4.064050058348476
1772527241624936200,5.304936279296875,-8.352088320302963,-3.952850321793556,-2.2791452481731773
1772527241634919200,5.314919189453125,-12.682918553018569,-4.189873363539577,2.749407136951387
1772527241644901000,5.324901123046875,-14.515140994685888,-5.691597776427865,7.702226235699653
1772527241654883000,5.334883056640625,-12.537244007670878,-7.129545005932449,8.990985358777642
1772527241664866000,5.344865966796875,-7.460735693150759,-8.163737247267365,5.7294788865327835
1772527241674848000,5.354847900390625,-2.447488429185748,-9.913944838070869,0.7694798862177878
1772527241684830000,5.364829833984375,1.2038637483417987,-11.531041012501715,-3.2793291291832922
1772527241694813000,5.37481298828125,2.999213380163908,-12.1584212161839,-5.153419704765081
1772527241704795100,5.384795166015625,2.8958032745718953,-12.601052755236624,-4.426761965250969
1772527241714777000,5.394777099609375,0.9078151016533375,-12.544300355923175,-1.4496983114443718
1772527241724760000,5.404760009765625,-1.3712497747600079,-11.267000784492492,0.920180954490602
1772527241734742300,5.4147421875,-2.264915939551592,-8.837270130315423,1.9225196754470466
1772527241744725000,5.42472509765625,-1.4334832358330487,-5.983251403027772,2.5932737414315343
1772527241754707200,5.434707275390625,-0.49170448977947234,-3.818129716658592,1.7629029678560793
1772527241764689000,5.44468896484375,-0.7230617608487606,-2.937848518618941,-1.224454700949788
1772527241774672100,5.454672119140625,-1.4918179359018802,-2.9622341873347757,-4.1225832035988565
1772527241784654000,5.464654052734375,-2.1128286045521496,-3.1269875271618366,-5.636636352184414
1772527241794636000,5.474635986328125,-2.390411035701632,-2.6033213804543016,-6.099902682986855
1772527241804619000,5.484618896484375,-2.3935493337273597,-1.1153642116338014,-5.752618939101696
1772527241814601000,5.49460107421875,-2.239395129325986,1.1542442696481943,-5.427500265273451
1772527241824584000,5.504583984375,-1.9026900626003742,3.4054338816642757,-4.7359392658427355
1772527241834566100,5.514566162109375,-1.224969664734602,5.173313322758674,-3.292494900226593
1772527241844548000,5.524548095703125,-0.2447007367670536,6.213455996930599,-1.393771110908687
1772527241854531000,5.534531005859375,0.7376771461784839,6.955472049096226,0.2825331671583466
1772527241864513300,5.54451318359375,1.4682389073938131,8.00956726077497,0.8690576471053063
1772527241874495000,5.554494873046875,2.0984984659045933,8.881037375849484,1.0271674572646616
1772527241884478200,5.564478271484375,2.744221551007032,9.233004893636704,1.257948389750719
1772527241894460000,5.5744599609375,3.3742180746674535,9.295410788667201,1.2141304369427264
1772527241904443100,5.584443115234375,3.8449277072131633,9.077238577863573,0.8587005768071859
1772527241914425000,5.594425048828125,4.146031299203634,8.539157536834479,0.3234863233860582
1772527241924407000,5.604406982421875,4.377742790538072,7.921756875374912,-0.24224048413336274
1772527241934390000,5.61439013671875,4.550134662419557,7.46201871869862,-0.5256552746981382
1772527241944372200,5.624372314453125,4.714290620875358,7.291664490124583,-0.685336571957916
1772527241954354000,5.63435400390625,4.884262572133541,7.260788290345668,-0.8915181929774582
1772527241964337200,5.644337158203125,5.077037306830286,7.1811746554046865,-1.09918786059767
1772527241974319000,5.654319091796875,5.238711385342478,7.029027699172496,-1.2083223351858556
1772527241984301000,5.664301025390625,5.446671998733282,6.958332699224353,-1.069633264811337
1772527241994284000,5.674283935546875,5.793427334830165,6.719850106319785,-0.5265630371928215
1772527242004266000,5.684265869140625,6.196504862129688,5.968102349212765,0.2306067266966216
1772527242014249000,5.6942490234375,6.3227078142881386,4.965422851994633,0.6231487035922706
1772527242024231000,5.70423095703125,6.030324119848013,4.117241258049011,0.6007598347168416
1772527242034213600,5.714213623046875,5.5427171285152435,3.1409950097262858,0.7303517717264593
1772527242044196400,5.7241962890625,4.90041525003314,1.681597580435872,1.0819657999008894
1772527242054178600,5.734178466796875,3.948249549999833,-0.08932488161623478,1.4751391883015632
1772527242064160500,5.744160400390625,2.7418320255219935,-1.8860680136233567,1.7239041057676077
1772527242074143500,5.7541435546875,1.3612813384532927,-3.750833126977086,1.4949129793077707
1772527242084125400,5.76412548828125,0.020908932515978813,-5.581656807762384,0.24114092539362608
1772527242094108700,5.774108642578125,-1.4222183299750089,-7.169739653676748,-1.6673931139945983
1772527242104090400,5.78409033203125,-3.2361510817140338,-8.467957509973644,-3.3376886714324354
1772527242114072600,5.794072509765625,-5.4855415353536605,-9.489871869015692,-3.9894910764485596
1772527242124055300,5.80405517578125,-7.665580804869532,-9.905247152352333,-3.84140888543725
1772527242134037500,5.81403759765625,-9.323972866284846,-9.438137005603313,-3.06033537286371
1772527242144019500,5.82401953125,-10.350449418675899,-8.512339088013768,-2.1474542199924587
1772527242154002400,5.83400244140625,-10.9557533996284,-7.150363337555527,-1.012483682873845
1772527242163984600,5.843984619140625,-11.334096883165836,-6.200889360824227,0.7923297967337072
1772527242173966300,5.85396630859375,-11.126038654619455,-6.332168885594606,2.8989906724363563
1772527242183949600,5.863949462890625,-9.646395725157856,-6.866179316183924,4.198142886973917
1772527242193931500,5.873931640625,-6.474973428463936,-6.817833510687947,3.9287949079453943
1772527242203914500,5.88391455078125,-2.8776982935607434,-6.469616285344958,2.9514637869954106
1772527242213896400,5.893896484375,-0.3626584231495857,-6.400995169061422,2.142576677083969
1772527242223878400,5.90387841796875,0.36747488352060315,-6.043913669261336,1.1186519280675797
1772527242233861400,5.913861328125,-0.5015723883211612,-4.863702599185705,-0.28809951431490477
1772527242243843600,5.923843505859375,-1.7939549625933169,-3.34899127895236,-1.1976638707883656
1772527242253825500,5.933825439453125,-2.6712393169045447,-1.9594500606983898,-1.2947874434567987
1772527242263808500,5.94380859375,-2.9133436074376107,-0.8557295251071453,-0.9776486624665558
1772527242273790500,5.95379052734375,-2.8371640385985373,0.1878279259443283,-0.9409322122268379
1772527242283773400,5.9637734375,-2.6432220136880873,0.842410024806857,-1.0559020419050007
1772527242293755600,5.973755615234375,-2.2449685455441473,1.2429518961489199,-1.2795077489994466
1772527242303737300,5.9837373046875,-1.601758320045471,1.744179416555166,-1.5328043185457587
1772527242313720600,5.993720458984375,-0.7042693820953368,2.2803847268402575,-1.79893348165825
1772527242323702500,6.00370263671875,0.33569852003157136,2.719978505632281,-2.169556161685288
1772527242333684500,6.0136845703125,1.2812398334890602,3.225094850170612,-2.6087033657535907
1772527242343667500,6.02366748046875,2.0950316665768622,3.801065184611082,-3.0010297819361087
1772527242353649400,6.0336494140625,2.779888492193818,4.288817721894383,-3.3164781256213782
1772527242363632400,6.04363232421875,3.2605881883561607,4.6168823860466475,-3.4603479596346616
1772527242373614600,6.053614501953125,3.48541693443954,4.860381345808506,-3.2871453558921813
1772527242383596500,6.063596435546875,3.5873417699098584,5.066911634135246,-2.739861309970915
1772527242393579500,6.07357958984375,3.7096482991516586,5.284205893060565,-2.0192234152682125
1772527242403561500,6.0835615234375,3.871401288118958,5.4702364141941064,-1.3510454833820462
1772527242413543400,6.09354345703125,4.096992835268378,5.753014075899124,-0.8254271796934306
1772527242423526400,6.1035263671875,4.279751787385345,6.151197985938191,-0.4361795499017462
1772527242433508400,6.11350830078125,4.40352195943892,6.539770602545142,-0.07636457001715898
1772527242443490600,6.123490478515625,4.562395593577623,6.773818427872658,0.2198737905571237
1772527242453473500,6.1334736328125,4.8000657010555265,6.852410903072356,0.42863976551406086
1772527242463455500,6.14345556640625,4.993656428310275,6.733499861487746,0.5418314796037972
1772527242473438500,6.1534384765625,4.880807463243603,6.326634632343054,0.5534389518218115
1772527242483420400,6.16342041015625,4.292451109960675,5.686940890532732,0.49516325193122024
1772527242493402400,6.17340234375,3.4242502258151766,5.237503178596496,0.4143692480992526
1772527242503385600,6.183385498046875,2.6002760214090346,5.137608387649059,0.453770407378301
1772527242513367300,6.1933671875,1.9686673863768576,4.926894676157832,0.7251138710729778
1772527242523349500,6.203349609375,1.8137801915258167,4.17740843424201,1.098809748000279
1772527242533332500,6.21333251953125,1.8889122971385717,2.778547598978877,1.616626218831539
1772527242543314400,6.223314453125,1.6744605681627989,0.6836258225172758,2.383100420427322
1772527242553297400,6.23329736328125,0.830845259219408,-1.7767361167669296,3.5221398144200444
1772527242563279400,6.243279296875,-0.378543974545598,-3.9677246503204104,5.05351380790174
1772527242573261600,6.253261474609375,-1.4530097740799188,-5.457406743237376,6.3294187101036306
1772527242583244500,6.26324462890625,-1.6506506535083054,-6.482356524452567,6.495754935207962
1772527242593226500,6.2732265625,-1.3396341547906399,-7.004993912634253,5.750212462481856
1772527242603208400,6.28320849609375,-1.4612813433408736,-7.138800910055637,4.987267604056
1772527242613191400,6.29319140625,-2.705744813096523,-7.375587220436334,4.6376071941673755
1772527242623173400,6.30317333984375,-4.4835126109987495,-7.68841281440258,4.39873852455467
1772527242633155600,6.313155517578125,-5.644960528415441,-8.158347955444455,4.103666906204819
1772527242643138300,6.32313818359375,-5.808885600724816,-8.895119092693925,3.422205568245053
1772527242653120500,6.33312060546875,-4.992089909645915,-9.84038626538515,2.2339022309981287
1772527242663103500,6.343103515625,-3.8486587104350325,-10.376820708251,0.9914441097155213
1772527242673085400,6.35308544921875,-2.7990444435626265,-10.060486813902854,-0.14632873494010418
1772527242683067600,6.363067626953125,-2.0017174230635164,-9.179602973794937,-1.0339053141523151
1772527242693050400,6.37305029296875,-1.4449959789723157,-7.869097882854938,-1.6614917809963226
1772527242703032600,6.383032470703125,-0.8540572079807519,-5.991395546516776,-1.9373337982192635
1772527242713014300,6.39301416015625,-0.14510580554902552,-3.8315345571547743,-1.9449255685225129
1772527242722997500,6.40299755859375,0.8196300377219915,-1.749981965354085,-1.8490045035116374
1772527242732979500,6.4129794921875,1.9605022000998258,0.2787210797905922,-1.7293962734431028
1772527242742962400,6.42296240234375,2.8942811795711516,2.0315181025654074,-1.5467010342121124
1772527242752944400,6.4329443359375,3.2286054886400697,3.1176398531019687,-1.4840397031158208
1772527242762926600,6.442926513671875,2.9440041186392305,3.7765029902845617,-1.6408261557169257
1772527242772909300,6.452909423828125,2.317352229231596,4.368653475153446,-1.8361136038869619
1772527242782891500,6.4628916015625,1.530690395131707,4.818587446174026,-2.016324478956312
1772527242792873500,6.47287353515625,0.7016963167369366,5.022385094666481,-2.1997309351965786
1772527242802856400,6.4828564453125,0.05704816738963127,5.272644050082564,-2.3240730619192123
1772527242812838700,6.492838623046875,-0.4414864606708288,5.257408487027884,-2.208178445546329
1772527242822820400,6.5028203125,-0.5610965904355049,5.108100553613901,-1.9357323543719946
1772527242832803600,6.512803466796875,-0.3367863152682781,4.9426995635330675,-1.5948694373145698
1772527242842785300,6.522785400390625,0.1327495973229408,4.917437111982703,-1.2624633829571306
1772527242852768500,6.5327685546875,0.7121697799563408,4.98161761547029,-0.970646601684764
1772527242862750500,6.54275048828125,1.5326029507547616,5.095722718077898,-0.6887171543069184
1772527242872732400,6.552732421875,2.4920792660623787,5.274594015106558,-0.5193311862431467
1772527242882715400,6.56271533203125,3.416282607936859,5.503535457205772,-0.4000340679503977
1772527242892697600,6.572697509765625,4.055398257598281,5.703027517458796,-0.2564619382420555
1772527242902679600,6.582679443359375,4.379399325573444,5.824418100899457,-0.21701094847191124
1772527242912662500,6.59266259765625,4.515390681296587,5.927240177470445,-0.21846695596650242
1772527242922644500,6.60264453125,4.535150443777442,6.107523679384589,-0.24576029228996485
1772527242932627500,6.61262744140625,4.597106841474771,6.374794559878111,-0.27773860809188333
1772527242942609700,6.622609619140625,4.770194878926873,6.498506279742718,-0.34021658197790383
1772527242952591400,6.63259130859375,4.94776736831665,6.432562858235836,-0.40048466126210985
1772527242962574600,6.64257470703125,5.0632916900724165,6.246461025431752,-0.4451088158864528
1772527242972556500,6.652556640625,4.987799518975615,5.909890983262658,-0.24628860874669625
1772527242982538500,6.66253857421875,4.684790385624766,5.36670531257093,0.2775909067168832
1772527242992521500,6.672521484375,4.218789661422371,4.361212511497736,1.0078605531178415
1772527243002503400,6.68250341796875,3.8226960016608236,2.6982377984672783,1.740672431347519
1772527243012485600,6.692485595703125,3.6397763060241934,0.15137421829402445,2.1664161100938917
1772527243022468600,6.702468505859375,3.395370168289542,-3.0161393805235623,2.0605748318322004
1772527243032450300,6.7124501953125,2.7169752321630716,-6.337039121979474,2.051125158702582
1772527243042433300,6.722433349609375,1.6193091743052004,-8.520813486370443,2.47632669339627
1772527243052415500,6.73241552734375,0.406267263251543,-8.50019447671175,3.175896227237582
1772527243062397200,6.742397216796875,-0.6482376982718706,-6.9805503762513395,3.98617099211514
1772527243072380400,6.75238037109375,-1.8863819018781185,-5.3382993022978305,4.8042470783933995
1772527243082362400,6.7623623046875,-3.4099142419487234,-4.6891491653561586,5.74405043272078
1772527243092344300,6.77234423828125,-4.576088603365421,-5.245749613416194,6.473463023900985
1772527243102327300,6.782327392578125,-4.872628832963109,-6.29387276494801,6.140156367442011
1772527243112309200,6.792309326171875,-4.528133843013644,-7.1921502229273315,4.404073748102784
1772527243122292200,6.802292236328125,-4.410964676660299,-7.944930245691538,1.982945502576232
1772527243132274400,6.8122744140625,-4.924593413478136,-8.43695037729144,0.023834583304869008
1772527243142256400,6.82225634765625,-5.5979901029258965,-8.681963833269476,-0.7616270538255572
1772527243152239400,6.8322392578125,-6.0523775462239975,-8.317785653206705,-0.5885648814670741
1772527243162221300,6.84222119140625,-6.341392641013861,-7.032932305395603,0.09245912452135234
1772527243172203300,6.852203369140625,-6.222730021232366,-5.09456244212687,0.6305932474445551
1772527243182186200,6.862186279296875,-5.704314634659886,-2.9600656111240387,0.8192430111657828
1772527243192168200,6.872168212890625,-4.864021163615584,-1.0817354982763527,0.5855719101961702
1772527243202150400,6.882150390625,-3.549861641821265,0.3131190239548683,-0.07790666662631555
1772527243212133400,6.89213330078125,-1.8884394189298153,1.0574749172449112,-1.0869723760165273
1772527243222115300,6.902115234375,-0.37991409385502334,1.1483002665519713,-2.282540881960839
1772527243232098300,6.912098388671875,0.8987439064472913,1.2137275552302598,-3.516293718740344
1772527243242080300,6.922080322265625,1.672598865944147,1.3832915102094412,-4.47468077750653
1772527243252062200,6.932062255859375,1.611191918823123,1.474855695185065,-5.0923932813942425
1772527243262045400,6.94204541015625,0.9452303478121757,1.6374346135824918,-5.275943091627955
1772527243272027100,6.952027099609375,0.2158908218681812,2.07929575278461,-4.976733935081959
1772527243282009300,6.96200927734375,-0.4426321235746145,2.6598288650959727,-4.232575902451575
1772527243291992300,6.971992431640625,-0.9839075767308473,3.1261294490277765,-3.164101744547486
1772527243301974300,6.981974365234375,-1.2414455832391977,3.3268484207272526,-2.0003383897952736
1772527243311957200,6.991957275390625,-1.1910445987790823,3.474056751513481,-0.9295457258157431
1772527243321939200,7.001939208984375,-0.7968219935864209,3.817467453357577,-0.1741403960492462
1772527243331921400,7.01192138671875,-0.11734218483269214,4.2918584047645325,0.3314846286635846
1772527243341904400,7.021904296875,0.6497697301447392,4.585265597033501,0.6421519486173987
1772527243351886300,7.03188623046875,1.3930407508075235,4.533247825026512,0.6432400361150503
1772527243361868300,7.041868408203125,2.118005130407214,4.403832925084233,0.42167080328427253
1772527243371851300,7.051851318359375,2.7907155911564825,4.452337720534205,0.05215036714440211
1772527243381833200,7.061833251953125,3.4312463683128356,4.549505716866254,-0.3349087578933686
1772527243391815400,7.0718154296875,4.016212494635582,4.5932361375212665,-0.6592832622908056
1772527243401798100,7.081798095703125,4.523932884192466,4.648233802121878,-0.9458550555817782
1772527243411780400,7.0917802734375,4.888286420822143,4.764360765945911,-1.233699206896126
1772527243421763300,7.101763427734375,5.048559984886646,4.857868486204743,-1.4826194610543548
1772527243431745300,7.111745361328125,5.012831084379553,4.90890133882761,-1.6648269167684018
1772527243441727500,7.1217275390625,4.843714288645982,5.055168589371442,-1.750335162705928
1772527243451710200,7.131710205078125,4.68275040422976,5.316081625270844,-1.768783550327271
1772527243461692400,7.1416923828125,4.627708900487423,5.550114253029227,-1.6076087996393442
1772527243471674000,7.151674072265625,4.60908252595067,5.521854957750439,-1.2992789096571504
1772527243481657300,7.1616572265625,4.503977306878567,4.976691849505901,-0.9950083050031214
1772527243491639300,7.171639404296875,4.257029667967558,3.921872999727726,-0.7143725506976246
1772527243501622300,7.181622314453125,3.8605145679235457,2.5687369738072157,-0.4244999622955918
1772527243511604200,7.191604248046875,3.3502906711131333,1.0639736316144466,0.021988909772410987
1772527243521586400,7.20158642578125,2.7943916493207213,-0.7934995711654425,0.5223628820892423
1772527243531569200,7.211569091796875,2.202409506756067,-3.2825439995765686,1.015359895897284
1772527243541551400,7.22155126953125,1.2302034737348555,-6.01415916698873,1.8177398889370262
1772527243551533300,7.231533203125,-0.6475444553107023,-7.729924974486232,2.9638632498413324
1772527243561516300,7.241516357421875,-3.664641867211461,-7.5984747693240635,3.9520302375823255
1772527243571498500,7.25149853515625,-6.898420374575257,-6.456853834405541,4.02260336471647
1772527243581480200,7.261480224609375,-9.391906000304221,-5.9254679071009155,3.3259403659716247
1772527243591463400,7.27146337890625,-10.471157865071296,-6.568962794759869,2.188768811677396
1772527243601445000,7.281445068359375,-10.17340241446495,-7.971330176839232,0.9178838565293699
1772527243611428400,7.291428466796875,-9.151039142611623,-9.326327320456505,-0.24413148551173508
1772527243621410300,7.301410400390625,-7.759305967271327,-10.18884548279047,-1.0863098204545676
1772527243631392300,7.311392333984375,-6.245262171036004,-10.10823991420269,-1.1821737484507262
1772527243641375200,7.321375244140625,-4.9091830783784385,-9.07946677530706,-0.24732122146375476
1772527243651357400,7.331357421875,-3.954727806103229,-7.442980840751528,1.4039990749344229
1772527243661339400,7.34133935546875,-3.2542250830650326,-5.698759338620305,2.9663863385781646
1772527243671322400,7.351322265625,-2.632349906539917,-4.004525563973188,3.6689173525735734
1772527243681304300,7.36130419921875,-1.9510966583728788,-1.967210173305869,3.5743203757733104
1772527243691287300,7.371287353515625,-1.2810878577977418,-0.026591654327511784,3.2771801344558593
1772527243701269500,7.38126953125,-0.7371925775319338,1.1319944439172744,2.8004432044446466
1772527243711251200,7.391251220703125,-0.2704763985365629,1.3338678463488816,1.9001563063390552
1772527243721234400,7.401234375,0.20270517708063124,0.8700701851487159,0.36090953365564343
1772527243731216100,7.411216064453125,0.8180740404516458,0.20593933669626713,-1.64801270622015
1772527243741198300,7.4211982421875,1.4226941307932137,-0.05726736309826374,-3.5067730262011287
1772527243751181300,7.431181396484375,1.9879343969047067,0.3051408846825361,-4.735575985488295
1772527243761163300,7.441163330078125,2.579325587838888,1.1157213545084,-5.143812502986193
1772527243771145200,7.451145263671875,3.096351565879583,2.0961732378274203,-4.680184937655926
1772527243781128400,7.46112841796875,3.479537813273072,3.0129771171003576,-3.629219256174564
1772527243791110400,7.4711103515625,3.5433985832870003,3.889522051221132,-2.3427187256783246
1772527243801093400,7.48109326171875,3.242974205732345,4.539287105190754,-1.078432072816789
1772527243811075300,7.491075439453125,2.756152227297425,4.879888594833016,0.08098116043452173
1772527243821057300,7.501057373046875,2.269628939548135,5.050467279812693,1.0650900684237479
1772527243831040300,7.511040283203125,1.9013883323520422,5.150915612989664,1.6191636283546684
1772527243841022200,7.521022216796875,1.868782532301545,5.227937477871776,1.5408267353512346
1772527243851004400,7.53100439453125,2.2172423342287537,5.068574598911404,0.9064612028263509
1772527243860987400,7.5409873046875,2.6502918059438465,4.445394769528508,-0.011886718417657538
1772527243870969300,7.55096923828125,2.986840220803022,3.7453614175677297,-0.927265213663131
1772527243880951300,7.560951416015625,3.2603146321117875,3.387755017110705,-1.606476142347604
1772527243890934300,7.570934326171875,3.4448499462515114,3.3161317964017387,-1.9060661149047313
1772527243900916200,7.580916259765625,3.4865398009896276,3.3218227015197277,-1.8154837805733084
1772527243910899500,7.5908994140625,3.4634435875624416,3.4028315902113913,-1.247071898688376
1772527243920881200,7.600881103515625,3.4285336022228,3.392406642308831,-0.5230489281246439
1772527243930863400,7.61086328125,3.2891385755360125,3.160800949436426,0.03333972664850298
1772527243940846000,7.62084619140625,2.973949175047874,2.7748464063733813,0.2809514509248547
1772527243950828300,7.630828369140625,2.655188930335641,2.472915715909004,0.09925777168553322
1772527243960810500,7.640810546875,2.591622174832225,2.2415631210148335,-0.3997975923134014
1772527243970793200,7.650793212890625,2.78577871927619,1.9164625673651694,-0.9036373045120387
1772527243980775400,7.660775390625,2.9645459714084863,1.599610202100873,-1.1381479250457138
1772527243990758400,7.67075830078125,2.782204367920756,1.3399474585235118,-0.9403430141620337
1772527244000740400,7.680740234375,2.1642472416222094,1.323990010935068,-0.22031528724692762
1772527244010722300,7.690722412109375,1.0870938104391097,1.5405162080973387,0.8896648201957345
1772527244020705300,7.700705322265625,0.1389583888351917,1.6732599602013825,2.3348189123392102
1772527244030687200,7.710687255859375,-0.17049392930567264,0.950395767751336,3.6677816265419123
1772527244040669000,7.7206689453125,0.20940087532699106,-0.9786410345047711,4.4135602461114525
1772527244050652000,7.73065185546875,0.9827005390286445,-3.1999621624797583,3.8214372337713836
1772527244060634000,7.740634033203125,1.8119208273947238,-4.5524891165912145,1.300341716583073
1772527244070616000,7.750615966796875,2.0731822383403777,-4.764761163440347,-1.5117013247624038
1772527244080599000,7.76059912109375,1.7798884433180093,-4.5764930925130844,-2.7119866300955415
1772527244090581000,7.7705810546875,1.0121493363529444,-4.608730059251189,-1.9838710929885506
1772527244100564000,7.78056396484375,-0.315105813857913,-4.690477783611416,-0.1466586427479051
1772527244110546200,7.790546142578125,-1.5088170014977453,-4.474812002670765,1.7841108833186328
1772527244120528000,7.80052783203125,-2.3666595732361078,-4.027887150338292,3.002078121945262
1772527244130511000,7.810510986328125,-3.037603024312854,-3.5204327182412145,3.3989801754802462
1772527244140493000,7.8204931640625,-3.778205118027329,-2.9679817910760637,3.308250103241205
1772527244150475000,7.83047509765625,-5.012733469223976,-2.4435803158313036,2.887400187885761
1772527244160458000,7.8404580078125,-6.5482122676759955,-1.9358190097421406,2.1921289357602594
1772527244170440000,7.85043994140625,-7.820543987566232,-1.5108213270574806,1.197099807164818
1772527244180423000,7.8604228515625,-8.347949905323981,-1.3170306933164595,-0.0032691213311627507
1772527244190405000,7.870405029296875,-7.897786801722646,-1.3065461241811513,-1.1064175195902586
1772527244200387000,7.880386962890625,-6.845277982452512,-1.3098077563256025,-1.8121303784921765
1772527244210370000,7.8903701171875,-5.828820135250687,-1.088061194166541,-2.0175975676320492
1772527244220352300,7.900352294921875,-4.994754160419106,-0.7020172192543744,-1.7787975793413817
1772527244230334000,7.910333984375,-4.215387744024396,-0.24005904844105241,-1.496492065192759
1772527244240317200,7.920317138671875,-3.1312048525959253,0.4565647873371839,-1.1775254842534661
1772527244250299000,7.930298828125,-1.7372504940748215,1.0170166501283644,-0.7631541172623634
1772527244260281000,7.940281005859375,-0.34208383715450763,1.3042758411616087,-0.5337961302515118
1772527244270264000,7.95026416015625,0.7075041262328624,1.6463456497907638,-0.355328555185534
1772527244280246000,7.96024609375,1.4851380197465418,1.7539514535069465,-0.3319133754696697
1772527244290229000,7.97022900390625,2.1732845345586536,1.4139718951553106,-0.45200463981479405
1772527244300211000,7.9802109375,2.5165339083611964,0.9217068488836287,-0.592868570010364
1772527244310193200,7.990193115234375,2.415654782551527,0.6500251662105322,-0.8010697872240096
1772527244320176000,8.000176025390624,2.0995278089523315,0.3884399301379919,-1.268323361031711
1772527244330158000,8.010157958984376,1.5350544355601072,0.15152151781022546,-1.7057637611821292
1772527244340140000,8.02014013671875,0.8210644544392823,0.2508142512112856,-1.9827654698342083
1772527244350123300,8.030123291015625,0.24839842224121092,0.5194552510142326,-2.0618084652803836
1772527244360105000,8.04010498046875,-0.12811784586906433,0.8174719829052686,-1.9936894533000886
1772527244370087200,8.050087158203125,-0.22350948017835615,1.224859190097451,-1.9255340548321604
1772527244380070000,8.06006982421875,-0.04764554827213287,1.500498085963726,-1.772044744080305
1772527244390052000,8.070052001953124,0.4231979397863149,1.6046370903521776,-1.605796489520371
1772527244400035000,8.08003515625,1.1257710393577813,1.5998948642611504,-1.399535958045721
1772527244410017000,8.09001708984375,1.7683067265957593,1.5117226598113775,-1.261487962053716
1772527244419999200,8.099999267578125,2.1392501630097627,1.3839455902040003,-1.2546414571598172
1772527244429982000,8.10998193359375,2.638207400396466,1.0731693299829959,-1.1806752535212783
1772527244439964200,8.119964111328125,3.101659609159827,0.4327040192782879,-0.8965982727207243
1772527244449946000,8.129946044921875,3.362641618642211,0.2201969946295023,-0.5052080414097756
1772527244459929000,8.13992919921875,3.039620209354162,0.5521411305636167,0.005868965098634362
1772527244469911000,8.1499111328125,2.2140075900912284,0.916997356018424,0.5855841851558536
1772527244479894300,8.159894287109376,1.134665708953142,1.2202315302968025,0.9598341157693415
1772527244489876000,8.1698759765625,0.07266191610693931,1.3246996205091475,0.9920031318377703
1772527244499858200,8.179858154296875,-0.7583557770699262,1.1411387043595314,0.8057720466308296
1772527244509841000,8.1898408203125,-1.2674790191620589,1.0263894586294888,0.5760620313119142
1772527244519823000,8.199822998046875,-1.360779234150052,0.9330886591196059,0.41336197075285014
1772527244529805000,8.20980517578125,-1.1238859562635422,0.7847633070021868,0.3636547407105565
1772527244539788000,8.2197880859375,-0.7430448106914759,0.6968681659281254,0.46572972524128853
1772527244549770200,8.229770263671876,-0.23421792119741439,0.577435730817914,0.6707409873072058
1772527244559752000,8.239751953125,0.21394962467253206,0.44133740758895873,0.9747661658328026
1772527244569735200,8.249735107421875,0.25296938341856,0.4967606041252613,1.2786401723846792
1772527244579717000,8.259717041015625,-0.02773088749051094,0.6202221486210823,1.5021525751724838
1772527244589700000,8.2697001953125,-0.09055179306268692,0.6970429379731417,1.472761645515263
1772527244599682000,8.27968212890625,-0.16262977180182933,0.5429840106397867,1.345436557459086
1772527244609664000,8.2896640625,-0.35132980440557,0.1769955662846565,0.8279697768483311
1772527244619647000,8.29964697265625,-0.36143151170313353,-0.03151975837945938,0.14917933859825133
1772527244629629200,8.309629150390625,-0.1842857232928276,-0.09164952517151832,-0.1731690667990595
1772527244639611000,8.31961083984375,0.265392227140069,-0.23633798209130763,-0.2839383760474622
1772527244649594000,8.329593994140625,0.9520750991404056,-0.38314825347065923,-0.35233657029531895
1772527244659576000,8.339576171875,1.4782909303307532,-0.6086304950267076,-0.33340302950553596
1772527244669558000,8.34955810546875,1.8351853831261395,-0.664095192617178,-0.4070111404214054
1772527244679541000,8.359541015625,1.9436592018485068,-0.5645569600224495,-0.6694330465137958
1772527244689523000,8.36952294921875,1.746179065939784,-0.3814455412060022,-0.7438549580305814
1772527244699506000,8.379505859375,1.496372530466318,-0.3043529491752386,-0.3452886245451867
1772527244709488000,8.389488037109375,0.636039895477891,0.22059914568960665,0.17596980343349278
1772527244719470000,8.399469970703125,0.06717734721601008,0.48873745666742324,0.050960079647600645
1772527244729453000,8.409453125,0.20105390274226664,0.04701601819694042,-0.5925597232569009
1772527244739435000,8.41943505859375,0.2758966700196266,-0.2992909896105528,-1.0968798028510063
1772527244749417000,8.4294169921875,-0.00997018987238407,-0.1720639551013708,-1.3031176110371947
