time,seconds_elapsed,z,y,x
1772527236404159200,0.0841591796875,-0.3100171983242035,-0.6676140427589417,0.1570887714624405
1772527236414142200,0.09414208984375,-0.29279640316963196,-0.58426833152771,0.09007484465837479
1772527236424124200,0.104124267578125,-0.3063463866710663,-0.5574888586997986,0.009195268154144287
1772527236434106000,0.114106201171875,-0.3429448902606964,-0.5418728590011597,-0.09055902808904648
1772527236444089000,0.124089111328125,-0.40276649594306946,-0.5065406560897827,-0.18953904509544373
1772527236454071300,0.1340712890625,-0.4851026237010956,-0.4530942142009735,-0.2824133038520813
1772527236464053200,0.14405322265625,-0.579869270324707,-0.43967536091804504,-0.362729012966156
1772527236474036200,0.1540361328125,-0.6572639346122742,-0.36483466625213623,-0.4129498302936554
1772527236484018400,0.164018310546875,-0.6978843212127686,-0.16895651817321777,-0.44374850392341614
1772527236494001200,0.174001220703125,-0.7703936696052551,-0.09577685594558716,-0.6059116125106812
1772527236503983400,0.1839833984375,-0.8922721147537231,-0.13095411658287048,-0.953945517539978
1772527236513965000,0.193965087890625,-1.0425513982772827,-0.018288547173142433,-1.4099842309951782
1772527236523948300,0.2039482421875,-1.2123554944992065,0.3054227828979492,-1.8590487241744995
1772527236533930200,0.21393017578125,-1.3406485319137573,0.6775305271148682,-2.1801507472991943
1772527236543912200,0.223912109375,-1.3474572896957397,0.9734792709350586,-2.3412697315216064
1772527236553895200,0.233895263671875,-1.1777899265289307,1.2586621046066284,-2.2898752689361572
1772527236563877400,0.24387744140625,-0.9077929854393005,1.6731380224227905,-1.9956384897232056
1772527236573859300,0.253859375,-0.6453637480735779,2.394639253616333,-1.4979918003082275
1772527236583842300,0.26384228515625,-0.44357702136039734,2.6279726028442383,-0.9789466261863708
1772527236593824300,0.27382421875,-0.23062613606452942,2.4527671337127686,-0.6026374101638794
1772527236603806200,0.28380615234375,0.02672043815255165,1.9644571542739868,-0.3866851329803467
1772527236613789400,0.29378955078125,0.32915061712265015,1.4266133308410645,-0.17987629771232605
1772527236623771100,0.303771240234375,0.6627320647239685,1.1495269536972046,0.04451020434498787
1772527236633753300,0.31375341796875,0.9597059488296509,0.9356276392936707,0.19247063994407654
1772527236643736000,0.323736083984375,1.0735150575637817,0.6908400058746338,0.1872742772102356
1772527236653718300,0.33371826171875,0.884172797203064,0.2386896014213562,0.029275057837367058
1772527236663701200,0.343701171875,0.5280945301055908,-0.4873742163181305,-0.16736014187335968
1772527236673683200,0.35368310546875,0.2386145293712616,-1.3530014753341675,-0.2368319034576416
1772527236683665200,0.3636650390625,0.06790702044963837,-2.0588417053222656,-0.0955962985754013
1772527236693648400,0.3736484375,-0.06734614074230194,-2.397270679473877,0.23961125314235687
1772527236703630300,0.38363037109375,-0.0780206099152565,-2.0923850536346436,0.6924210786819458
1772527236713612300,0.3936123046875,0.0695406123995781,-1.3854007720947266,1.197170615196228
1772527236723595300,0.40359521484375,0.36002257466316223,-0.6522132158279419,1.7413523197174072
1772527236733577200,0.4135771484375,0.8449448347091675,-0.212097629904747,2.204249143600464
1772527236743559200,0.42355908203125,1.4019577503204346,-0.2268964648246765,2.4680674076080322
1772527236753542100,0.433542236328125,1.8299365043640137,-0.36507007479667664,2.542639970779419
1772527236763524400,0.4435244140625,2.0222394466400146,-0.35938724875450134,2.458101749420166
1772527236773506000,0.453506103515625,2.0272297859191895,-0.3167359530925751,2.2195091247558594
1772527236783489300,0.4634892578125,1.931409239768982,-0.3032764196395874,1.8661326169967651
1772527236793471200,0.47347119140625,1.8319753408432007,-0.2959143817424774,1.5241177082061768
1772527236803454200,0.4834541015625,1.8012943267822266,-0.39327460527420044,1.3137354850769043
1772527236813436200,0.493436279296875,1.8737993240356445,-0.6600543856620789,1.2622425556182861
1772527236823418000,0.503418212890625,1.9893500804901123,-0.7643444538116455,1.3127011060714722
1772527236833401000,0.513401123046875,1.928928017616272,-0.2804006338119507,1.3249244689941406
1772527236843383300,0.52338330078125,1.6441951990127563,0.6461371779441833,1.2391918897628784
1772527236853365200,0.533365234375,1.1555615663528442,1.6359846591949463,1.1035810708999634
1772527236863348200,0.54334814453125,0.5751955509185791,2.453521966934204,1.0022414922714233
1772527236873330200,0.553330078125,0.005659925285726786,2.9498536586761475,0.8908740282058716
1772527236883312000,0.56331201171875,-0.4856146574020386,2.80802059173584,0.6904992461204529
1772527236893295400,0.57329541015625,-0.8496282696723938,1.9645345211029053,0.3397276699542999
1772527236903277000,0.583277099609375,-0.9747125506401062,0.8070191144943237,-0.10751447826623917
1772527236913259300,0.59325927734375,-0.944164514541626,-0.33771273493766785,-0.5858131647109985
1772527236923242200,0.6032421875,-0.9144408106803894,-1.1327866315841675,-0.996098518371582
1772527236933224200,0.61322412109375,-0.886830747127533,-1.4854768514633179,-1.3099634647369385
1772527236943207200,0.623207275390625,-0.8403142094612122,-1.3122708797454834,-1.5822160243988037
1772527236953189000,0.633189208984375,-0.7067215442657471,-0.9918907880783081,-1.6925665140151978
1772527236963171300,0.64317138671875,-0.5799784660339355,-0.5639369487762451,-1.7639539241790771
1772527236973154300,0.653154296875,-0.4988545775413513,-0.10563594102859497,-1.7981891632080078
1772527236983136300,0.66313623046875,-0.44115468859672546,0.3908931314945221,-1.766406774520874
1772527236993118200,0.6731181640625,-0.38749411702156067,0.8182221055030823,-1.6779391765594482
1772527237003101200,0.68310107421875,-0.3788801431655884,1.131588339805603,-1.5757057666778564
1772527237013083100,0.693083251953125,-0.3217044472694397,1.4700629711151123,-1.4941052198410034
1772527237023065300,0.7030654296875,-0.21329861879348755,1.9118987321853638,-1.476223349571228
1772527237033048600,0.713048583984375,-0.08524157851934433,2.4089884757995605,-1.503641963005066
1772527237043030500,0.723030517578125,0.09204886108636856,2.999434232711792,-1.5448459386825562
1772527237053012700,0.7330126953125,0.29157182574272156,3.693726062774658,-1.6355407238006592
1772527237062995700,0.74299560546875,0.46679139137268066,4.418245792388916,-1.7922168970108032
1772527237072977700,0.752977783203125,0.5678260922431946,4.939043045043945,-1.883371353149414
1772527237082960600,0.762960693359375,0.6201615333557129,5.0638346672058105,-1.8463962078094482
1772527237092942600,0.772942626953125,0.5535707473754883,4.586043834686279,-1.635118842124939
1772527237102924500,0.782924560546875,0.3496565818786621,3.4010980129241943,-1.2421083450317383
1772527237112907800,0.79290771484375,0.17029695212841034,1.6434485912322998,-0.761833667755127
1772527237122889500,0.802889404296875,0.1238660141825676,-0.029808441177010536,-0.3589729070663452
1772527237132871700,0.81287158203125,0.2275303453207016,-1.2057859897613525,-0.11418338865041733
1772527237142854400,0.8228544921875,0.3680824339389801,-2.0335512161254883,0.10683102160692215
1772527237152836600,0.832836669921875,0.27553170919418335,-1.0339913368225098,0.0417790524661541
1772527237162818600,0.842818603515625,0.34506893157958984,-1.3298736810684204,0.11599522083997726
1772527237172801500,0.852801513671875,0.3890441358089447,-1.303826928138733,0.11172856390476227
1772527237182783500,0.862783447265625,0.4112510085105896,-1.1672550439834595,0.08805590867996216
1772527237192766700,0.8727666015625,0.559846043586731,-1.14644193649292,0.1713702380657196
1772527237202748400,0.88274853515625,0.7890138626098633,-0.9720794558525085,0.4358321726322174
1772527237212730600,0.892730712890625,0.9621853828430176,-0.5212656855583191,0.8409000635147095
1772527237222713300,0.90271337890625,0.5874083638191223,-0.40496641397476196,1.0534449815750122
1772527237232695600,0.912695556640625,-0.7845701575279236,-1.0989841222763062,0.7182523012161255
1772527237242677500,0.922677490234375,-1.5945119857788086,-2.228551149368286,0.22594062983989716
1772527237252660500,0.932660400390625,-1.1445717811584473,-1.5148062705993652,-0.8304986357688904
1772527237262642700,0.942642578125,-0.41259440779685974,-1.8795232772827148,-1.1038631200790405
1772527237272624400,0.952624267578125,0.37756600975990295,-1.8209688663482666,-0.6756001710891724
1772527237282607600,0.962607666015625,1.2546567916870117,-1.9473168849945068,0.24471645057201385
1772527237292589600,0.972589599609375,2.081998825073242,-2.1693828105926514,1.305997610092163
1772527237302571500,0.982571533203125,2.547791004180908,-2.520531415939331,2.221341133117676
1772527237312554500,0.992554443359375,2.542623519897461,-2.869159460067749,2.810161828994751
1772527237322536400,1.002536376953125,2.1009609699249268,-3.257740020751953,3.01261830329895
1772527237332519400,1.01251953125,1.4809051752090454,-3.6361935138702393,2.861783027648926
1772527237342501600,1.022501708984375,1.0971659421920776,-3.828770875930786,2.5221800804138184
1772527237352483600,1.032483642578125,1.012503743171692,-3.5555806159973145,2.141120433807373
1772527237362466600,1.042466552734375,1.1265851259231567,-2.8529694080352783,1.6707665920257568
1772527237372448500,1.052448486328125,1.2696174383163452,-1.818985939025879,1.1183995008468628
1772527237382430500,1.062430419921875,1.2639273405075073,-0.3747420608997345,0.5208445191383362
1772527237392413700,1.07241357421875,1.1659024953842163,1.159721851348877,-0.16659004986286163
1772527237402395400,1.0823955078125,0.9484091997146606,2.4370250701904297,-0.973304033279419
1772527237412377600,1.092377685546875,0.6541858315467834,3.191051721572876,-1.8602226972579956
1772527237422360600,1.102360595703125,0.30924829840660095,3.4553656578063965,-2.7413828372955322
1772527237432342500,1.112342529296875,0.007463664747774601,3.5583994388580322,-3.4386250972747803
1772527237442324700,1.12232470703125,-0.14580507576465607,3.669234037399292,-3.860747814178467
1772527237452307500,1.132307373046875,-0.09670863300561905,3.7996931076049805,-3.9249379634857178
1772527237462289700,1.14228955078125,0.050856176763772964,3.8886301517486572,-3.7021484375
1772527237472272600,1.152272705078125,0.23103606700897217,3.9114599227905273,-3.319730043411255
1772527237482254600,1.162254638671875,0.4311896562576294,3.8193230628967285,-2.8067352771759033
1772527237492236500,1.172236572265625,0.6010063886642456,3.500899314880371,-2.177400827407837
1772527237502219800,1.1822197265625,0.7079407572746277,2.859027624130249,-1.4040017127990723
1772527237512201500,1.192201416015625,0.7164332866668701,1.9176639318466187,-0.5334848761558533
1772527237522183700,1.20218359375,0.6385045051574707,0.8358891606330872,0.3406217694282532
1772527237532166400,1.21216650390625,0.40999144315719604,-0.16387000679969788,1.0752826929092407
1772527237542148600,1.222148681640625,0.12528656423091888,-1.0160725116729736,1.6015703678131104
1772527237552130600,1.232130615234375,-0.13993550837039948,-1.7377723455429077,1.9278725385665894
1772527237562113500,1.242113525390625,-0.31722119450569153,-2.2992608547210693,2.1011695861816406
1772527237572095700,1.252095703125,-0.3989852964878082,-2.658003807067871,2.1725423336029053
1772527237582078500,1.262078369140625,-0.4402649998664856,-2.8288073539733887,2.1429667472839355
1772527237592060700,1.272060791015625,-0.46405741572380066,-2.795180559158325,2.0205650329589844
1772527237602042600,1.282042724609375,-0.45469823479652405,-2.386362075805664,1.7928409576416016
1772527237612025600,1.292025634765625,-0.3725793957710266,-1.6486120223999023,1.5310940742492676
1772527237622007600,1.302007568359375,-0.2681988775730133,-0.8562446236610413,1.2345112562179565
1772527237631989500,1.311989501953125,-0.16303199529647827,-0.2576587498188019,0.826721727848053
1772527237641972500,1.321972412109375,-0.03868340328335762,0.171133890748024,0.333697646856308
1772527237651954700,1.33195458984375,0.07670338451862335,0.6055703163146973,-0.1425626575946808
1772527237661936600,1.3419365234375,0.25117015838623047,1.0776582956314087,-0.503202497959137
1772527237671919600,1.351919677734375,0.48730573058128357,1.3955178260803223,-0.6851904392242432
1772527237681901600,1.361901611328125,0.6855989694595337,1.371715784072876,-0.696473240852356
1772527237691884500,1.371884521484375,0.7114295363426208,1.0038431882858276,-0.6669608950614929
1772527237701866800,1.38186669921875,0.4502621591091156,0.4739011526107788,-0.7048463225364685
1772527237711848400,1.391848388671875,0.027709567919373512,0.2618544101715088,-0.6850989460945129
1772527237721831700,1.401831787109375,-0.11602671444416046,0.6530431509017944,-0.4951450824737549
1772527237731813600,1.411813720703125,0.09896068274974823,1.4429799318313599,-0.2044552117586136
1772527237741795600,1.421795654296875,0.5302684903144836,2.276090383529663,0.2522885203361511
1772527237751778600,1.431778564453125,1.1397182941436768,2.869872570037842,0.8624439835548401
1772527237761760500,1.441760498046875,1.6990141868591309,2.9719414710998535,1.4520130157470703
1772527237771742500,1.451742431640625,2.088284730911255,2.4103400707244873,1.9164410829544067
1772527237781725700,1.4617255859375,2.258496046066284,1.0865558385849,2.315361499786377
1772527237791707400,1.471707275390625,2.1701629161834717,-0.670806884765625,2.64479660987854
1772527237801689600,1.481689697265625,1.8997292518615723,-2.3601300716400146,2.8452870845794678
1772527237811672600,1.491672607421875,1.6726579666137695,-3.39454984664917,2.77919864654541
1772527237821654500,1.501654541015625,1.552486538887024,-3.375978708267212,2.388580322265625
1772527237831637500,1.511637451171875,1.4549371004104614,-2.4993906021118164,1.6843528747558594
1772527237841619500,1.521619384765625,1.3334835767745972,-1.2433562278747559,0.734580934047699
1772527237851601700,1.5316015625,1.1348117589950562,-0.04830858111381531,-0.32018500566482544
1772527237861584600,1.541584716796875,0.8229508399963379,0.8949241638183594,-1.30319344997406
1772527237871566600,1.551566650390625,0.44170334935188293,1.5502263307571411,-2.0768511295318604
1772527237881548500,1.561548583984375,0.07832757383584976,1.8876608610153198,-2.5825397968292236
1772527237891531500,1.571531494140625,-0.21149545907974243,1.9063022136688232,-2.7825539112091064
1772527237901513500,1.581513427734375,-0.37468525767326355,1.7059087753295898,-2.6704370975494385
1772527237911495400,1.591495361328125,-0.3884844481945038,1.3473048210144043,-2.306567907333374
1772527237921478400,1.601478515625,-0.30698782205581665,0.8849294781684875,-1.775246262550354
1772527237931460600,1.611460693359375,-0.1516866534948349,0.3956575095653534,-1.1479517221450806
1772527237941443300,1.621443359375,0.01925862953066826,-0.04327794164419174,-0.5146245360374451
1772527237951425500,1.631425537109375,0.18989908695220947,-0.40037959814071655,0.040292199701070786
1772527237961407700,1.64140771484375,0.3335353434085846,-0.6510312557220459,0.49861398339271545
1772527237971390500,1.651390380859375,0.42381730675697327,-0.7602706551551819,0.8504862785339355
1772527237981372700,1.66137255859375,0.4568244516849518,-0.7496243119239807,1.0651233196258545
1772527237991354400,1.671354248046875,0.44574758410453796,-0.672730565071106,1.1460721492767334
1772527238001337600,1.681337646484375,0.4080798327922821,-0.6130927205085754,1.1108510494232178
1772527238011319600,1.691319580078125,0.37289974093437195,-0.6579390168190002,0.9890101552009583
1772527238021301500,1.701301513671875,0.3253437578678131,-0.8366953134536743,0.8189248442649841
1772527238031284500,1.711284423828125,0.2715337872505188,-1.123492956161499,0.6133509278297424
1772527238041266400,1.721266357421875,0.22626565396785736,-1.4293596744537354,0.3978807330131531
1772527238051249400,1.73124951171875,0.34279200434684753,-1.3801153898239136,0.07220594584941864
1772527238061231400,1.7412314453125,0.4679071605205536,-1.0731366872787476,-0.25003913044929504
1772527238071213600,1.751213623046875,0.6357244253158569,-0.6779740452766418,-0.6623369455337524
1772527238081196500,1.761196533203125,0.7700390815734863,-0.32422423362731934,-1.0100483894348145
1772527238091178500,1.771178466796875,0.7972105145454407,0.13485655188560486,-1.1875346899032593
1772527238101160400,1.781160400390625,0.7262446880340576,0.6174840927124023,-1.1717511415481567
1772527238111143700,1.791143798828125,0.6107380986213684,1.0312998294830322,-1.0047051906585693
1772527238121125400,1.80112548828125,0.5629011988639832,1.331283688545227,-0.7357164025306702
1772527238131107600,1.811107666015625,0.5600846409797668,1.431932806968689,-0.4244735836982727
1772527238141090300,1.82109033203125,0.5520950555801392,1.1709226369857788,-0.13718527555465698
1772527238151072500,1.831072509765625,0.5127069354057312,0.6713440418243408,0.1697419136762619
1772527238161055500,1.841055419921875,0.5028843283653259,0.09286212921142578,0.6040680408477783
1772527238171037400,1.851037353515625,0.5992526412010193,-0.2712247371673584,1.1673651933670044
1772527238181019600,1.86101953125,0.7853103280067444,-0.43963950872421265,1.616732120513916
1772527238191002400,1.87100244140625,0.9986382722854614,-0.778605580329895,1.6527007818222046
1772527238200984600,1.880984619140625,0.9771915078163147,-1.2377073764801025,1.1761531829833984
1772527238210966500,1.890966552734375,0.5284997224807739,-1.4368399381637573,0.37487614154815674
1772527238220949500,1.900949462890625,-0.10927978903055191,-0.9176648259162903,-0.4314466416835785
1772527238230931500,1.910931396484375,-0.43789681792259216,0.4094304144382477,-0.9812110066413879
1772527238240913400,1.920913330078125,-0.40004414319992065,1.4658348560333252,-0.9510294198989868
1772527238250896400,1.930896484375,-0.06557297706604004,1.9823429584503174,-0.6397690176963806
1772527238260878600,1.940878662109375,0.29064059257507324,2.1321656703948975,-0.26367300748825073
1772527238270861300,1.950861328125,0.5233849287033081,1.7217313051223755,0.09372400492429733
1772527238280843500,1.960843505859375,0.5959863662719727,0.7794981598854065,0.3925701975822449
1772527238290825500,1.970825439453125,0.4515753984451294,-0.34068891406059265,0.6497817635536194
1772527238300808400,1.980808349609375,0.2692527770996094,-1.262601613998413,0.931372880935669
1772527238310790700,1.990790771484375,0.19566430151462555,-1.723528504371643,1.2013174295425415
1772527238320772400,2.0007724609375,0.21585549414157867,-1.699094295501709,1.281850814819336
1772527238330755600,2.010755615234375,0.2389349788427353,-1.256857991218567,1.027827501296997
1772527238340737500,2.020737548828125,0.2558490037918091,-0.5118154287338257,0.47081494331359863
1772527238350719500,2.030719482421875,0.22891512513160706,0.3074216842651367,-0.23734170198440552
1772527238360702500,2.040702392578125,0.1839107722043991,1.0039647817611694,-0.8575652241706848
1772527238370684400,2.050684326171875,0.14616206288337708,1.471387267112732,-1.2370127439498901
1772527238380667400,2.06066748046875,0.10607965290546417,1.6934179067611694,-1.324626088142395
1772527238390649600,2.070649658203125,0.06215054169297218,1.6675090789794922,-1.1193091869354248
1772527238400631600,2.080631591796875,-0.02092292346060276,1.4250118732452393,-0.7634526491165161
1772527238410614500,2.090614501953125,-0.1022350862622261,1.0970356464385986,-0.37057217955589294
1772527238420596500,2.100596435546875,-0.18543750047683716,0.784195065498352,0.002026849891990423
1772527238430578400,2.110578369140625,-0.23237250745296478,0.46124976873397827,0.32810935378074646
1772527238440561400,2.1205615234375,-0.17077355086803436,0.24020718038082123,0.6688889265060425
1772527238450543400,2.13054345703125,-0.013558360747992992,0.14469902217388153,1.0494767427444458
1772527238460525600,2.140525634765625,0.1181960180401802,-0.022089555859565735,1.378238558769226
1772527238470508500,2.150508544921875,0.1262584626674652,-0.3211183249950409,1.560927152633667
1772527238480490500,2.160490478515625,0.06362239271402359,-0.6119282245635986,1.5728591680526733
1772527238490473500,2.170473388671875,0.001359549816697836,-0.6681976318359375,1.450273871421814
1772527238500455400,2.180455322265625,-0.031671926379203796,-0.45429131388664246,1.2074568271636963
1772527238510437400,2.190437255859375,-0.059163473546504974,-0.009550604037940502,0.8758233189582825
1772527238520420600,2.200420654296875,-0.10413502156734467,0.5505498647689819,0.5168511271476746
1772527238530402300,2.21040234375,-0.1763910949230194,1.0781850814819336,0.2387545257806778
1772527238540384500,2.220384521484375,-0.29159224033355713,1.4091037511825562,0.06510870158672333
1772527238550367500,2.230367431640625,-0.3900964558124542,1.4510157108306885,-0.04879710078239441
1772527238560349400,2.240349365234375,-0.4395979046821594,1.315687894821167,-0.10731109976768494
1772527238570331600,2.25033154296875,-0.4288938641548157,1.0725101232528687,-0.12111985683441162
1772527238580314400,2.260314453125,-0.362410306930542,0.8281221389770508,-0.09170879423618317
1772527238590296600,2.270296630859375,-0.2776395082473755,0.6110582947731018,-0.062219344079494476
1772527238600279600,2.280279541015625,-0.19597235321998596,0.4436575770378113,-0.04479454457759857
1772527238610261500,2.290261474609375,-0.11407701671123505,0.35473451018333435,-0.05531659349799156
1772527238620243500,2.300243408203125,-0.060062095522880554,0.30120420455932617,-0.1133771538734436
1772527238630226400,2.310226318359375,-0.034437425434589386,0.1891501098871231,-0.1952323466539383
1772527238640208400,2.32020849609375,0.03536784276366234,0.08562202751636505,-0.18731166422367096
1772527238650190600,2.330190673828125,0.18602393567562103,0.09010466188192368,-0.08224489539861679
1772527238660173300,2.34017333984375,0.42554521560668945,0.17767778038978577,0.07543237507343292
1772527238670155500,2.350155517578125,0.7312175035476685,0.043603334575891495,0.09861519187688828
1772527238680137500,2.360137451171875,0.9211492538452148,-0.5759599208831787,-0.25017789006233215
1772527238690120400,2.370120361328125,0.8799794316291809,-1.4704368114471436,-0.9587523937225342
1772527238700102700,2.3801025390625,0.6066107153892517,-2.055262565612793,-1.8274973630905151
1772527238710085400,2.39008544921875,0.09250319004058838,-1.810723066329956,-2.4286248683929443
1772527238720067600,2.400067626953125,-0.3298521041870117,-0.734768271446228,-2.3862247467041016
1772527238730049300,2.41004931640625,-0.43199819326400757,0.6804134249687195,-1.7287815809249878
1772527238740032500,2.420032470703125,-0.2912959158420563,1.7627586126327515,-0.6184002757072449
1772527238750014500,2.430014404296875,-0.12401903420686722,1.9772932529449463,0.5226116180419922
1772527238759996400,2.439996337890625,0.07884803414344788,1.0790138244628906,1.055509328842163
1772527238769979400,2.4499794921875,0.2669713497161865,-0.23034745454788208,0.6712690591812134
1772527238779961600,2.459961669921875,0.4108736515045166,-0.9240548014640808,-0.10646695643663406
1772527238789943600,2.469943603515625,0.5689988136291504,-0.5907612442970276,-0.4834935963153839
1772527238799926500,2.479926513671875,0.6853718757629395,0.35874074697494507,-0.3879506289958954
1772527238809908500,2.489908447265625,0.822435200214386,1.2082291841506958,-0.10861995071172714
1772527238819891500,2.499891357421875,1.0169174671173096,1.7242228984832764,0.26472097635269165
1772527238829873700,2.509873779296875,1.135516881942749,1.6203923225402832,0.6011235117912292
1772527238839855400,2.51985546875,1.0945439338684082,1.022777795791626,0.7591124773025513
1772527238849838600,2.529838623046875,0.9029039144515991,0.43777430057525635,0.7241877913475037
1772527238859820300,2.5398203125,0.6533454060554504,0.2335972636938095,0.5963593125343323
1772527238869802500,2.549802490234375,0.38151708245277405,0.401692271232605,0.4176681935787201
1772527238879785500,2.559785400390625,0.1403089016675949,0.7669800519943237,0.22977983951568604
1772527238889767400,2.569767333984375,-0.04816034063696861,1.1258023977279663,0.08781179040670395
1772527238899750400,2.57975048828125,-0.16154146194458008,1.3972399234771729,0.03559014946222305
1772527238909732600,2.589732666015625,-0.19467544555664062,1.5333009958267212,0.08194325864315033
1772527238919714600,2.599714599609375,-0.15048499405384064,1.5597599744796753,0.20036569237709045
1772527238929697500,2.609697509765625,-0.05474541336297989,1.4158477783203125,0.3597652018070221
1772527238939679500,2.619679443359375,0.05949046462774277,1.1589100360870361,0.5172792673110962
1772527238949661400,2.629661376953125,0.18349070847034454,0.8629153370857239,0.6652503609657288
1772527238959644700,2.639644775390625,0.30419033765792847,0.6026813983917236,0.8122215867042542
1772527238969626400,2.64962646484375,0.4107647240161896,0.3990696668624878,0.9268941283226013
1772527238979608600,2.659608642578125,0.4985961318016052,0.2841589152812958,1.033264398574829
1772527238989591300,2.66959130859375,0.5473727583885193,0.1838829070329666,1.1057103872299194
1772527238999573500,2.679573486328125,0.5169126987457275,0.1002940982580185,1.1107388734817505
1772527239009556500,2.689556396484375,0.450445294380188,0.07617012411355972,1.0447536706924438
1772527239019538400,2.699538330078125,0.3874129056930542,0.10055606812238693,0.9181032180786133
1772527239029520400,2.709520263671875,0.3410978615283966,0.16451667249202728,0.7468246817588806
1772527239039503600,2.719503662109375,0.29181042313575745,0.23938120901584625,0.587356448173523
1772527239049485600,2.729485595703125,0.24104629456996918,0.28107672929763794,0.470232218503952
1772527239059467500,2.739467529296875,0.20234182476997375,0.2799266278743744,0.3846816420555115
1772527239069450500,2.749450439453125,0.1583796888589859,0.2514651417732239,0.29580023884773254
1772527239079432400,2.759432373046875,0.10514327883720398,0.27038565278053284,0.2135256826877594
1772527239089414400,2.769414306640625,0.08907455950975418,0.2831065058708191,0.17412181198596954
1772527239099397400,2.7793974609375,0.1570160686969757,0.2932678163051605,0.23292681574821472
1772527239109379600,2.789379638671875,0.2777158319950104,0.3194639980792999,0.3487999141216278
1772527239119362600,2.799362548828125,0.3813149631023407,0.33208736777305603,0.3962888717651367
1772527239129344500,2.809344482421875,0.360741525888443,0.31324177980422974,0.3191527724266052
1772527239139326500,2.819326416015625,0.19247554242610931,0.16780738532543182,0.10378134995698929
1772527239149309400,2.829309326171875,-0.06605322659015656,0.06068279221653938,-0.17032423615455627
1772527239159291400,2.83929150390625,-0.3441563546657562,0.17979742586612701,-0.41597720980644226
1772527239169273300,2.8492734375,-0.5389831066131592,0.40671658515930176,-0.6360962986946106
1772527239179256300,2.85925634765625,-0.6144960522651672,0.6942091584205627,-0.8245090246200562
1772527239189238500,2.869238525390625,-0.49313345551490784,1.088995337486267,-0.9512085914611816
1772527239199221200,2.87922119140625,-0.20123076438903809,1.468137264251709,-0.9617781639099121
1772527239209203500,2.889203369140625,0.1486516147851944,1.6292108297348022,-0.8153975009918213
1772527239219185700,2.899185546875,0.5377976298332214,1.4848605394363403,-0.4630030393600464
1772527239229168400,2.90916845703125,0.9208951592445374,1.030458688735962,-0.006011281628161669
1772527239239150600,2.919150634765625,1.1821883916854858,0.4625927805900574,0.41799718141555786
1772527239249132300,2.92913232421875,1.2712260484695435,-0.1425466686487198,0.6899322271347046
1772527239259115500,2.939115478515625,1.2085925340652466,-0.6328683495521545,0.7659794688224792
1772527239269097500,2.949097412109375,1.0906754732131958,-0.9530402421951294,0.6359692811965942
1772527239279079400,2.959079345703125,0.9972273111343384,-1.120360016822815,0.2519640028476715
1772527239289062400,2.9690625,0.963190495967865,-0.948501467704773,-0.2843244671821594
1772527239299044400,2.97904443359375,0.9435364603996277,-0.4678918123245239,-0.7868484258651733
1772527239309027300,2.98902734375,0.9554248452186584,0.1421332061290741,-1.0414762496948242
1772527239319009500,2.999009521484375,1.0535264015197754,0.6310216784477234,-0.9733495712280273
1772527239328991500,3.008991455078125,1.0185633897781372,0.8664931058883667,-0.8093428015708923
1772527239338974500,3.018974365234375,0.7817202806472778,0.6875684261322021,-0.9640416502952576
1772527239348956700,3.028956787109375,0.49115365743637085,0.5597239136695862,-1.2291326522827148
1772527239358938400,3.0389384765625,0.29421108961105347,0.7648266553878784,-1.2587788105010986
1772527239368921600,3.048921630859375,0.10228695720434189,0.9448654055595398,-1.0921001434326172
1772527239378903300,3.0589033203125,-0.06041538715362549,0.9942047595977783,-0.8190813660621643
1772527239388885500,3.068885498046875,-0.08126047253608704,0.9220629334449768,-0.5340091586112976
1772527239398868500,3.078868408203125,0.07191353291273117,0.8180569410324097,-0.26515546441078186
1772527239408850400,3.088850341796875,0.28229179978370667,0.7120104432106018,0.006203844211995602
1772527239418833400,3.09883349609375,0.4141523540019989,0.5538599491119385,0.26068034768104553
1772527239428815400,3.1088154296875,0.4247296452522278,0.34319964051246643,0.4681107699871063
1772527239438797600,3.118797607421875,0.37695151567459106,0.10199512541294098,0.6034772992134094
1772527239448780500,3.128780517578125,0.3699681758880615,-0.13921615481376648,0.6753820776939392
1772527239458762500,3.138762451171875,0.4138415455818176,-0.36886128783226013,0.713108479976654
1772527239468744400,3.148744384765625,0.4802442789077759,-0.4780849814414978,0.7079241275787354
1772527239478727700,3.158727783203125,0.5417077541351318,-0.4437248706817627,0.6323714852333069
1772527239488709400,3.16870947265625,0.5775967836380005,-0.30344152450561523,0.4802493751049042
1772527239498692600,3.178692626953125,0.5819836854934692,-0.08375217765569687,0.27617037296295166
1772527239508674300,3.18867431640625,0.5576647520065308,0.1861698478460312,0.05215216800570488
1772527239518656500,3.198656494140625,0.5315676331520081,0.49990686774253845,-0.1254737824201584
1772527239528639500,3.208639404296875,0.5221999287605286,0.6942734122276306,-0.24510245025157928
1772527239538621400,3.218621337890625,0.508159339427948,0.7012628316879272,-0.3343231976032257
1772527239548603600,3.228603759765625,0.44846484065055847,0.5373924374580383,-0.40989598631858826
1772527239558586400,3.23858642578125,0.3803257644176483,0.3223671615123749,-0.4691348075866699
1772527239568568600,3.248568603515625,0.39840462803840637,0.14142347872257233,-0.5337937474250793
1772527239578550500,3.258550537109375,0.5716790556907654,0.34718942642211914,-0.3183871805667877
1772527239588533500,3.268533447265625,0.4900209307670593,0.7502796053886414,0.7330359816551208
1772527239598515500,3.278515380859375,-0.07241612672805786,0.35328200459480286,1.8214161396026611
1772527239608498700,3.288498779296875,-0.2680029571056366,-1.0870705842971802,1.7383739948272705
1772527239618480400,3.29848046875,-0.16852694749832153,-2.685899019241333,0.2985306978225708
1772527239628462600,3.308462646484375,0.09675371646881104,-3.5428342819213867,-1.7976430654525757
1772527239638445300,3.3184453125,0.4653325378894806,-2.8375251293182373,-3.407479763031006
1772527239648427500,3.328427490234375,0.7391294240951538,-1.114071011543274,-4.324033737182617
1772527239658409500,3.338409423828125,0.7970991134643555,0.7736022472381592,-4.461565017700195
1772527239668392400,3.348392333984375,0.7467504739761353,2.4341039657592773,-3.768819808959961
1772527239678374700,3.358374755859375,0.6020738482475281,3.358738422393799,-2.6616299152374268
1772527239688357600,3.368357666015625,0.36030998826026917,3.311062812805176,-1.5361406803131104
1772527239698339600,3.378339599609375,0.21512776613235474,2.3677992820739746,-0.5468370318412781
1772527239708321500,3.388321533203125,0.23252220451831818,1.1738842725753784,0.2588844895362854
1772527239718304500,3.398304443359375,0.3927997648715973,0.3997989296913147,0.8638105988502502
1772527239728286500,3.408286376953125,0.5203566551208496,0.08090671896934509,1.1914886236190796
1772527239738268400,3.418268310546875,0.5901258587837219,0.05555304139852524,1.2658215761184692
1772527239748251400,3.42825146484375,0.6167454719543457,0.3147236108779907,1.224448323249817
1772527239758233600,3.438233642578125,0.6125667095184326,0.7597432732582092,1.1542773246765137
1772527239768215300,3.44821533203125,0.6854268312454224,1.1387368440628052,1.0501415729522705
1772527239778198500,3.458198486328125,0.8360660672187805,1.2442389726638794,0.9733323454856873
1772527239788180500,3.468180419921875,0.9187782406806946,0.9200922846794128,0.9720191955566406
1772527239798163500,3.47816357421875,0.8835270404815674,0.3350842297077179,1.0686213970184326
1772527239808145400,3.4881455078125,0.7542968988418579,-0.20915326476097107,1.2059531211853027
1772527239818127400,3.49812744140625,0.6319313049316406,-0.5032956600189209,1.324842095375061
1772527239828110300,3.5081103515625,0.5739319324493408,-0.45219171047210693,1.413902997970581
1772527239838092500,3.518092529296875,0.578167736530304,-0.10358673334121704,1.4306939840316772
1772527239848074500,3.528074462890625,0.6322640180587769,0.38051682710647583,1.3356987237930298
1772527239858057500,3.538057373046875,0.6814503073692322,0.7950973510742188,1.174314022064209
1772527239868039400,3.548039306640625,0.6590272784233093,1.0232692956924438,1.0234289169311523
1772527239878022400,3.5580224609375,0.5682803392410278,1.0327095985412598,0.921170711517334
1772527239888004600,3.568004638671875,0.47279322147369385,0.9169591665267944,0.9124278426170349
1772527239897986300,3.577986328125,0.4022727310657501,0.777799665927887,0.9856793880462646
1772527239907969500,3.587969482421875,0.3703528940677643,0.6463878154754639,1.1084450483322144
1772527239917951500,3.597951416015625,0.352867066860199,0.53574538230896,1.2521283626556396
1772527239927933400,3.607933349609375,0.33961915969848633,0.44299495220184326,1.382853627204895
1772527239937916400,3.61791650390625,0.34234619140625,0.33328357338905334,1.4622673988342285
1772527239947898400,3.6278984375,0.3514547348022461,0.19539415836334229,1.4622184038162231
1772527239957880600,3.637880615234375,0.3335224986076355,0.07673196494579315,1.3889950513839722
1772527239967863600,3.647863525390625,0.2862844169139862,-0.022386636584997177,1.2237187623977661
1772527239977845500,3.657845458984375,0.25356900691986084,-0.08800994604825974,0.9837323427200317
1772527239987828500,3.667828369140625,0.24025826156139374,-0.04744840785861015,0.7344322800636292
1772527239997810400,3.677810546875,0.24972859025001526,0.10544043034315109,0.5019159913063049
1772527240007792400,3.68779248046875,0.25351428985595703,0.33639615774154663,0.31656402349472046
1772527240017775600,3.697775634765625,0.24504490196704865,0.5900673270225525,0.1868789792060852
1772527240027757300,3.70775732421875,0.22496706247329712,0.7640194296836853,0.10918605327606201
1772527240037739300,3.7177392578125,0.18612824380397797,0.7484898567199707,-0.013159740716218948
1772527240047722200,3.72772216796875,0.11294510960578918,0.5403182506561279,-0.26885515451431274
1772527240057704200,3.7377041015625,0.04814587160944939,0.32510238885879517,-0.5864152908325195
1772527240067686400,3.747686279296875,-0.02078898809850216,0.3310236632823944,-0.8184266686439514
1772527240077669400,3.75766943359375,-0.10254666954278946,0.6251459121704102,-0.901984453201294
1772527240087651300,3.7676513671875,-0.1120898425579071,1.015929102897644,-0.9086213111877441
1772527240097634300,3.77763427734375,0.023683413863182068,1.2658771276474,-0.9525903463363647
1772527240107616500,3.787616455078125,0.25337812304496765,1.1938191652297974,-1.1053481101989746
1772527240117598200,3.79759814453125,0.44618096947669983,0.993841826915741,-1.3533027172088623
1772527240127581400,3.80758154296875,0.4250863492488861,0.641485333442688,-1.6625779867172241
1772527240137563100,3.817563232421875,0.20171912014484406,0.30211248993873596,-1.8415553569793701
1772527240147545300,3.82754541015625,0.06309305131435394,0.17196673154830933,-1.6475571393966675
1772527240157528300,3.8375283203125,0.09770606458187103,0.23178566992282867,-1.1509513854980469
1772527240167510300,3.84751025390625,0.2584563195705414,0.4255671203136444,-0.5130910873413086
1772527240177493200,3.8574931640625,0.433146595954895,0.5968914031982422,0.06294010579586029
1772527240187475200,3.86747509765625,0.4822949767112732,0.5512427091598511,0.46775364875793457
1772527240197457400,3.87745751953125,0.47075244784355164,0.27168482542037964,0.7523055076599121
1772527240207440400,3.8874404296875,0.4843769371509552,-0.05595003813505173,0.9799416065216064
1772527240217422300,3.89742236328125,0.5188558101654053,-0.35757920145988464,1.1140130758285522
1772527240227404300,3.907404296875,0.6506186127662659,-0.5897373557090759,1.1358624696731567
1772527240237387500,3.917387451171875,0.8698175549507141,-0.6158440113067627,1.0334335565567017
1772527240247369200,3.927369140625,1.093062162399292,-0.4194158911705017,0.7387977242469788
1772527240257351400,3.937351318359375,1.1541153192520142,-0.09219365566968918,0.26520878076553345
1772527240267334100,3.947334228515625,0.9673505425453186,0.32867687940597534,-0.2427319437265396
1772527240277316400,3.95731640625,0.6531808376312256,0.6391120553016663,-0.694234311580658
1772527240287299300,3.96729931640625,0.3366644084453583,0.8411591053009033,-1.0881643295288086
1772527240297281300,3.97728125,0.17949217557907104,1.0913819074630737,-1.326314091682434
1772527240307263500,3.987263427734375,0.1495656967163086,1.3755908012390137,-1.3180173635482788
1772527240317246200,3.99724609375,0.14652849733829498,1.5175796747207642,-1.1322072744369507
1772527240327228400,4.007228515625,0.16187788546085358,1.4472943544387817,-0.8388524055480957
1772527240337210400,4.01721044921875,0.2165008932352066,1.1692270040512085,-0.5082710385322571
1772527240347193300,4.027193359375,0.32105475664138794,0.8065896034240723,-0.20843984186649323
1772527240357175300,4.03717529296875,0.4002835154533386,0.4745604991912842,0.05215606093406677
1772527240367158500,4.047158447265625,0.3731685280799866,0.19615283608436584,0.2887907326221466
1772527240377140200,4.05714013671875,0.18718597292900085,0.039407890290021896,0.5471324324607849
1772527240387122400,4.067122314453125,-0.097496896982193,0.02505718171596527,0.806090235710144
1772527240397105200,4.077105224609375,-0.3560428023338318,0.1254512369632721,1.036055088043213
1772527240407087400,4.08708740234375,-0.5014244914054871,0.2772921919822693,1.2350611686706543
1772527240417069300,4.0970693359375,-0.5037137866020203,0.35864683985710144,1.3756561279296875
1772527240427052300,4.10705224609375,-0.4087444245815277,0.33965665102005005,1.3602676391601562
1772527240437034500,4.117034423828125,-0.27225247025489807,0.19885879755020142,1.1639167070388794
1772527240447016200,4.12701611328125,-0.14943385124206543,-0.08574416488409042,0.8473564386367798
1772527240456999400,4.13699951171875,-0.09884819388389587,-0.4273371994495392,0.5689016580581665
1772527240466981400,4.1469814453125,-0.11727646738290787,-0.6928091049194336,0.4572342336177826
1772527240476964400,4.15696435546875,-0.1825503557920456,-0.8325226902961731,0.5147473812103271
1772527240486946300,4.1669462890625,-0.22399553656578064,-0.9054461717605591,0.655529260635376
1772527240496928300,4.17692822265625,-0.18578514456748962,-0.9180796146392822,0.7791655659675598
1772527240506911200,4.1869111328125,-0.09560331702232361,-0.8946664333343506,0.8317209482192993
1772527240516893400,4.1968935546875,0.013799765147268772,-0.8910245299339294,0.776577353477478
1772527240526875100,4.206875244140625,0.12689489126205444,-0.8947433233261108,0.6241281628608704
1772527240536858400,4.2168583984375,0.21991069614887238,-0.8868242502212524,0.42310333251953125
1772527240546840000,4.226840087890625,0.28289395570755005,-0.8757097721099854,0.20537206530570984
1772527240556823300,4.2368232421875,0.3284214437007904,-0.8732500672340393,-0.015812786296010017
1772527240566805200,4.24680517578125,0.37733492255210876,-0.8096942901611328,-0.2577873170375824
1772527240576787200,4.256787109375,0.40768903493881226,-0.6934223771095276,-0.5723302364349365
1772527240586770200,4.266770263671875,0.4135485291481018,-0.4859829246997833,-0.9840959906578064
1772527240596752400,4.27675244140625,0.4004296660423279,-0.15099218487739563,-1.4884120225906372
1772527240606734300,4.286734375,0.3567865788936615,0.29415997862815857,-2.096693754196167
1772527240616717300,4.29671728515625,0.28271326422691345,0.9375887513160706,-2.800962448120117
1772527240626699300,4.30669921875,0.30322253704071045,1.557397723197937,-3.504209280014038
1772527240636682200,4.31668212890625,0.46297112107276917,1.889284610748291,-4.176246166229248
1772527240646664400,4.32666455078125,0.6223756670951843,1.8218505382537842,-4.921107769012451
1772527240656646100,4.336646240234375,0.8097821474075317,1.4172955751419067,-5.687751293182373
1772527240666629400,4.34662939453125,1.021952748298645,0.8730510473251343,-6.374584197998047
1772527240676611300,4.356611328125,1.2651126384735107,0.23121501505374908,-6.857719421386719
1772527240686593300,4.36659326171875,1.3539249897003174,-0.17216946184635162,-6.907519340515137
1772527240696576300,4.376576171875,1.1308047771453857,-0.17477165162563324,-6.31524133682251
1772527240706558200,4.38655810546875,0.7525030970573425,-0.17883749306201935,-5.247354507446289
1772527240716540400,4.39654052734375,0.43635115027427673,-0.3273738920688629,-3.941044807434082
1772527240726523400,4.4065234375,0.32520440220832825,-0.6080976724624634,-2.689812660217285
1772527240736505300,4.41650537109375,0.31008172035217285,-0.8357068300247192,-1.6415417194366455
1772527240746488300,4.42648828125,0.40456852316856384,-1.0080045461654663,-0.9312001466751099
1772527240756470300,4.43647021484375,0.6345569491386414,-1.1237077713012695,-0.5663790106773376
1772527240766452200,4.4464521484375,0.9212605953216553,-1.2082072496414185,-0.39293235540390015
1772527240776435500,4.456435546875,1.1989259719848633,-1.2207108736038208,-0.27523624897003174
1772527240786417200,4.466417236328125,1.4345427751541138,-1.0294221639633179,-0.27799075841903687
1772527240796399400,4.4763994140625,1.5039650201797485,-0.6492414474487305,-0.375385046005249
1772527240806382300,4.48638232421875,1.34989333152771,-0.26116880774497986,-0.4286637306213379
1772527240816364300,4.4963642578125,1.0025262832641602,-0.01818212866783142,-0.3887026309967041
1772527240826347300,4.50634716796875,0.4709545969963074,0.19876563549041748,-0.2105906903743744
1772527240836329200,4.5163291015625,-0.15812471508979797,0.30761080980300903,0.13896216452121735
1772527240846311400,4.5263115234375,-0.7137650847434998,0.21066799759864807,0.6922871470451355
1772527240856294400,4.53629443359375,-1.1016550064086914,0.06568684428930283,1.402907133102417
1772527240866276400,4.5462763671875,-1.326827049255371,-0.04117115959525108,2.1180191040039062
1772527240876258300,4.55625830078125,-1.447959303855896,-0.11401679366827011,2.757098436355591
1772527240886241300,4.5662412109375,-1.460884690284729,-0.16799107193946838,3.2607641220092773
1772527240896223200,4.57622314453125,-1.3530582189559937,-0.12125875055789948,3.6027016639709473
1772527240906206500,4.58620654296875,-1.1641064882278442,0.03901374340057373,3.7798407077789307
1772527240916188200,4.596188232421875,-0.9714049100875854,0.26863157749176025,3.7889461517333984
1772527240926170400,4.60617041015625,-0.8148720264434814,0.541442334651947,3.6583127975463867
1772527240936153300,4.6161533203125,-0.7201865315437317,0.6821855902671814,3.451054096221924
1772527240946135300,4.62613525390625,-0.6724418997764587,0.6727817058563232,3.2093095779418945
1772527240956117500,4.636117431640625,-0.6670577526092529,0.5049307346343994,2.9389092922210693
1772527240966100200,4.646100341796875,-0.7081535458564758,0.28794726729393005,2.6428213119506836
1772527240976082400,4.65608251953125,-0.7798384428024292,0.17522378265857697,2.351755142211914
1772527240986064100,4.666064208984375,-0.8668490052223206,0.15425270795822144,2.0789597034454346
1772527240996047400,4.67604736328125,-0.971152126789093,0.1696779429912567,1.8474830389022827
1772527241006029300,4.686029296875,-1.0859423875808716,0.19764459133148193,1.6892918348312378
1772527241016012300,4.69601220703125,-1.1772056818008423,0.22195565700531006,1.6353145837783813
1772527241025994200,4.705994140625,-1.2312039136886597,0.2598668336868286,1.710518479347229
1772527241035976200,4.71597607421875,-1.2358888387680054,0.3819666802883148,1.8845714330673218
1772527241045959000,4.725958984375,-1.1909288167953491,0.560349702835083,2.10701322555542
1772527241055941000,4.735941162109375,-1.072015643119812,0.7293058633804321,2.3047049045562744
1772527241065923000,4.745923095703125,-0.8560570478439331,0.8882084488868713,2.3920698165893555
1772527241075906000,4.755906005859375,-0.577767014503479,0.921874463558197,2.3616185188293457
1772527241085888300,4.76588818359375,-0.2587043344974518,0.5771732330322266,2.1636149883270264
1772527241095871000,4.77587109375,0.14359483122825623,-0.14017784595489502,1.792084813117981
1772527241105853200,4.785853271484375,0.6029908657073975,-0.762196958065033,1.19650399684906
1772527241115835000,4.7958349609375,1.0265798568725586,-1.1341915130615234,0.4369935691356659
1772527241125818000,4.805818115234375,1.2303662300109863,-1.504156231880188,-0.4159122407436371
1772527241135800000,4.815800048828125,1.005431056022644,-1.7819701433181763,-1.1662434339523315
1772527241145782000,4.825781982421875,0.510296642780304,-1.7347685098648071,-1.7086219787597656
1772527241155765000,4.835764892578125,0.043789636343717575,-1.3622537851333618,-1.9193228483200073
1772527241165747200,4.845747314453125,-0.2557656764984131,-1.1084859371185303,-1.7331682443618774
1772527241175730000,4.85572998046875,-0.44345471262931824,-0.9106208086013794,-1.1797230243682861
1772527241185712000,4.865712158203125,-0.6583507657051086,-0.37930235266685486,-0.37714576721191406
1772527241195694000,4.875694091796875,-0.8637208938598633,0.2745768427848816,0.4337362051010132
1772527241205677000,4.885677001953125,-0.8525651693344116,0.6910576820373535,0.9192679524421692
1772527241215659300,4.8956591796875,-0.6821828484535217,0.6483325362205505,0.7549126148223877
1772527241225641000,4.905640869140625,-0.48462364077568054,0.2128751277923584,-0.03923909366130829
1772527241235624200,4.915624267578125,-0.41520485281944275,-0.3706054985523224,-1.080582857131958
1772527241245606000,4.92560595703125,-0.45527637004852295,-0.829289972782135,-1.955160140991211
1772527241255588000,4.935588134765625,-0.45520293712615967,-1.1830106973648071,-2.511359930038452
1772527241265571000,4.945571044921875,-0.4387994408607483,-1.4967057704925537,-2.7254996299743652
1772527241275553000,4.955552978515625,-0.4093480408191681,-1.5379297733306885,-2.599771022796631
1772527241285536000,4.965535888671875,-0.3261311948299408,-1.2402269840240479,-2.2253100872039795
1772527241295518200,4.975518310546875,-0.21882525086402893,-0.7072720527648926,-1.7513699531555176
1772527241305500000,4.9855,-0.17340689897537231,-0.08266168087720871,-1.2230371236801147
1772527241315483100,4.995483154296875,-0.11937225610017776,0.48209258913993835,-0.675381600856781
1772527241325465000,5.005465087890625,0.006616029888391495,0.7958164215087891,-0.16884785890579224
1772527241335447000,5.015447021484375,0.2060272991657257,0.8259695172309875,0.3018542230129242
1772527241345430000,5.025429931640625,0.43535369634628296,0.6162914037704468,0.7365154027938843
1772527241355412000,5.035411865234375,0.6036621332168579,0.28894782066345215,1.1297872066497803
1772527241365395000,5.04539501953125,0.64028400182724,0.09569473564624786,1.4443649053573608
1772527241375377200,5.055377197265625,0.6305397152900696,0.153069406747818,1.6652131080627441
1772527241385359000,5.065359130859375,0.6190963387489319,0.39278241991996765,1.804803490638733
1772527241395342000,5.075342041015625,0.600627601146698,0.7759844660758972,1.8947802782058716
1772527241405324000,5.085323974609375,0.5577940940856934,1.2265501022338867,1.9450256824493408
1772527241415306000,5.095305908203125,0.4773179292678833,1.621332049369812,1.937544822692871
1772527241425289200,5.105289306640625,0.4105130434036255,1.9620314836502075,1.9020110368728638
1772527241435271000,5.11527099609375,0.37928250432014465,2.1791326999664307,1.831499695777893
1772527241445254100,5.125254150390625,0.3546924591064453,2.1869957447052,1.7106491327285767
1772527241455235800,5.13523583984375,0.26635682582855225,1.890331506729126,1.4872236251831055
1772527241465218000,5.145218017578125,0.13211460411548615,1.3293142318725586,1.1913427114486694
1772527241475201000,5.155200927734375,0.012995336204767227,0.7629585266113281,0.9297614693641663
1772527241485183000,5.165182861328125,-0.07472120225429535,0.21989363431930542,0.720500648021698
1772527241495165200,5.175165283203125,-0.12779398262500763,-0.227409228682518,0.5574829578399658
1772527241505148200,5.185148193359375,-0.1367480605840683,-0.4563071131706238,0.42952343821525574
1772527241515130000,5.195130126953125,-0.11088044196367264,-0.5031040906906128,0.3047949969768524
1772527241525112000,5.205112060546875,-0.06942833960056305,-0.4873565137386322,0.1919025033712387
1772527241535095000,5.215094970703125,-0.05637518689036369,-0.3110782504081726,0.13024243712425232
1772527241545077000,5.225076904296875,-0.029778461903333664,-0.02395542338490486,0.09647195786237717
1772527241555060200,5.235060302734375,-0.04509114474058151,-0.015625949949026108,0.045936331152915955
1772527241565042000,5.2450419921875,-0.07749462127685547,-0.4204629063606262,-0.10100863873958588
1772527241575024000,5.255024169921875,-0.0018018689006567001,-0.8711538910865784,-0.35695844888687134
1772527241585006800,5.2650068359375,0.1867600530385971,-0.8403909206390381,-0.5986558198928833
1772527241594989000,5.274989013671875,0.1915704756975174,-0.34666335582733154,-0.832693338394165
1772527241604971300,5.28497119140625,-0.30208903551101685,-0.6154543161392212,-1.1476408243179321
1772527241614954000,5.2949541015625,-0.9278155565261841,-1.4603055715560913,-1.4205589294433594
1772527241624936200,5.304936279296875,-1.1974263191223145,-1.4675209522247314,-1.317704200744629
1772527241634919200,5.314919189453125,-0.7965799570083618,-0.24117892980575562,-0.6244540810585022
1772527241644901000,5.324901123046875,0.2138872742652893,1.4409217834472656,0.3571045398712158
1772527241654883000,5.334883056640625,1.301597237586975,2.325840950012207,1.0061542987823486
1772527241664866000,5.344865966796875,1.8451091051101685,2.3199262619018555,1.0791006088256836
1772527241674848000,5.354847900390625,1.677398920059204,1.8863130807876587,0.7187194228172302
1772527241684830000,5.364829833984375,1.12825608253479,1.3601826429367065,0.11626606434583664
1772527241694813000,5.37481298828125,0.46212074160575867,0.8626500964164734,-0.5470666289329529
1772527241704795100,5.384795166015625,-0.08942443877458572,0.3677724599838257,-1.106611728668213
1772527241714777000,5.394777099609375,-0.30516868829727173,0.14679090678691864,-1.38192880153656
1772527241724760000,5.404760009765625,-0.2893681526184082,0.16744345426559448,-1.3742966651916504
1772527241734742300,5.4147421875,-0.13812288641929626,0.16423454880714417,-1.2229218482971191
1772527241744725000,5.42472509765625,0.23199740052223206,-0.06875050812959671,-1.1474993228912354
1772527241754707200,5.434707275390625,0.6508931517601013,-0.45801255106925964,-1.1810420751571655
1772527241764689000,5.44468896484375,0.8529461622238159,-0.8233188986778259,-1.18563973903656
1772527241774672100,5.454672119140625,0.7931993007659912,-0.9964964985847473,-1.1246793270111084
1772527241784654000,5.464654052734375,0.5403366684913635,-0.9688549637794495,-1.0096973180770874
1772527241794636000,5.474635986328125,0.21504883468151093,-0.9399684071540833,-0.8474109172821045
1772527241804619000,5.484618896484375,-0.13460929691791534,-0.9533941745758057,-0.6138855218887329
1772527241814601000,5.49460107421875,-0.5040714740753174,-0.8975854516029358,-0.35707899928092957
1772527241824584000,5.504583984375,-0.8250079154968262,-0.6049674153327942,-0.10211462527513504
1772527241834566100,5.514566162109375,-1.0002224445343018,-0.21271546185016632,0.11156976222991943
1772527241844548000,5.524548095703125,-0.9640874266624451,0.09482955932617188,0.22870437800884247
1772527241854531000,5.534531005859375,-0.7966321706771851,0.36114445328712463,0.281926691532135
1772527241864513300,5.54451318359375,-0.5880392789840698,0.6017024517059326,0.3247487246990204
1772527241874495000,5.554494873046875,-0.35509195923805237,0.7703297734260559,0.38588789105415344
1772527241884478200,5.564478271484375,-0.10842571407556534,0.8238728642463684,0.4576241374015808
1772527241894460000,5.5744599609375,0.11771637946367264,0.7723870873451233,0.5390851497650146
1772527241904443100,5.584443115234375,0.2771070897579193,0.6568629145622253,0.6386069655418396
1772527241914425000,5.594425048828125,0.3342719078063965,0.4779329299926758,0.7320766448974609
1772527241924407000,5.604406982421875,0.3098773658275604,0.2907254993915558,0.8290234208106995
1772527241934390000,5.61439013671875,0.26026809215545654,0.12958291172981262,0.9262973666191101
1772527241944372200,5.624372314453125,0.21813955903053284,-0.01953679881989956,1.0234357118606567
1772527241954354000,5.63435400390625,0.19738849997520447,-0.17879325151443481,1.1134941577911377
1772527241964337200,5.644337158203125,0.16993024945259094,-0.300158828496933,1.1787503957748413
1772527241974319000,5.654319091796875,0.16117967665195465,-0.35148531198501587,1.2335480451583862
1772527241984301000,5.664301025390625,0.2139294445514679,-0.3839159309864044,1.2598397731781006
1772527241994284000,5.674283935546875,0.32104605436325073,-0.5067345499992371,1.180554986000061
1772527242004266000,5.684265869140625,0.4837838411331177,-0.6776348948478699,0.9523723125457764
1772527242014249000,5.6942490234375,0.6594370603561401,-0.7167665362358093,0.6215252876281738
1772527242024231000,5.70423095703125,0.8180125951766968,-0.7452682256698608,0.3034961223602295
1772527242034213600,5.714213623046875,0.9359627962112427,-0.7480767369270325,-0.039204128086566925
1772527242044196400,5.7241962890625,1.036794662475586,-0.7569596767425537,-0.39734095335006714
1772527242054178600,5.734178466796875,1.1738390922546387,-0.7486624121665955,-0.7357484102249146
1772527242064160500,5.744160400390625,1.3547865152359009,-0.69497150182724,-1.025039553642273
1772527242074143500,5.7541435546875,1.4843313694000244,-0.676194965839386,-1.252256989479065
1772527242084125400,5.76412548828125,1.430328369140625,-0.7306718230247498,-1.437994360923767
1772527242094108700,5.774108642578125,1.1572898626327515,-0.873909056186676,-1.5809226036071777
1772527242104090400,5.78409033203125,0.7254014015197754,-1.1570923328399658,-1.6536396741867065
1772527242114072600,5.794072509765625,0.18940791487693787,-1.4763412475585938,-1.6225364208221436
1772527242124055300,5.80405517578125,-0.37049612402915955,-1.7085524797439575,-1.5065251588821411
1772527242134037500,5.81403759765625,-0.8203706741333008,-1.6787974834442139,-1.334771752357483
1772527242144019500,5.82401953125,-1.1048308610916138,-1.4126901626586914,-1.155967354774475
1772527242154002400,5.83400244140625,-1.2104970216751099,-1.0352534055709839,-0.9682600498199463
1772527242163984600,5.843984619140625,-1.0956485271453857,-0.42263558506965637,-0.6880696415901184
1772527242173966300,5.85396630859375,-0.7874822020530701,0.515613853931427,-0.3106270134449005
1772527242183949600,5.863949462890625,-0.36886048316955566,1.4751965999603271,-0.0043823979794979095
1772527242193931500,5.873931640625,-0.02439642697572708,2.033623456954956,-0.01057949848473072
1772527242203914500,5.88391455078125,0.150169238448143,2.0813467502593994,-0.37317925691604614
1772527242213896400,5.893896484375,0.20487628877162933,1.7416733503341675,-0.9400949478149414
1772527242223878400,5.90387841796875,0.1454917937517166,1.229544758796692,-1.4421488046646118
1772527242233861400,5.913861328125,-0.0047586518339812756,0.7454974055290222,-1.6781821250915527
1772527242243843600,5.923843505859375,-0.15493643283843994,0.3330773711204529,-1.6464638710021973
1772527242253825500,5.933825439453125,-0.20860834419727325,-0.013784186914563179,-1.4346250295639038
1772527242263808500,5.94380859375,-0.2029283493757248,-0.19113872945308685,-1.1497002840042114
1772527242273790500,5.95379052734375,-0.15259160101413727,-0.11016888916492462,-0.850003719329834
1772527242283773400,5.9637734375,-0.05532576143741608,0.17598776519298553,-0.5661336183547974
1772527242293755600,5.973755615234375,0.09658388793468475,0.5629328489303589,-0.3162398934364319
1772527242303737300,5.9837373046875,0.2913738787174225,0.9502313137054443,-0.08020366728305817
1772527242313720600,5.993720458984375,0.4723675549030304,1.2234808206558228,0.1601959764957428
1772527242323702500,6.00370263671875,0.5764899253845215,1.2829521894454956,0.4118916094303131
1772527242333684500,6.0136845703125,0.5999295115470886,1.1123225688934326,0.6849673390388489
1772527242343667500,6.02366748046875,0.5472249984741211,0.7344224452972412,0.9703215956687927
1772527242353649400,6.0336494140625,0.41159501671791077,0.21316854655742645,1.2370072603225708
1772527242363632400,6.04363232421875,0.1981905847787857,-0.36647430062294006,1.4648692607879639
1772527242373614600,6.053614501953125,-0.042326975613832474,-0.8835156559944153,1.6573110818862915
1772527242383596500,6.063596435546875,-0.25228312611579895,-1.201744794845581,1.8034512996673584
1772527242393579500,6.07357958984375,-0.41892170906066895,-1.3118194341659546,1.889150857925415
1772527242403561500,6.0835615234375,-0.5410675406455994,-1.21869695186615,1.9066132307052612
1772527242413543400,6.09354345703125,-0.6528322696685791,-0.9872496724128723,1.8346506357192993
1772527242423526400,6.1035263671875,-0.7647367119789124,-0.6833047270774841,1.6914987564086914
1772527242433508400,6.11350830078125,-0.8420022130012512,-0.3694864511489868,1.5027251243591309
1772527242443490600,6.123490478515625,-0.8711406588554382,-0.10421884059906006,1.277861475944519
1772527242453473500,6.1334736328125,-0.8565177321434021,0.0780627578496933,1.018552303314209
1772527242463455500,6.14345556640625,-0.8080514073371887,0.1389319747686386,0.736724853515625
1772527242473438500,6.1534384765625,-0.7776777148246765,0.07547927647829056,0.471123069524765
1772527242483420400,6.16342041015625,-0.8111187815666199,-0.06594470143318176,0.2727721631526947
1772527242493402400,6.17340234375,-0.8927262425422668,-0.23100873827934265,0.17570488154888153
1772527242503385600,6.183385498046875,-0.9974790215492249,-0.2971411645412445,0.1718166619539261
1772527242513367300,6.1933671875,-1.062600016593933,-0.161314457654953,0.27062857151031494
1772527242523349500,6.203349609375,-1.091062068939209,0.06171196699142456,0.3967646658420563
1772527242533332500,6.21333251953125,-1.0624895095825195,0.1944095641374588,0.4782824218273163
1772527242543314400,6.223314453125,-1.0056939125061035,0.0837714672088623,0.4756496250629425
1772527242553297400,6.23329736328125,-0.9130918383598328,-0.25450122356414795,0.43126922845840454
1772527242563279400,6.243279296875,-0.7462500929832458,-0.5671432614326477,0.40895646810531616
1772527242573261600,6.253261474609375,-0.4960736930370331,-0.6940801739692688,0.44551509618759155
1772527242583244500,6.26324462890625,-0.23414112627506256,-0.8599135875701904,0.3848938047885895
1772527242593226500,6.2732265625,0.009914325550198555,-1.0623587369918823,0.15828098356723785
1772527242603208400,6.28320849609375,0.2990257740020752,-1.0930383205413818,-0.198113352060318
1772527242613191400,6.29319140625,0.6443548202514648,-0.8096784949302673,-0.5382096171379089
1772527242623173400,6.30317333984375,0.9886786341667175,-0.2851790487766266,-0.7235006093978882
1772527242633155600,6.313155517578125,1.2742499113082886,0.14705465734004974,-0.7937883138656616
1772527242643138300,6.32313818359375,1.4996284246444702,0.45818671584129333,-0.7895922660827637
1772527242653120500,6.33312060546875,1.5585641860961914,0.5148248076438904,-0.7863178253173828
1772527242663103500,6.343103515625,1.475149154663086,0.3192419409751892,-0.8301516175270081
1772527242673085400,6.35308544921875,1.3353663682937622,0.07478515803813934,-0.891600489616394
1772527242683067600,6.363067626953125,1.1434365510940552,-0.12389731407165527,-0.9502438306808472
1772527242693050400,6.37305029296875,0.9279532432556152,-0.21616128087043762,-0.9891247749328613
1772527242703032600,6.383032470703125,0.7371878623962402,-0.15143075585365295,-1.0301645994186401
1772527242713014300,6.39301416015625,0.5799328088760376,0.0916091799736023,-1.0854219198226929
1772527242722997500,6.40299755859375,0.4640498757362366,0.42425504326820374,-1.1964703798294067
1772527242732979500,6.4129794921875,0.46764782071113586,0.6955204010009766,-1.3865256309509277
1772527242742962400,6.42296240234375,0.5643437504768372,0.7628440856933594,-1.651261329650879
1772527242752944400,6.4329443359375,0.6803538203239441,0.6414302587509155,-1.9379547834396362
1772527242762926600,6.442926513671875,0.7695305347442627,0.43101975321769714,-2.192573308944702
1772527242772909300,6.452909423828125,0.8213695287704468,0.2018251270055771,-2.380066394805908
1772527242782891500,6.4628916015625,0.834208071231842,0.010145436972379684,-2.445904016494751
1772527242792873500,6.47287353515625,0.7905842661857605,-0.07848014682531357,-2.3674299716949463
1772527242802856400,6.4828564453125,0.7189154028892517,-0.0020647302735596895,-2.122382640838623
1772527242812838700,6.492838623046875,0.6078879237174988,0.3237285315990448,-1.7000913619995117
1772527242822820400,6.5028203125,0.4574587345123291,0.7119806408882141,-1.1768035888671875
1772527242832803600,6.512803466796875,0.2965267300605774,0.994228184223175,-0.6140621900558472
1772527242842785300,6.522785400390625,0.13533547520637512,1.1393555402755737,-0.037120286375284195
1772527242852768500,6.5327685546875,-0.02081475779414177,1.1757097244262695,0.543156087398529
1772527242862750500,6.54275048828125,-0.1669088453054428,1.1229267120361328,1.0792123079299927
1772527242872732400,6.552732421875,-0.29453036189079285,0.955413818359375,1.5190870761871338
1772527242882715400,6.56271533203125,-0.39944371581077576,0.6553575992584229,1.820915699005127
1772527242892697600,6.572697509765625,-0.48088133335113525,0.30301496386528015,2.013282537460327
1772527242902679600,6.582679443359375,-0.5385347604751587,0.03306736797094345,2.102077007293701
1772527242912662500,6.59266259765625,-0.5832712054252625,-0.07926033437252045,2.1199538707733154
1772527242922644500,6.60264453125,-0.6079486012458801,-0.04442964866757393,2.093189239501953
1772527242932627500,6.61262744140625,-0.6108194589614868,0.12613582611083984,2.0160653591156006
1772527242942609700,6.622609619140625,-0.6145287156105042,0.3659420311450958,1.88447904586792
1772527242952591400,6.63259130859375,-0.6187366247177124,0.6084875464439392,1.683725118637085
1772527242962574600,6.64257470703125,-0.6352264285087585,0.7948656678199768,1.4337557554244995
1772527242972556500,6.652556640625,-0.6411203145980835,0.9122385382652283,1.1798901557922363
1772527242982538500,6.66253857421875,-0.6049503087997437,1.0440000295639038,0.9718996286392212
1772527242992521500,6.672521484375,-0.5107943415641785,1.2494957447052002,0.8386986255645752
1772527243002503400,6.68250341796875,-0.3868303596973419,1.4541199207305908,0.7425073981285095
1772527243012485600,6.692485595703125,-0.32095038890838623,1.4909604787826538,0.5968154668807983
1772527243022468600,6.702468505859375,-0.3579068183898926,1.3105545043945312,0.3681063950061798
1772527243032450300,6.7124501953125,-0.5107466578483582,0.9251750111579895,0.12756319344043732
1772527243042433300,6.722433349609375,-0.7535438537597656,0.4655107855796814,-0.012955568730831146
1772527243052415500,6.73241552734375,-0.9231216907501221,-0.08359865844249725,-0.11488405615091324
1772527243062397200,6.742397216796875,-0.8461595177650452,-0.7407227158546448,-0.2563018798828125
1772527243072380400,6.75238037109375,-0.48295503854751587,-1.1212245225906372,-0.3394550383090973
1772527243082362400,6.7623623046875,0.07975676655769348,-1.1336252689361572,-0.33470606803894043
1772527243092344300,6.77234423828125,0.7256998419761658,-1.0431816577911377,-0.316734254360199
1772527243102327300,6.782327392578125,1.263305425643921,-1.0109912157058716,-0.4108527600765228
1772527243112309200,6.792309326171875,1.5322126150131226,-0.9580849409103394,-0.6794708371162415
1772527243122292200,6.802292236328125,1.4762049913406372,-0.7625617980957031,-1.061597228050232
1772527243132274400,6.8122744140625,1.1793698072433472,-0.451812744140625,-1.4403164386749268
1772527243142256400,6.82225634765625,0.8021212816238403,-0.1830451935529709,-1.8157981634140015
1772527243152239400,6.8322392578125,0.49061134457588196,0.23659150302410126,-2.0880918502807617
1772527243162221300,6.84222119140625,0.3341037631034851,0.7089568972587585,-2.2660820484161377
1772527243172203300,6.852203369140625,0.3685695230960846,1.1441289186477661,-2.3589866161346436
1772527243182186200,6.862186279296875,0.5755770206451416,1.510035514831543,-2.3480377197265625
1772527243192168200,6.872168212890625,0.8863890171051025,1.78594172000885,-2.2172470092773438
1772527243202150400,6.882150390625,1.1734613180160522,1.8508421182632446,-2.013488531112671
1772527243212133400,6.89213330078125,1.3326842784881592,1.6724094152450562,-1.7598665952682495
1772527243222115300,6.902115234375,1.3280149698257446,1.2883338928222656,-1.498080849647522
1772527243232098300,6.912098388671875,1.1497501134872437,0.6269143223762512,-1.3236863613128662
1772527243242080300,6.922080322265625,0.863919198513031,-0.2159777581691742,-1.251777172088623
1772527243252062200,6.932062255859375,0.5497983694076538,-0.9249215722084045,-1.2258330583572388
1772527243262045400,6.94204541015625,0.257241815328598,-1.2642812728881836,-1.2052953243255615
1772527243272027100,6.952027099609375,-0.0055547431111335754,-1.249930739402771,-1.1783586740493774
1772527243282009300,6.96200927734375,-0.19859051704406738,-1.0015246868133545,-1.118162751197815
1772527243291992300,6.971992431640625,-0.32945016026496887,-0.6546330451965332,-0.9981580972671509
1772527243301974300,6.981974365234375,-0.38877126574516296,-0.2882598340511322,-0.7977243661880493
1772527243311957200,6.991957275390625,-0.39916861057281494,0.10148351639509201,-0.5276229381561279
1772527243321939200,7.001939208984375,-0.36100444197654724,0.4720037877559662,-0.22099938988685608
1772527243331921400,7.01192138671875,-0.28243622183799744,0.755666196346283,0.08546874672174454
1772527243341904400,7.021904296875,-0.18179908394813538,0.9036487340927124,0.37547609210014343
1772527243351886300,7.03188623046875,-0.1027492880821228,0.9115146398544312,0.6123706698417664
1772527243361868300,7.041868408203125,-0.04437705874443054,0.8740087747573853,0.81818026304245
1772527243371851300,7.051851318359375,-0.014777245000004768,0.8178852796554565,1.0011651515960693
1772527243381833200,7.061833251953125,-0.026355070993304253,0.7346170544624329,1.1445355415344238
1772527243391815400,7.0718154296875,-0.0745791643857956,0.6393848061561584,1.260447382926941
1772527243401798100,7.081798095703125,-0.1341753900051117,0.5642485618591309,1.328149437904358
1772527243411780400,7.0917802734375,-0.20565266907215118,0.4869648516178131,1.3346505165100098
1772527243421763300,7.101763427734375,-0.27879130840301514,0.41394472122192383,1.2743340730667114
1772527243431745300,7.111745361328125,-0.3561730980873108,0.3766923248767853,1.1696768999099731
1772527243441727500,7.1217275390625,-0.44226405024528503,0.3951035737991333,1.0705808401107788
1772527243451710200,7.131710205078125,-0.5040963292121887,0.48607000708580017,0.9785869121551514
1772527243461692400,7.1416923828125,-0.5213038325309753,0.6371181011199951,0.9084842205047607
1772527243471674000,7.151674072265625,-0.4741469621658325,0.8440569043159485,0.8418221473693848
1772527243481657300,7.1616572265625,-0.37243950366973877,1.0301159620285034,0.7870140075683594
1772527243491639300,7.171639404296875,-0.270402193069458,1.0237541198730469,0.73494952917099
1772527243501622300,7.181622314453125,-0.19608616828918457,0.7808263301849365,0.7062276005744934
1772527243511604200,7.191604248046875,-0.1586129069328308,0.4621422290802002,0.7109790444374084
1772527243521586400,7.20158642578125,-0.1574709415435791,0.19960913062095642,0.6895648241043091
1772527243531569200,7.211569091796875,-0.22412967681884766,-0.1589001566171646,0.5198837518692017
1772527243541551400,7.22155126953125,-0.30425193905830383,-0.8536083102226257,0.15633590519428253
1772527243551533300,7.231533203125,-0.2068765014410019,-1.6574307680130005,-0.2844105064868927
1772527243561516300,7.241516357421875,0.16842041909694672,-2.087815999984741,-0.5621816515922546
1772527243571498500,7.25149853515625,0.6857308149337769,-1.8919986486434937,-0.5461163520812988
1772527243581480200,7.261480224609375,1.0887337923049927,-1.2203768491744995,-0.3092004358768463
1772527243591463400,7.27146337890625,1.2598471641540527,-0.4809962213039398,-0.012320837005972862
1772527243601445000,7.281445068359375,1.2076705694198608,0.0376429483294487,0.14305436611175537
1772527243611428400,7.291428466796875,0.9898862242698669,0.40143221616744995,0.13012124598026276
1772527243621410300,7.301410400390625,0.6117117404937744,0.6818683743476868,-0.01741228625178337
1772527243631392300,7.311392333984375,0.16627711057662964,0.7384511828422546,-0.231857031583786
1772527243641375200,7.321375244140625,-0.1851685345172882,0.5297472476959229,-0.46586471796035767
1772527243651357400,7.331357421875,-0.2914024889469147,0.207784041762352,-0.6757818460464478
1772527243661339400,7.34133935546875,-0.2139979749917984,-0.06657268106937408,-0.8625487685203552
1772527243671322400,7.351322265625,-0.05839984863996506,-0.17589597404003143,-1.0286860466003418
1772527243681304300,7.36130419921875,0.1649341732263565,-0.21770121157169342,-1.1747101545333862
1772527243691287300,7.371287353515625,0.48576387763023376,-0.29007869958877563,-1.2803372144699097
1772527243701269500,7.38126953125,0.8624892830848694,-0.3584170341491699,-1.3026131391525269
1772527243711251200,7.391251220703125,1.182309627532959,-0.2997109591960907,-1.2566038370132446
1772527243721234400,7.401234375,1.333866834640503,-0.03219562768936157,-1.2050347328186035
1772527243731216100,7.411216064453125,1.2664940357208252,0.30843082070350647,-1.1970471143722534
1772527243741198300,7.4211982421875,1.0244231224060059,0.6416622996330261,-1.2011034488677979
1772527243751181300,7.431181396484375,0.670500636100769,0.8700490593910217,-1.1749436855316162
1772527243761163300,7.441163330078125,0.266462117433548,0.8945863842964172,-1.0843586921691895
1772527243771145200,7.451145263671875,-0.12019333243370056,0.7154238224029541,-0.9266269207000732
1772527243781128400,7.46112841796875,-0.4335448741912842,0.45863884687423706,-0.7362846732139587
1772527243791110400,7.4711103515625,-0.5956547856330872,0.1784147471189499,-0.5303151607513428
1772527243801093400,7.48109326171875,-0.5938906669616699,-0.10374822467565536,-0.3039512634277344
1772527243811075300,7.491075439453125,-0.4553612172603607,-0.3526630997657776,-0.04357091337442398
1772527243821057300,7.501057373046875,-0.2237652838230133,-0.5619513392448425,0.24203713238239288
1772527243831040300,7.511040283203125,0.06082863360643387,-0.6133737564086914,0.5421716570854187
1772527243841022200,7.521022216796875,0.3424006402492523,-0.48653939366340637,0.817940890789032
1772527243851004400,7.53100439453125,0.5583823919296265,-0.3010244071483612,1.0091309547424316
1772527243860987400,7.5409873046875,0.6580250859260559,-0.14332237839698792,1.106851577758789
1772527243870969300,7.55096923828125,0.6413138508796692,-0.0014222313184291124,1.1427639722824097
1772527243880951300,7.560951416015625,0.5177512168884277,0.08157998323440552,1.138975977897644
1772527243890934300,7.570934326171875,0.32768651843070984,0.0974011942744255,1.1275417804718018
1772527243900916200,7.580916259765625,0.12491263449192047,0.09683846682310104,1.1332340240478516
1772527243910899500,7.5908994140625,-0.0050202845595777035,0.06895262002944946,1.1503627300262451
1772527243920881200,7.600881103515625,-0.0490465983748436,-0.0005106080789119005,1.154493808746338
1772527243930863400,7.61086328125,-0.03833840414881706,-0.03905583918094635,1.144146203994751
1772527243940846000,7.62084619140625,-0.01524799969047308,0.01571792922914028,1.1274436712265015
1772527243950828300,7.630828369140625,-0.02470562607049942,0.1614571064710617,1.113675832748413
1772527243960810500,7.640810546875,-0.09565463662147522,0.3744133412837982,1.0826175212860107
1772527243970793200,7.650793212890625,-0.23915649950504303,0.5571392774581909,0.9921039342880249
1772527243980775400,7.660775390625,-0.4218003451824188,0.6301066875457764,0.8404970765113831
1772527243990758400,7.67075830078125,-0.5975564122200012,0.5769184231758118,0.6764927506446838
1772527244000740400,7.680740234375,-0.6762771010398865,0.38282719254493713,0.5712504386901855
1772527244010722300,7.690722412109375,-0.5998741388320923,0.23231227695941925,0.6291766166687012
1772527244020705300,7.700705322265625,-0.38014236092567444,0.20327849686145782,0.863820493221283
1772527244030687200,7.710687255859375,-0.08465239405632019,0.2148972898721695,1.1408854722976685
1772527244040669000,7.7206689453125,0.2603127360343933,0.08718673139810562,1.3128225803375244
1772527244050652000,7.73065185546875,0.5980037450790405,-0.20784258842468262,1.3090814352035522
1772527244060634000,7.740634033203125,0.6916077733039856,-0.6141501665115356,0.989867091178894
1772527244070616000,7.750615966796875,0.422980934381485,-0.8618788123130798,0.42651015520095825
1772527244080599000,7.76059912109375,-0.06467129290103912,-0.774300754070282,-0.19899582862854004
1772527244090581000,7.7705810546875,-0.476327121257782,-0.5280041098594666,-0.8399299383163452
1772527244100564000,7.78056396484375,-0.562698245048523,-0.19976122677326202,-1.4332300424575806
1772527244110546200,7.790546142578125,-0.3813691735267639,0.17256098985671997,-1.9747915267944336
1772527244120528000,7.80052783203125,-0.0935501754283905,0.5359929800033569,-2.435708999633789
1772527244130511000,7.810510986328125,0.19674023985862732,0.7928932309150696,-2.8051671981811523
1772527244140493000,7.8204931640625,0.4374186098575592,0.8148301839828491,-3.0353758335113525
1772527244150475000,7.83047509765625,0.6452339291572571,0.653484046459198,-3.038041114807129
1772527244160458000,7.8404580078125,0.7925376296043396,0.4909478724002838,-2.760446786880493
1772527244170440000,7.85043994140625,0.8234754204750061,0.4214320778846741,-2.235928773880005
1772527244180423000,7.8604228515625,0.7307620048522949,0.432494580745697,-1.6036062240600586
1772527244190405000,7.870405029296875,0.5496545433998108,0.4453909993171692,-1.022534728050232
1772527244200387000,7.880386962890625,0.3321237862110138,0.43881192803382874,-0.5423452854156494
1772527244210370000,7.8903701171875,0.15709379315376282,0.47952359914779663,-0.12137934565544128
1772527244220352300,7.900352294921875,0.04827331006526947,0.4953528940677643,0.28546619415283203
1772527244230334000,7.910333984375,-0.01948440819978714,0.4768922030925751,0.7077151536941528
1772527244240317200,7.920317138671875,-0.050979483872652054,0.4098151624202728,1.0808367729187012
1772527244250299000,7.930298828125,-0.038466162979602814,0.28814268112182617,1.2969404458999634
1772527244260281000,7.940281005859375,0.030510244891047478,0.19395944476127625,1.3175909519195557
1772527244270264000,7.95026416015625,0.17237095534801483,0.2602878212928772,1.2089040279388428
1772527244280246000,7.96024609375,0.29365450143814087,0.36456814408302307,1.0157558917999268
1772527244290229000,7.97022900390625,0.34790870547294617,0.4398112893104553,0.7463779449462891
1772527244300211000,7.9802109375,0.4123007655143738,0.6180137991905212,0.4613496959209442
1772527244310193200,7.990193115234375,0.478412389755249,0.8578935265541077,0.2282051295042038
1772527244320176000,8.000176025390624,0.4489671587944031,1.0354584455490112,0.06315305083990097
1772527244330158000,8.010157958984376,0.3502744734287262,1.1549031734466553,0.01827896013855934
1772527244340140000,8.02014013671875,0.21603596210479736,1.0594844818115234,0.09665339440107346
1772527244350123300,8.030123291015625,0.06221665069460869,0.8250691890716553,0.29929324984550476
1772527244360105000,8.04010498046875,-0.06942712515592575,0.48060399293899536,0.5694152116775513
1772527244370087200,8.050087158203125,-0.16785123944282532,0.1165526956319809,0.8432016372680664
1772527244380070000,8.06006982421875,-0.2212526798248291,-0.19318757951259613,1.0733944177627563
1772527244390052000,8.070052001953124,-0.26660099625587463,-0.38329336047172546,1.2214586734771729
1772527244400035000,8.08003515625,-0.2868039906024933,-0.4558440148830414,1.2547345161437988
1772527244410017000,8.09001708984375,-0.3194423317909241,-0.35728439688682556,1.1754603385925293
1772527244419999200,8.099999267578125,-0.3554874360561371,-0.14532950520515442,1.0433608293533325
1772527244429982000,8.10998193359375,-0.4102563261985779,-0.009786184877157211,0.8197619915008545
1772527244439964200,8.119964111328125,-0.48251402378082275,0.1540677398443222,0.48775503039360046
1772527244449946000,8.129946044921875,-0.526172399520874,0.2220865935087204,0.10728579759597778
1772527244459929000,8.13992919921875,-0.5104983448982239,0.13569363951683044,-0.19146600365638733
1772527244469911000,8.1499111328125,-0.43214988708496094,-0.020313898101449013,-0.34373605251312256
1772527244479894300,8.159894287109376,-0.32812443375587463,-0.1842746138572693,-0.351548433303833
1772527244489876000,8.1698759765625,-0.2381245195865631,-0.35282742977142334,-0.2735614776611328
1772527244499858200,8.179858154296875,-0.19856272637844086,-0.4135373830795288,-0.1680057793855667
1772527244509841000,8.1898408203125,-0.1999889463186264,-0.3477378189563751,-0.057354819029569626
1772527244519823000,8.199822998046875,-0.20654165744781494,-0.2602527141571045,0.01987711898982525
1772527244529805000,8.20980517578125,-0.22389550507068634,-0.21869489550590515,0.08434204757213593
1772527244539788000,8.2197880859375,-0.22345927357673645,-0.16903387010097504,0.11544457077980042
1772527244549770200,8.229770263671876,-0.20149928331375122,-0.13367700576782227,0.09714723378419876
1772527244559752000,8.239751953125,-0.1649726927280426,-0.12636929750442505,0.048370376229286194
1772527244569735200,8.249735107421875,-0.09863419085741043,-0.12169206887483597,0.0034303234424442053
1772527244579717000,8.259717041015625,0.0425434410572052,-0.0797819122672081,0.02402454800903797
1772527244589700000,8.2697001953125,0.16243399679660797,-0.1766623854637146,0.0713038295507431
1772527244599682000,8.27968212890625,0.26886191964149475,-0.23374564945697784,0.1345086395740509
1772527244609664000,8.2896640625,0.3539155125617981,-0.12388449907302856,0.20124876499176025
1772527244619647000,8.29964697265625,0.3683842122554779,0.01816318742930889,0.26400136947631836
1772527244629629200,8.309629150390625,0.3662688732147217,0.17771480977535248,0.32348814606666565
1772527244639611000,8.31961083984375,0.3375008702278137,0.241879403591156,0.35996440052986145
1772527244649594000,8.329593994140625,0.2766585648059845,0.13289596140384674,0.35515499114990234
1772527244659576000,8.339576171875,0.25516393780708313,0.05092254653573036,0.2827202081680298
1772527244669558000,8.34955810546875,0.26896601915359497,0.09692036360502243,0.12544935941696167
1772527244679541000,8.359541015625,0.2762944996356964,0.2716357111930847,-0.05694815516471863
1772527244689523000,8.36952294921875,0.21546027064323425,0.0511101596057415,-0.18992680311203003
1772527244699506000,8.379505859375,0.18829388916492462,-0.264984667301178,-0.2984095811843872
1772527244709488000,8.389488037109375,0.29295364022254944,-0.29855290055274963,-0.2893001437187195
1772527244719470000,8.399469970703125,0.37550872564315796,-0.2712315320968628,-0.255341112613678
1772527244729453000,8.409453125,0.3574067950248718,-0.21486501395702362,-0.30269619822502136
1772527244739435000,8.41943505859375,0.32272017002105713,-0.15541154146194458,-0.3746423125267029
1772527244749417000,8.4294169921875,0.22925636172294617,-0.21770425140857697,-0.37342026829719543
