time,seconds_elapsed,z,y,x
1772565876320484400,0.108484375,0.0032718637958168983,-0.016811305657029152,0.0033045276068150997
1772565876330415400,0.118415283203125,0.0027078064158558846,0.012071209028363228,-0.0027570929378271103
1772565876340347600,0.12834765625,0.00337266456335783,0.017163943499326706,-0.0034134509041905403
1772565876350278400,0.1382783203125,0.002855745144188404,-0.00745218712836504,-0.0006368393078446388
1772565876360210400,0.14821044921875,0.0020248922519385815,-0.009026465937495232,0.00002481415867805481
1772565876370141400,0.158141357421875,0.005033998284488916,0.0061532873660326,0.0006959307938814163
1772565876380073500,0.168073486328125,-0.00025953492149710655,0.0043082330375909805,-0.0049161966890096664
1772565876390005200,0.178005126953125,0.00007868651300668716,-0.0034980252385139465,-0.002533199265599251
1772565876399936500,0.1879365234375,0.0008592815138399601,-0.0014696195721626282,-0.0010978933423757553
1772565876409868500,0.19786865234375,0.003683830611407757,0.0033171456307172775,-0.0039812978357076645
1772565876419799600,0.207799560546875,0.0020393128506839275,0.007461352273821831,-0.0022331317886710167
1772565876429731300,0.2177314453125,0.002581000328063965,-0.00030389241874217987,0.0010212510824203491
1772565876439662300,0.227662353515625,0.0001701866276562214,-0.0025580255314707756,0.001045307144522667
1772565876449594600,0.2375947265625,0.0018210802227258682,0.004441294819116592,0.0006037550047039986
1772565876459525400,0.247525390625,0.0032692281529307365,0.0004866551607847214,0.000023420900106430054
1772565876469457400,0.25745751953125,0.0013464256189763546,0.0003135502338409424,0.0007227668538689613
1772565876479390500,0.267390380859375,0.0004891413263976574,-0.002462790347635746,-0.00160161592066288
1772565876489321500,0.277321533203125,0.0019506840035319328,-0.0028494810685515404,0.002436002716422081
1772565876499253500,0.28725341796875,-0.000907407607883215,0.0045501068234443665,0.0011496711522340775
1772565876509185500,0.297185546875,-0.00006797909736633301,0.002723177894949913,0.00036563631147146225
1772565876519116300,0.3071162109375,-0.0009752116166055202,-0.005308608524501324,0.002607423812150955
1772565876529048300,0.31704833984375,-0.0015832115896046162,0.0008033458143472672,0.0013775760307908058
1772565876538979600,0.3269794921875,-0.002072341274470091,0.0022237133234739304,-0.0017870524898171425
1772565876548911400,0.336911376953125,0.0010659275576472282,-0.0006202757358551025,-0.0007441584020853043
1772565876558842400,0.34684228515625,-0.0012377402745187283,-0.0030139032751321793,-0.0008133258670568466
1772565876568774400,0.3567744140625,-0.002960006706416607,0.0025329291820526123,0.0005848333239555359
1772565876578705700,0.36670556640625,-0.0011278754100203514,0.0031755194067955017,0.000539940781891346
1772565876588637400,0.376637451171875,0.0010724281892180443,-0.005306914448738098,-0.004098487086594105
1772565876598569500,0.386569580078125,-0.0014125388115644455,-0.0039545269683003426,-0.0003807470202445984
1772565876608500500,0.39650048828125,-0.00049161771312356,0.0010700598359107971,0.000028048641979694366
1772565876618432500,0.4064326171875,0.00006842240691184998,0.0022296682000160217,-0.0013732118532061577
1772565876628363300,0.41636328125,-0.0017236187122762203,-0.002348039299249649,-0.0016682902351021767
1772565876638295300,0.42629541015625,-0.0015986347571015358,-0.0022453973069787025,0.002476952038705349
1772565876648226600,0.4362265625,-0.0003261761739850044,0.0010726358741521835,-0.000995543785393238
1772565876658158600,0.44615869140625,0.0029457639902830124,0.0017554797232151031,0.0005248775705695152
1772565876668089300,0.45608935546875,0.0017718425951898098,-0.004175911657512188,0.0005264757201075554
1772565876678021400,0.466021484375,-0.002078474033623934,0.0006911270320415497,-0.0019973712041974068
1772565876687953400,0.475953369140625,-0.00019561918452382088,0.004351908341050148,-0.00325038842856884
1772565876697884700,0.485884765625,0.0006026839837431908,-0.0009678518399596214,-0.001060720533132553
1772565876707816400,0.49581640625,0.002156372182071209,-0.0021883780136704445,0.001328667625784874
1772565876717747500,0.50574755859375,0.0002816668711602688,0.00028139352798461914,-0.001485699787735939
1772565876727679500,0.515679443359375,-0.001393994316458702,0.003665206953883171,0.0018043695017695427
1772565876737610200,0.5256103515625,-0.000005141366273164749,0.0007614977657794952,0.0023055076599121094
1772565876747542300,0.535542236328125,-0.0025476610753685236,-0.0006236117333173752,0.00033104047179222107
1772565876757473500,0.5454736328125,-0.0004893317818641663,0.0009123049676418304,0.0002477755770087242
1772565876767405600,0.555405517578125,0.00028058839961886406,0.0032905079424381256,-0.0009495820850133896
1772565876777337600,0.565337646484375,-0.0012773722410202026,-0.0026448722928762436,0.0007854942232370377
1772565876787268400,0.575268310546875,-0.00007868371903896332,0.0017315000295639038,0.0031610336154699326
1772565876797200400,0.585200439453125,0.0013273702934384346,0.001413203775882721,-0.0031093424186110497
1772565876807131600,0.595131591796875,-0.0007586837746202946,-0.0012606093659996986,0.0003003021702170372
1772565876817063400,0.6050634765625,-0.00012206844985485077,-0.0010733557865023613,0.0036400859244167805
1772565876826994400,0.614994384765625,0.002061990089714527,-0.0028547439724206924,-0.0011738436296582222
1772565876836926500,0.624926513671875,-0.0000736461952328682,-0.0015632389113307,0.0016154730692505836
1772565876846857500,0.634857421875,-0.0007524862885475159,-0.0013102386146783829,-0.003541206009685993
1772565876856789200,0.644789306640625,-0.0027215234003961086,-0.0017006155103445053,0.001654825173318386
1772565876866721300,0.65472119140625,0.000573339406400919,-0.0004803556948900223,-0.00039900466799736023
1772565876876652500,0.664652587890625,0.0004733102396130562,-0.0011608041822910309,-0.0010388027876615524
1772565876886584600,0.67458447265625,-0.0004113921895623207,-0.003708384931087494,-0.002007661387324333
1772565876896515300,0.684515380859375,-0.001472237054258585,-0.003102557733654976,-0.003882995806634426
1772565876906447400,0.694447265625,-0.002603548113256693,-0.001870580017566681,0.001044384203851223
1772565876916378600,0.704378662109375,-0.0020742539782077074,-0.0035016778856515884,0.000369497574865818
1772565876926310700,0.714310546875,-0.002138702431693673,-0.0016776788979768753,0.00028827041387557983
1772565876936241400,0.724241455078125,-0.0027419489342719316,-0.0031210342422127724,-0.0007265415042638779
1772565876946173400,0.73417333984375,-0.0009216782636940479,-0.0011462997645139694,-0.0008434541523456573
1772565876956105500,0.74410546875,-0.0038988571614027023,-0.003955652005970478,-0.0020327745005488396
1772565876966036500,0.754036376953125,-0.0005315565504133701,-0.0022421739995479584,-0.0009059915319085121
1772565876975968300,0.76396826171875,-0.00039032846689224243,-0.004835449159145355,0.0004493221640586853
1772565876985899500,0.7738994140625,-0.00023613125085830688,-0.006390734575688839,0.00030311476439237595
1772565876995831600,0.78383154296875,-0.0018157325685024261,-0.0008306987583637238,-0.00018560606986284256
1772565877005762300,0.79376220703125,-0.0034716862719506025,-0.004092805087566376,-0.0012125205248594284
1772565877015694300,0.8036943359375,-0.0018862492870539427,-0.0035269688814878464,-0.00546190794557333
1772565877025625300,0.813625244140625,0.00046878401190042496,-0.0007365085184574127,-0.0019987327978014946
1772565877035557600,0.8235576171875,-0.00019297655671834946,-0.001817316748201847,-0.00441634189337492
1772565877045488400,0.83348828125,-0.00014290912076830864,0.000492708757519722,0.00256273802369833
1772565877055420400,0.84342041015625,0.00016784388571977615,-0.0027238279581069946,-0.000130590982735157
1772565877065352400,0.8533525390625,-0.0019696091767400503,-0.004036233760416508,-0.001317562535405159
1772565877075283500,0.863283447265625,-0.00010154163464903831,0.001941230148077011,-0.002666804939508438
1772565877085215200,0.87321533203125,0.0010875598527491093,-0.002421027049422264,-0.0001538461074233055
1772565877095146500,0.883146484375,0.0011612549424171448,-0.0027338294312357903,0.0008383085951209068
1772565877105078500,0.89307861328125,-0.00014742230996489525,-0.0023663127794861794,-0.0018243202939629555
1772565877115009500,0.903009521484375,-0.0018813160713762045,-0.0023698415607213974,0.0003152787685394287
1772565877124941300,0.91294140625,0.000045480672270059586,-0.001374618150293827,0.001370956189930439
1772565877134872300,0.922872314453125,0.0020348019897937775,-0.003668030723929405,0.0007799239829182625
1772565877144804400,0.932804443359375,-0.0009300950914621353,-0.005665135569870472,-0.0011151805520057678
1772565877154736600,0.942736572265625,0.00019118143245577812,0.0011050812900066376,0.0018656747415661812
1772565877164667400,0.95266748046875,0.0006950516253709793,-0.0012638000771403313,0.00009627081453800201
1772565877174599400,0.962599365234375,0.0005079926922917366,-0.004429733380675316,0.00023562833666801453
1772565877184530400,0.972530517578125,-0.0008022827096283436,0.0020180456340312958,0.0004641283303499222
1772565877194462500,0.98246240234375,-0.0012316107749938965,0.0010665226727724075,-0.0007615452632308006
1772565877204393500,0.9923935546875,0.00022274162620306015,-0.0014986330643296242,-0.0011996356770396233
1772565877214325500,1.002325439453125,0.0012522973120212555,-0.0011505456641316414,0.0008081719279289246
1772565877224256500,1.012256591796875,0.0029649767093360424,0.00009608082473278046,0.0017895465716719627
1772565877234188500,1.0221884765625,0.0010977606289088726,0.00026359036564826965,0.001301182433962822
1772565877244120300,1.032120361328125,0.002065020613372326,-0.0035394039005041122,-0.0016999337822198868
1772565877254051300,1.04205126953125,0.0013955705799162388,0.0010064058005809784,-0.001178237609565258
1772565877263983600,1.051983642578125,-0.0019882419146597385,0.0026069656014442444,0.0008281879127025604
1772565877273914400,1.061914306640625,-0.001794682815670967,-0.004568571224808693,-0.0031736018136143684
1772565877283846400,1.071846435546875,-0.0005147675983607769,-0.00019459426403045654,0.00015481654554605484
1772565877293777400,1.08177734375,-0.0019848847296088934,0.0037225205451250076,-0.00042663048952817917
1772565877303709400,1.09170947265625,-0.000053027644753456116,-0.0007691672071814537,-0.0021238625049591064
1772565877313640400,1.101640380859375,-0.0018773481715470552,-0.0015160981565713882,-0.0018667252734303474
1772565877323572500,1.111572509765625,-0.0025141099467873573,-0.0017754901200532913,-0.0037631625309586525
1772565877333504500,1.12150439453125,-0.0000473828986287117,0.0004658680409193039,-0.0000736825168132782
1772565877343435500,1.131435546875,0.00010521616786718369,0.0007063522934913635,-0.0013083238154649734
1772565877353367300,1.1413671875,0.0013083252124488354,-0.00021008402109146118,-0.004422294907271862
1772565877363298800,1.151298828125,0.0009051226079463959,0.0009601078927516937,0.0003892378881573677
1772565877373230800,1.16123095703125,0.0020967568270862103,-0.0005759764462709427,0.000019214116036891937
1772565877383162000,1.171162109375,0.0008016615174710751,0.0007281731814146042,-0.0004180772230029106
1772565877393094100,1.18109423828125,-0.0023337178863584995,0.0008086767047643661,0.0010768724605441093
1772565877403025000,1.19102490234375,0.001270604319870472,-0.00028588250279426575,-0.002336767502129078
1772565877412957000,1.20095703125,-0.0011018607765436172,-0.0012278752401471138,0.0004306100308895111
1772565877422889000,1.210888916015625,-0.0014600562863051891,0.00019851326942443848,0.0010529905557632446
1772565877432820000,1.220820068359375,0.00043860403820872307,0.0011053700000047684,0.0011693323031067848
1772565877442752000,1.230751953125,-0.00017152633517980576,0.0008094925433397293,-0.0007894225418567657
1772565877452683000,1.24068310546875,-0.000748966820538044,0.00009511411190032959,0.0018638307228684425
1772565877462615000,1.250614990234375,-0.0001870398409664631,-0.0011507123708724976,-0.0019940249621868134
1772565877472545800,1.2605458984375,-0.002013792283833027,0.004454124718904495,0.0001935334876179695
1772565877482477800,1.270477783203125,0.0004158094525337219,-0.0008269241079688072,-0.0019471151754260063
1772565877492409000,1.2804091796875,-0.0012665651738643646,-0.0020359139889478683,-0.0017099529504776
1772565877502341000,1.290341064453125,0.0009763492271304131,-0.0012769130989909172,0.0008205827325582504
1772565877512273000,1.30027294921875,0.002084505744278431,-0.0006705727428197861,-0.0019880542531609535
1772565877522204000,1.310203857421875,-0.0004934342578053474,0.0001315716654062271,-0.0025060391053557396
1772565877532136000,1.320135986328125,-0.0017597954720258713,0.0005955640226602554,-0.0020566722378134727
1772565877542067000,1.33006689453125,0.0012482451274991035,-0.0011911503970623016,-0.00035437941551208496
1772565877551999000,1.3399990234375,-0.00004426296800374985,0.0005395784974098206,-0.0019365474581718445
1772565877561930000,1.349929931640625,-0.0010365569032728672,-0.0003509819507598877,-0.0022478708997368813
1772565877571862000,1.359862060546875,-0.0005501075647771358,0.0012215189635753632,0.0015396922826766968
1772565877581792800,1.369792724609375,0.0018392805941402912,0.0016918331384658813,-0.0011458396911621094
1772565877591724800,1.379724853515625,0.003109607845544815,-0.0006056753918528557,0.0006896108388900757
1772565877601656800,1.38965673828125,-0.00025769276544451714,0.00035386160016059875,0.0029194755479693413
1772565877611588000,1.399588134765625,0.0015367846935987473,-0.00009842216968536377,0.00011558271944522858
1772565877621520100,1.40952001953125,0.00015993043780326843,-0.000337040051817894,0.0032690316438674927
1772565877631451000,1.419450927734375,0.00040659354999661446,0.001529218629002571,-0.0022483812645077705
1772565877641383000,1.4293828125,0.0011141952127218246,0.00039418041706085205,-0.0005231853574514389
1772565877651314000,1.43931396484375,-0.0007382966578006744,0.0016556624323129654,0.002817971631884575
1772565877661246000,1.449245849609375,-0.00047677429392933846,0.00006122887134552002,0.0031202407553792
1772565877671177000,1.459177001953125,0.002644925843924284,0.0002669636160135269,-0.0003850916400551796
1772565877681109000,1.46910888671875,0.00018176855519413948,-0.0016039060428738594,0.002296444959938526
1772565877691041000,1.479041015625,0.00033540651202201843,0.0026428401470184326,0.0016272859647870064
1772565877700971800,1.4889716796875,0.0009119808673858643,0.0020739883184432983,-0.0020124567672610283
1772565877710903800,1.49890380859375,-0.00047426531091332436,0.0033506322652101517,0.001811671070754528
1772565877720835000,1.5088349609375,0.004265362862497568,-0.000955166295170784,-0.002069885842502117
1772565877730767000,1.51876708984375,0.0003630039282143116,-0.0012019220739603043,-0.0009054597467184067
1772565877740697900,1.52869775390625,0.0011864537373185158,0.00478193536400795,-0.00009878817945718765
1772565877750630000,1.5386298828125,-0.00250259879976511,0.00263318233191967,0.000944395549595356
1772565877760561000,1.548560791015625,-0.0010823351331055164,0.002484045922756195,0.0018229726701974869
1772565877770493000,1.558492919921875,0.0003125178627669811,-0.0019865278154611588,-0.0007954295724630356
1772565877780424000,1.568423828125,0.0020696716383099556,-0.001373734325170517,0.0007372191175818443
1772565877790356000,1.57835595703125,0.0007552239112555981,0.0030209980905056,-0.000458388589322567
1772565877800288000,1.5882880859375,0.0013938499614596367,-0.0005745347589254379,-0.0013990169391036034
1772565877810219000,1.598218994140625,0.0027837143279612064,0.0022923070937395096,0.002127579413354397
1772565877820150800,1.60815087890625,0.002057469915598631,0.0010488778352737427,-0.0028757015243172646
1772565877830082000,1.61808203125,0.002129551023244858,-0.0010714083909988403,-0.000988611951470375
1772565877840014000,1.62801416015625,-0.0005871397443115711,0.0022764503955841064,0.003111058846116066
1772565877849944800,1.63794482421875,0.001587247010320425,0.0006526615470647812,0.0006186990067362785
1772565877859876900,1.647876953125,-0.0013203923590481281,0.0001253560185432434,-0.0004428373649716377
1772565877869807900,1.657807861328125,0.001509657595306635,0.0014712028205394745,-0.0017326977103948593
1772565877879740000,1.667739990234375,0.0016161841340363026,-0.0035483241081237793,-0.0014908825978636742
1772565877889672000,1.677671875,-0.001193685457110405,0.0004643518477678299,0.002306794747710228
1772565877899603000,1.68760302734375,0.0017046327702701092,0.0005011036992073059,-0.0012101754546165466
1772565877909535000,1.697534912109375,0.00017419783398509026,-0.0004646768793463707,0.000845855101943016
1772565877919466000,1.707466064453125,0.0033034118823707104,0.0029023587703704834,-0.0017603151500225067
1772565877929398000,1.71739794921875,-0.00014591403305530548,-0.00023617781698703766,-0.001154712401330471
1772565877939329000,1.7273291015625,0.0005189296789467335,0.0011317357420921326,-0.0008902279660105705
1772565877949261000,1.737260986328125,0.002124969381839037,0.0004286486655473709,0.0006172461435198784
1772565877959192000,1.747192138671875,0.0012815468944609165,-0.0006169071421027184,0.00015571992844343185
1772565877969123800,1.757123779296875,-0.0007112408056855202,0.000979781150817871,-0.0005361689254641533
1772565877979055900,1.767055908203125,-0.000754916574805975,0.0011752564460039139,0.0003655776381492615
1772565877988987000,1.77698681640625,0.0011370680294930935,-0.0017682220786809921,0.0008765039965510368
1772565877998919000,1.7869189453125,0.000417215283960104,-0.0012829937040805817,0.00017289724200963974
1772565878008850000,1.796849853515625,-0.0012702741660177708,0.002346666529774666,0.0014041000977158546
1772565878018782000,1.806781982421875,0.0005955365486443043,-0.00132822897285223,-0.0007298905402421951
1772565878028713000,1.816712890625,-0.00143414456397295,-0.0015069320797920227,0.0003774501383304596
1772565878038645000,1.82664501953125,-0.0020530633628368378,-0.0025421027094125748,0.0011934423819184303
1772565878048576000,1.836575927734375,0.0006505129858851433,0.0015911143273115158,0.001159071922302246
1772565878058508000,1.846508056640625,0.0019128513522446156,-0.0021200012415647507,0.001358543522655964
1772565878068440000,1.856440185546875,-0.0009387698955833912,-0.0025065019726753235,-0.0018026800826191902
1772565878078371000,1.86637109375,-0.00129270413890481,0.0005068648606538773,0.0017441175878047943
1772565878088302800,1.876302734375,0.003219825681298971,-0.0022828495129942894,0.0016837799921631813
1772565878098233900,1.88623388671875,-0.00022310903295874596,0.0016831308603286743,0.0022696759551763535
1772565878108166000,1.896165771484375,0.00016967160627245903,-0.0014834776520729065,0.001692165620625019
1772565878118097000,1.906096923828125,0.002149465959519148,-0.001961781643331051,0.0021180054172873497
1772565878128029000,1.91602880859375,0.0005031349137425423,-0.000448836013674736,0.0011447947472333908
1772565878137960000,1.9259599609375,-0.0006590685807168484,-0.00047333724796772003,-0.00026215333491563797
1772565878147892000,1.93589208984375,-0.002037936355918646,-0.0006794063374400139,-0.002222101204097271
1772565878157824000,1.945823974609375,0.000966908410191536,0.003201885148882866,-0.001029270701110363
1772565878167755000,1.955755126953125,0.0017128796316683292,0.003757461905479431,0.0007824180647730827
1772565878177687000,1.96568701171875,-0.00003015948459506035,0.0020889919251203537,0.00025644339621067047
1772565878187618000,1.9756181640625,0.0008673686534166336,-0.002276412211358547,0.004174186848104
1772565878197550000,1.985550048828125,0.0008215620182454586,-0.002607177011668682,-0.000007508322596549988
1772565878207480800,1.995480712890625,0.0013120882213115692,-0.00019087083637714386,0.0024695750325918198
1772565878217412900,2.005412841796875,-0.0030783989932388067,-0.0005882140249013901,-0.0010564504191279411
1772565878227344100,2.01534423828125,-0.0008218744769692421,-0.004281478002667427,-0.001123739406466484
1772565878237276000,2.02527587890625,0.0021358318626880646,-0.0000736825168132782,0.001814260147511959
1772565878247208000,2.0352080078125,0.0010008416138589382,-0.0033384663984179497,0.00012206099927425385
1772565878257139000,2.045138916015625,0.0007925825193524361,0.00041792169213294983,0.001956446096301079
1772565878267071000,2.055071044921875,0.002813666593283415,0.0009779557585716248,0.0006382353603839874
1772565878277002000,2.065001953125,0.0036970372311770916,-0.0011621611192822456,0.002019084058701992
1772565878286934000,2.07493408203125,0.0035642096772789955,-0.00034709833562374115,-0.00006007961928844452
1772565878296865000,2.084864990234375,0.0005441848188638687,-0.002976970747113228,0.0017591258510947227
1772565878306797000,2.094797119140625,0.0008091665804386139,0.0004947260022163391,-0.0015358878299593925
1772565878316728800,2.104728759765625,-0.0009085726924240589,0.003040708601474762,-0.000563034787774086
1772565878326659800,2.114659912109375,0.0010736575350165367,-0.001575469970703125,0.00020169466733932495
1772565878336592000,2.124591796875,0.0001194472424685955,0.0028624217957258224,-0.0015096524730324745
1772565878346523100,2.134523193359375,0.0009335470385849476,-0.0011723386123776436,-0.0013805711641907692
1772565878356455000,2.144454833984375,0.001097864005714655,0.0013177171349525452,-0.00044739898294210434
1772565878366385700,2.1543857421875,-0.0019440730102360249,0.0008373111486434937,-0.0032553011551499367
1772565878376317700,2.164317626953125,-0.0008428557775914669,-0.0007059909403324127,-0.002060873433947563
1772565878386248700,2.174248779296875,-0.0009880061261355877,-0.0006502261385321617,0.0013939980417490005
1772565878396180700,2.1841806640625,-0.0038903190288692713,-0.0007104137912392616,0.0009202221408486366
1772565878406112800,2.19411279296875,-0.0011384747922420502,-0.003232693299651146,0.0006736135110259056
1772565878416043800,2.204043701171875,-0.0021510084625333548,-0.0008837850764393806,-0.0006337324157357216
1772565878425975800,2.213975830078125,-0.0012429109774529934,-0.002130383625626564,0.0009448230266571045
1772565878435906600,2.223906494140625,-0.0008032233454287052,-0.004068099893629551,-0.0020696083083748817
1772565878445838600,2.233838623046875,-0.0030126599594950676,-0.001150393858551979,-0.0011040885001420975
1772565878455769900,2.243769775390625,-0.0011905250139534473,-0.0012313537299633026,-0.002034597098827362
1772565878465702000,2.253701904296875,0.0004064464010298252,-0.0024567171931266785,0.0014399988576769829
1772565878475632600,2.263632568359375,0.0005670352838933468,0.0010796934366226196,0.003041890449821949
1772565878485564700,2.273564697265625,0.0010121525265276432,0.00019325502216815948,0.001995566301047802
1772565878495496700,2.28349658203125,0.0017328038811683655,0.0015006009489297867,0.0008344277739524841
1772565878505427700,2.293427734375,0.0021596523001790047,0.00019391998648643494,0.004048008471727371
1772565878515359700,2.30335986328125,-0.0005378639325499535,-0.0006894506514072418,0.0005787089467048645
1772565878525290800,2.313290771484375,0.0029690638184547424,-0.0012724800035357475,-0.0009679635986685753
1772565878535222800,2.323222900390625,0.000024139881134033203,-0.00001360476016998291,0.0009801387786865234
1772565878545153800,2.33315380859375,0.00001246156170964241,-0.0017371000722050667,-0.00022793374955654144
1772565878555085600,2.34308544921875,0.0009938362054526806,-0.005105200223624706,0.0013787513598799706
1772565878565016800,2.353016845703125,0.00004891538992524147,-0.0016536964103579521,0.00014710519462823868
1772565878574948900,2.362948974609375,-0.003117582993581891,-0.00003822334110736847,0.00007999315857887268
1772565878584881000,2.372880859375,-0.0000971066765487194,-0.0019774455577135086,-0.0003202129155397415
1772565878594811600,2.382811767578125,-0.0003676838241517544,-0.000577954575419426,0.000040112994611263275
1772565878604743700,2.39274365234375,0.0016832798719406128,0.0009689759463071823,-0.0030861226841807365
1772565878614674700,2.4026748046875,-0.0010802820324897766,-0.000469929538667202,-0.0021473588421940804
1772565878624606700,2.412606689453125,0.0020360895432531834,-0.00015672855079174042,-0.002493669278919697
1772565878634537700,2.422537841796875,0.0030787168070673943,0.0007953532040119171,-0.0019820760935544968
1772565878644469800,2.4324697265625,-0.0005161953158676624,0.0004736892879009247,-0.003975621424615383
1772565878654401800,2.44240185546875,0.001209799200296402,-0.00004775635898113251,-0.0020653363317251205
1772565878664332500,2.45233251953125,-0.0018152808770537376,-0.0007541654631495476,-0.004190222360193729
1772565878674264600,2.4622646484375,-0.0005289739929139614,-0.0013126302510499954,-0.0023318687453866005
1772565878684195800,2.47219580078125,-0.0008206139318645,0.0026432909071445465,-0.0005385149270296097
1772565878694127900,2.4821279296875,-0.0010107634589076042,-0.004177063703536987,-0.004564414732158184
1772565878704058600,2.49205859375,0.00073990598320961,0.0009218808263540268,-0.0012331046164035797
1772565878713990700,2.50199072265625,0.003093075007200241,-0.0003761444240808487,-0.0032480526715517044
1772565878723921700,2.511921630859375,0.0028868247754871845,-0.00023479200899600983,-0.002974487841129303
1772565878733853700,2.521853759765625,0.0016031810082495213,0.0034113414585590363,0.0009813709184527397
1772565878743785700,2.53178564453125,-0.0005911914631724358,-0.002159831114113331,0.0007584523409605026
1772565878753716700,2.541716796875,0.00011720973998308182,-0.002692463807761669,0.0006918730214238167
1772565878763648800,2.551648681640625,-0.0009928462095558643,0.0002872161567211151,0.0037922183983027935
1772565878773579800,2.561579833984375,-0.0038365693762898445,-0.0036420123651623726,-0.000024091452360153198
1772565878783511600,2.571511474609375,0.0001845262013375759,-0.0018581664189696312,0.001676139421761036
1772565878793442800,2.58144287109375,-0.0017031221650540829,-0.0014096908271312714,-0.002132447436451912
1772565878803374800,2.591374755859375,-0.001226569525897503,-0.0013056974858045578,0.0020575998350977898
1772565878813305900,2.601305908203125,-0.0018233838491141796,-0.0016801385208964348,0.0004959218204021454
1772565878823237600,2.611237548828125,0.0008514798246324062,-0.002145937643945217,-0.0009421193972229958
1772565878833169700,2.621169677734375,-0.0008385619148612022,-0.004401900805532932,0.002719460055232048
1772565878843100700,2.6311005859375,-0.0007058568298816681,0.004391400143504143,0.0016714828088879585
1772565878853032700,2.64103271484375,-0.0004882765933871269,0.000007038936018943787,-0.0031206095591187477
1772565878862963700,2.650963623046875,0.00172501802444458,-0.000392397865653038,-0.0002874275669455528
1772565878872895700,2.660895751953125,-0.0003205561079084873,-0.0015990762040019035,0.00025319401174783707
1772565878882826800,2.67082666015625,0.0037273704074323177,0.0020886585116386414,0.000022503547370433807
1772565878892758800,2.6807587890625,-0.0003509940579533577,0.0029547177255153656,-0.0003604590892791748
1772565878902689800,2.690689697265625,0.000004806555807590485,-0.00008841417729854584,-0.0026115942746400833
1772565878912621800,2.700621826171875,0.00007564667612314224,-0.000732099637389183,-0.0011769495904445648
1772565878922553900,2.710553955078125,-0.000016967765986919403,0.003618398681282997,0.0020173080265522003
1772565878932484600,2.720484619140625,-0.0016617360524833202,-0.0025819726288318634,0.0006066318601369858
1772565878942416600,2.730416748046875,0.001161324791610241,0.0006140377372503281,-0.001909485086798668
1772565878952347600,2.74034765625,-0.0008022240363061428,0.0012052599340677261,0.0005318345502018929
1772565878962279700,2.75027978515625,0.0020809508860111237,0.001284060999751091,-0.0008462397381663322
1772565878972210700,2.760210693359375,0.001880680676549673,-0.0006006583571434021,-0.0015293406322598457
1772565878982142700,2.770142822265625,-0.000027029775083065033,-0.0002796929329633713,0.0001873224973678589
1772565878992074800,2.78007470703125,-0.0008763116784393787,0.0015895795077085495,-0.0010169586166739464
1772565879002005800,2.790005859375,-0.0013733170926570892,0.0032810382544994354,-0.0008306074887514114
1772565879011937800,2.799937744140625,0.00024561863392591476,-0.0017416831105947495,-0.0017203697934746742
1772565879021868800,2.809868896484375,0.0016434136778116226,0.0024762041866779327,-0.0009933393448591232
1772565879031800800,2.81980078125,-0.0009552985429763794,0.0008197184652090073,0.0012106932699680328
1772565879041731800,2.82973193359375,0.00046971673145890236,-0.0004819026216864586,0.0014180736616253853
1772565879051663600,2.83966357421875,0.001672666985541582,0.0016614105552434921,-0.0010315021499991417
1772565879061595600,2.849595703125,-0.0016214926727116108,-0.002322820946574211,0.0013668406754732132
1772565879071526700,2.859526611328125,-0.0008632903918623924,0.001804279163479805,-0.0024595893919467926
1772565879081458700,2.869458740234375,-0.0009710569866001606,0.004507612437009811,-0.00045443419367074966
1772565879091389700,2.8793896484375,0.0029786769300699234,0.00033763423562049866,-0.0006954502314329147
1772565879101321700,2.88932177734375,-0.00023290514945983887,0.00177832692861557,-0.0026364782825112343
1772565879111252700,2.899252685546875,-0.0009519588202238083,0.0022973772138357162,0.0007571876049041748
1772565879121184800,2.909184814453125,-0.00011466303840279579,-0.001275532878935337,-0.0031116288155317307
1772565879131115800,2.91911572265625,0.0004318174906075001,0.0007753670215606689,-0.0003688391298055649
1772565879141047800,2.9290478515625,0.002210731152445078,0.0024742037057876587,-0.0005906447768211365
1772565879150979800,2.938979736328125,-0.0008849273435771465,0.0017072129994630814,-0.0008710753172636032
1772565879160910800,2.948910888671875,0.0006042737513780594,-0.00032753869891166687,-0.0017003770917654037
1772565879170842600,2.958842529296875,-0.0006956150755286217,0.0009750127792358398,-0.001346176490187645
1772565879180773600,2.968773681640625,0.001281600445508957,0.00225893035531044,-0.0002263486385345459
1772565879190705700,2.97870556640625,-0.001667051576077938,0.002218717709183693,-0.0008817529305815697
1772565879200636700,2.98863671875,0.00011243671178817749,0.0009596236050128937,0.0019257757812738419
1772565879210568700,2.998568603515625,0.0006927396170794964,0.0008451081812381744,0.0029729316011071205
1772565879220500700,3.008500732421875,0.0010865661315619946,-0.002487972378730774,-0.0006213514134287834
1772565879230431700,3.018431640625,-0.0009334413334727287,0.0013496428728103638,0.0010676253587007523
1772565879240363800,3.02836376953125,-0.0009968089871108532,0.0006788894534111023,0.0016577579081058502
1772565879250294800,3.038294677734375,0.0024871379137039185,-0.002289470285177231,-0.00039234384894371033
1772565879260226800,3.048226806640625,0.000265264417976141,0.0013408176600933075,0.0015297001227736473
1772565879270157800,3.05815771484375,0.0021467874757945538,-0.0009226026013493538,0.000738740898668766
1772565879280089900,3.06808984375,0.0028648278675973415,0.00016952678561210632,0.00021328311413526535
1772565879290020600,3.0780205078125,-0.00025186920538544655,0.003245742991566658,0.004272739868611097
1772565879299952600,3.08795263671875,0.003947827033698559,0.002220774069428444,0.0001230398193001747
1772565879309884700,3.097884765625,0.001198645681142807,0.00042180903255939484,0.0004242435097694397
1772565879319815700,3.107815673828125,0.0016563795506954193,0.004384415224194527,0.0009136311709880829
1772565879329747700,3.117747802734375,0.0011168234050273895,0.0017715878784656525,-0.0036140093579888344
1772565879339678700,3.1276787109375,0.00017081433907151222,0.0019460152834653854,-0.0021105194464325905
1772565879349610800,3.13761083984375,-0.0010060365311801434,0.00003546476364135742,-0.00286286324262619
1772565879359541800,3.147541748046875,0.0007820785976946354,0.000644167885184288,-0.0019553322345018387
1772565879369474000,3.15747412109375,-0.0026624540332704782,0.001481732353568077,-0.003123127855360508
1772565879379406300,3.16740625,0.0006339396350085735,-0.000035626813769340515,-0.00013857055455446243
1772565879389337300,3.17733740234375,0.0012264926917850971,-0.0018252721056342125,0.0031091542914509773
1772565879399269000,3.18726904296875,-0.001002089586108923,-0.000043064355850219727,0.00165584497153759
1772565879409200000,3.1972001953125,0.0009279032237827778,-0.003507571294903755,0.0023189727216959
1772565879419132200,3.207132080078125,0.00024761026725172997,0.0012447629123926163,0.0034261965192854404
1772565879429063200,3.217063232421875,-0.0009537413716316223,-0.0000471360981464386,-0.0010377941653132439
1772565879438995200,3.2269951171875,-0.002388159977272153,0.000018805265426635742,0.0016193296760320663
1772565879448926200,3.23692626953125,-0.0002565658651292324,-0.0019311606884002686,0.0028302688151597977
1772565879458858200,3.246858154296875,0.000979769043624401,-0.0021001920104026794,0.0005468651652336121
1772565879468790300,3.256790283203125,0.0005478044040501118,-0.0008418485522270203,0.0028768647462129593
1772565879478721000,3.266720947265625,0.000027651898562908173,-0.0026205312460660934,0.0005981344729661942
1772565879488653000,3.276653076171875,0.0005549578927457333,-0.0042210910469293594,0.0002769576385617256
1772565879498584300,3.286584228515625,-0.0003912881948053837,-0.0006606113165616989,0.0002594403922557831
1772565879508516400,3.296516357421875,0.00034134741872549057,-0.00193120539188385,0.0001284126192331314
1772565879518447000,3.306447021484375,-0.002875902224332094,0.00036184489727020264,0.00033366400748491287
1772565879528379100,3.316379150390625,0.0017249747179448605,-0.001813691109418869,0.0014852145686745644
1772565879538311200,3.326311279296875,-0.0010294443927705288,-0.0026848185807466507,0.0005533695220947266
1772565879548242200,3.3362421875,-0.0024776714853942394,-0.00225871242582798,0.0009477837011218071
1772565879558174200,3.34617431640625,0.000014521647244691849,-0.000053571537137031555,0.0010852692648768425
1772565879568105200,3.356105224609375,-0.00042037246748805046,-0.003651503473520279,0.0009385291486978531
1772565879578037200,3.366037353515625,0.0011991923674941063,-0.00263101514428854,0.0013962062075734138
1772565879587968000,3.375968017578125,-0.0012469212524592876,-0.0036699147894978523,-0.0017583081498742104
1772565879597900000,3.385900146484375,-0.002275012666359544,-0.0026307133957743645,-0.0008561862632632256
1772565879607832300,3.395832275390625,-0.0013442379422485828,-0.0010698344558477402,0.00281684473156929
1772565879617763300,3.405763427734375,0.0003931294195353985,-0.0019564013928174973,-0.0017248131334781647
1772565879627695000,3.415695068359375,-0.0015911920927464962,-0.0004940591752529144,-0.00046487152576446533
1772565879637626000,3.425626220703125,0.0009712786413729191,-0.0013303626328706741,-0.00017145182937383652
1772565879647558100,3.43555810546875,0.0010988442227244377,-0.0009958697482943535,-0.0018343301489949226
1772565879657489400,3.445489501953125,-0.000031381845474243164,0.00034047476947307587,-0.0012936433777213097
1772565879667421200,3.455421142578125,0.0006250874139368534,-0.0015676803886890411,-0.00046566687524318695
1772565879677352200,3.465352294921875,-0.001677714753895998,-0.0009735347703099251,0.0011973557993769646
1772565879687284200,3.4752841796875,-0.0010023373179137707,-0.0009383810684084892,0.00020932219922542572
1772565879697216300,3.48521630859375,-0.00038528628647327423,-0.003369320183992386,0.0005706995725631714
1772565879707147000,3.49514697265625,-0.0004553277976810932,0.0003660302609205246,0.000057241879403591156
1772565879717079000,3.5050791015625,0.0019836239516735077,-0.0004670778289437294,-0.0006936360150575638
1772565879727010300,3.51501025390625,-0.000432661734521389,-0.0015539135783910751,0.003408697433769703
1772565879736942300,3.5249423828125,-0.000865045003592968,0.0004297550767660141,-0.0008608382195234299
1772565879746873000,3.534873046875,-0.0006740964017808437,-0.0022499170154333115,0.00009896419942378998
1772565879756805000,3.54480517578125,-0.0009574941359460354,-0.0019049253314733505,-0.0005840715020895004
1772565879766737200,3.554737060546875,-0.001958576263859868,-0.0010583065450191498,0.0033683255314826965
1772565879776668400,3.56466845703125,-0.0007470767013728619,-0.0019049495458602905,-0.0016972282901406288
1772565879786600200,3.57460009765625,-0.0017292504198849201,-0.0015816418454051018,0.00003329385071992874
1772565879796531200,3.58453125,-0.000008390285074710846,-0.0010658632963895798,0.0022747935727238655
1772565879806463200,3.594463134765625,-0.0032744910567998886,-0.00314259622246027,-0.0006168670952320099
1772565879816394000,3.60439404296875,-0.0010896469466388226,0.001056106761097908,-0.0011735456064343452
1772565879826326000,3.614325927734375,-0.0004893704317510128,0.0005564987659454346,-0.0007386514917016029
1772565879836258000,3.624258056640625,0.0014400659129023552,0.00023648329079151154,0.00014460831880569458
1772565879846189300,3.634189208984375,0.0006123557686805725,-0.002095114439725876,-0.0004090629518032074
1772565879856121300,3.644121337890625,-0.001597316935658455,-0.0010506659746170044,-0.0013455897569656372
1772565879866052000,3.654052001953125,0.001638690009713173,-0.001512458547949791,-0.0003170762211084366
1772565879875984100,3.663984130859375,0.0014946730807423592,0.0004980824887752533,-0.0006311396136879921
1772565879885915400,3.673915283203125,0.0006328742019832134,-0.000934164971113205,-0.0015147766098380089
1772565879895847200,3.68384716796875,0.0006882371380925179,-0.00044026970863342285,-0.00019035860896110535
1772565879905778200,3.693778076171875,0.0008909041061997414,0.00006253458559513092,-0.004010663367807865
1772565879915710200,3.703710205078125,0.00033385399729013443,0.00009246543049812317,-0.0004762895405292511
1772565879925642200,3.713642333984375,0.0005189436487853527,-0.00046493392437696457,-0.0024289190769195557
1772565879935573000,3.723572998046875,-0.001548269297927618,-0.00034970231354236603,-0.0025981366634368896
1772565879945505000,3.733505126953125,0.0030241115018725395,0.0029403679072856903,-0.0038247890770435333
1772565879955436300,3.743436279296875,0.004049329087138176,0.0008694157004356384,-0.0024265097454190254
1772565879965368300,3.753368408203125,0.0020434362813830376,0.0002925749868154526,-0.0028843069449067116
1772565879975299000,3.763299072265625,0.00027577439323067665,-0.000026360154151916504,0.00039456505328416824
1772565879985231000,3.773231201171875,0.0015852507203817368,-0.000045536085963249207,-0.0013974756002426147
1772565879995163100,3.7831630859375,0.001112394966185093,-0.0021736612543463707,-0.002340272068977356
1772565880005094400,3.793094482421875,-0.0005797776393592358,0.00026472844183444977,0.0022118687629699707
1772565880015026200,3.803026123046875,-0.001835706178098917,-0.0036851847544312477,-0.00008506700396537781
1772565880024957200,3.812957275390625,0.0002924259752035141,-0.001515241339802742,0.002428424544632435
1772565880034889200,3.82288916015625,0.00030513620004057884,-0.005988900549709797,0.0011046938598155975
1772565880044820200,3.8328203125,0.0009211255237460136,-0.0050485385581851006,0.0036048698239028454
1772565880054752000,3.842751953125,0.0008889776654541492,-0.0007353238761425018,0.0019605541601777077
1772565880064684000,3.85268408203125,0.0010676761157810688,-0.002991819754242897,0.003872969653457403
1772565880074615300,3.862615234375,0.0009789676405489445,-0.002168271690607071,0.002548729069530964
1772565880084547300,3.87254736328125,-0.000796828418970108,-0.0016667982563376427,0.0010413797572255135
1772565880094478000,3.88247802734375,-0.0003118952736258507,-0.0031198542565107346,0.002547750249505043
1772565880104410000,3.89241015625,-0.0017689107917249203,-0.004247703589498997,0.005137674510478973
1772565880114341400,3.90234130859375,-0.0016690660268068314,-0.0033444780856370926,0.0028507625684142113
1772565880124273400,3.9122734375,-0.0007907557301223278,-0.0021955901756882668,0.002349022775888443
1772565880134204200,3.9222041015625,0.0015025380998849869,-0.0027059298008680344,0.00444667786359787
1772565880144136200,3.93213623046875,-0.0025513258296996355,-0.005996265448629856,0.00276356004178524
1772565880154068200,3.942068115234375,-0.00004971446469426155,-0.0035860473290085793,0.0008553918451070786
1772565880163999000,3.9519990234375,0.00009462889283895493,-0.002608667127788067,0.00215900968760252
1772565880173931000,3.961930908203125,-0.0008710320107638836,-0.0035345014184713364,0.0007077977061271667
1772565880183862300,3.9718623046875,-0.0025517530739307404,-0.0023986632004380226,0.0029131611809134483
1772565880193794300,3.981794189453125,-0.0008958387188613415,-0.005335787311196327,0.001078627072274685
1772565880203725000,3.99172509765625,-0.001765626948326826,-0.0023447908461093903,0.0027779899537563324
1772565880213657000,4.001656982421875,-0.00008676061406731606,-0.0020822109654545784,-0.0008098436519503593
1772565880223589000,4.011589111328125,-0.0016359216533601284,-0.004065467044711113,-0.001964590512216091
1772565880233520400,4.021520263671875,-0.0024433224461972713,0.0007523111999034882,-0.0013783741742372513
1772565880243452400,4.031452392578125,-0.002004699781537056,-0.0025252411141991615,-0.001503809355199337
1772565880253383200,4.041383056640625,-0.001080967951565981,-0.0022456450387835503,-0.001736481674015522
1772565880263315200,4.051315185546875,0.0006508859805762768,-0.0005556028336286545,-0.00042940303683280945
1772565880273246200,4.06124609375,-0.0025351515505462885,-0.0009103845804929733,-0.005445430055260658
1772565880283178000,4.071177978515625,-0.00040515512228012085,-0.002454218454658985,-0.00019181333482265472
1772565880293110000,4.081110107421875,-0.0017519472166895866,-0.0012224232777953148,-0.0017046118155121803
1772565880303041300,4.091041259765625,-0.0007937420159578323,-0.0036791888996958733,-0.00041244644671678543
1772565880312973300,4.100973388671875,-0.00044504133984446526,-0.0023320503532886505,-0.00006220955401659012
1772565880322904000,4.110904052734375,-0.002015241188928485,-0.0017179260030388832,0.002265659160912037
1772565880332836000,4.120836181640625,-0.0009129890240728855,-0.006373739801347256,0.0001491289585828781
1772565880342767400,4.130767333984375,-0.00030765263363718987,-0.0034256204962730408,0.0026588914915919304
1772565880352699400,4.140699462890625,-0.0027189599350094795,-0.0057598985731601715,0.0010121576488018036
1772565880362630400,4.15063037109375,-0.0021248087286949158,-0.005546047352254391,0.0022561196237802505
1772565880372561200,4.16056103515625,-0.00474202586337924,-0.002578907646238804,0.002979997545480728
1772565880382493200,4.1704931640625,-0.002707903506234288,-0.00511503592133522,0.0006915433332324028
1772565880392424400,4.180424560546875,-0.002583313500508666,-0.0037181759253144264,0.002294386737048626
1772565880402356500,4.1903564453125,-0.0022176613565534353,-0.002167949452996254,0.002274945378303528
1772565880412287200,4.200287353515625,-0.000848566647619009,-0.0025164317339658737,0.0025781476870179176
1772565880422219300,4.21021923828125,-0.0006704009138047695,-0.004294358193874359,0.002869231626391411
1772565880432150300,4.220150390625,0.0009212661534547806,-0.0005998527631163597,0.0016276845708489418
1772565880442082300,4.230082275390625,-0.0009618550539016724,-0.001255522482097149,0.002290012314915657
1772565880452014000,4.24001416015625,-0.00026825908571481705,-0.0012903688475489616,0.0022185780107975006
1772565880461945300,4.2499453125,-0.0035303649492561817,-0.0032352758571505547,-0.0016704360023140907
1772565880471877400,4.25987744140625,-0.0008395067416131496,-0.0011644018813967705,0.0013322783634066582
1772565880481808400,4.269808349609375,-0.0008649639785289764,-0.002239476889371872,0.0015292912721633911
1772565880491740200,4.279740234375,-0.0024050765205174685,-0.0023334817960858345,0.00045952387154102325
1772565880501671400,4.28967138671875,-0.0017563304863870144,-0.0010061617940664291,0.001637706533074379
1772565880511603500,4.299603515625,-0.0013281269930303097,-0.0027443356812000275,0.0004359148442745209
1772565880521535500,4.309535400390625,-0.00023516546934843063,-0.0017216820269823074,0.0011006398126482964
1772565880531466200,4.31946630859375,0.0007718144915997982,-0.0009297346696257591,-0.00014290772378444672
1772565880541398300,4.329398193359375,-0.0020364888478070498,-0.0014314744621515274,0.002556205727159977
1772565880551329300,4.339329345703125,-0.00011312076821923256,-0.0014621717855334282,-0.0004953369498252869
1772565880561261300,4.34926123046875,-0.00016505224630236626,-0.0024986732751131058,0.00297689251601696
1772565880571192300,4.3591923828125,0.000523686408996582,-0.0010342849418520927,0.0017860494554042816
1772565880581124400,4.369124267578125,-0.0017626374028623104,-0.002629252150654793,0.0014417031779885292
1772565880591056400,4.379056396484375,-0.00046432530507445335,-0.0019357772544026375,0.0004248572513461113
1772565880600987400,4.3889873046875,-0.0008456897921860218,0.0011095479130744934,-0.0004190979525446892
1772565880610919200,4.398919189453125,-0.0002771257422864437,-0.0012428108602762222,0.0009687254205346107
1772565880620850400,4.408850341796875,0.0032164091244339943,-0.0020191222429275513,-0.0034537194296717644
1772565880630782500,4.418782470703125,0.0007159477099776268,-0.0009657777845859528,0.0000497354194521904
1772565880640713200,4.428713134765625,-0.0002582366578280926,-0.002804957330226898,0.00025879405438899994
1772565880650645200,4.438645263671875,0.0004923795349895954,-0.001387384720146656,0.002961748279631138
1772565880660577300,4.448577392578125,-0.0007475884631276131,-0.0017572976648807526,0.0017121927812695503
1772565880670508300,4.45850830078125,-0.000692490953952074,-0.0003588031977415085,-0.0012813732028007507
1772565880680440300,4.4684404296875,-0.0002623903565108776,-0.0011942368000745773,0.0012702010571956635
1772565880690371300,4.478371337890625,0.000661154743283987,-0.0012399647384881973,0.0013265125453472137
1772565880700303400,4.488303466796875,-0.001438481267541647,-0.003421359695494175,0.0011249110102653503
1772565880710234400,4.498234375,-0.0006298134103417397,0.0006279535591602325,0.002402566373348236
1772565880720166100,4.508166259765625,0.001037857960909605,0.00044792331755161285,0.00047150813043117523
1772565880730098200,4.51809814453125,-0.0012634871527552605,-0.0005182623863220215,-0.000674104318022728
1772565880740029400,4.528029541015625,0.0004428001120686531,0.0014311708509922028,0.0010130079463124275
1772565880749961500,4.53796142578125,-0.0027721677906811237,-0.002519095316529274,0.0012660082429647446
1772565880759892200,4.547892333984375,-0.0018826720770448446,0.0003185030072927475,-0.0011542728170752525
1772565880769824300,4.55782421875,0.0014799293130636215,-0.0003285948187112808,0.0029094070196151733
1772565880779755300,4.56775537109375,-0.000308383721858263,-0.002533959224820137,-0.0004847915843129158
1772565880789687300,4.577687255859375,0.0006771339103579521,0.0015805885195732117,0.00011370889842510223
1772565880799619300,4.587619384765625,-0.001451264601200819,-0.000417846255004406,-0.0020157545804977417
1772565880809550300,4.59755029296875,0.0011056913062930107,0.00231841579079628,0.00009011384099721909
1772565880819482400,4.607482421875,0.0001544104889035225,0.001688845455646515,-0.002774115651845932
1772565880829413400,4.617413330078125,0.00028664618730545044,-0.0007841503247618675,-0.0007670558989048004
1772565880839345200,4.62734521484375,0.0018720258958637714,0.0006789900362491608,0.003976034000515938
1772565880849276400,4.6372763671875,0.0010869773104786873,-0.0015446171164512634,0.0026656007394194603
1772565880859208400,4.64720849609375,0.000642762053757906,-0.0006679045036435127,-0.0005709389224648476
1772565880869140500,4.657140380859375,-0.0014011724852025509,0.0012439507991075516,0.0005264487117528915
1772565880879071200,4.6670712890625,-0.0014696158468723297,-0.0013438425958156586,-0.0005302941426634789
1772565880889003300,4.677003173828125,0.0006584916263818741,-0.0006852280348539352,0.0011792397126555443
1772565880898934300,4.686934326171875,-0.0009681670926511288,-0.0001603197306394577,-0.0016453089192509651
1772565880908866300,4.6968662109375,0.0011062589474022388,-0.003986954689025879,-0.001414397731423378
1772565880918797300,4.70679736328125,-0.00024156691506505013,0.0003886185586452484,0.00004927534610033035
1772565880928729300,4.716729248046875,-0.0003394046798348427,-0.0018128035590052605,-0.001071639358997345
1772565880938661400,4.726661376953125,-0.0016496800817549229,-0.0010367585346102715,-0.000639941543340683
1772565880948592400,4.73659228515625,-0.00023786723613739014,0.0006225109100341797,0.0018222080543637276
1772565880958524200,4.746524169921875,0.00014962255954742432,-0.00331816915422678,0.0007827766239643097
1772565880968455400,4.756455322265625,0.001271495595574379,-0.0015000663697719574,0.0007644863799214363
1772565880978387500,4.766387451171875,0.0018755006603896618,0.0014547109603881836,0.0017661014571785927
1772565880988318200,4.776318115234375,-0.0005995249375700951,-0.0015471670776605606,0.0015034275129437447
1772565880998250200,4.786250244140625,0.001535265240818262,0.0014675315469503403,-0.0023911790922284126
1772565881008182300,4.796182373046875,-0.002040300751104951,0.002058226615190506,-0.00024331361055374146
1772565881018113300,4.80611328125,0.00029449257999658585,-0.0014305151998996735,-0.0003213444724678993
1772565881028045300,4.81604541015625,0.0011838930658996105,0.0036800354719161987,-0.0014300094917416573
1772565881037976300,4.825976318359375,0.00005764234811067581,0.002202514559030533,-0.0019730282947421074
1772565881047908400,4.835908447265625,0.0016056504100561142,0.0035755354911088943,-0.0020912764593958855
1772565881057839400,4.84583935546875,0.0007845978252589703,0.003573670983314514,-0.001167425885796547
1772565881067771400,4.855771484375,0.0012885802425444126,0.0008378960192203522,-0.0024870671331882477
1772565881077703200,4.865703125,0.002029737923294306,-0.001516338437795639,-0.0018835952505469322
1772565881087634400,4.875634521484375,-0.00006906222552061081,0.000918729230761528,0.001846027560532093
1772565881097566500,4.88556640625,0.0030598854646086693,-0.0011335015296936035,-0.0005108695477247238
1772565881107497200,4.895497314453125,0.0004857908934354782,0.0016838926821947098,0.0019101230427622795
1772565881117429200,4.90542919921875,0.0015712957829236984,-0.000977405346930027,-0.003279578872025013
1772565881127360300,4.9153603515625,0.0007075630128383636,0.0003146417438983917,-0.0008809268474578857
1772565881137292300,4.925292236328125,-0.00179740646854043,-0.0012731347233057022,-0.0016881311312317848
1772565881147223300,4.935223388671875,-0.0002368115819990635,-0.0015604719519615173,0.0016446281224489212
1772565881157155300,4.9451552734375,0.0032735015265643597,0.0006467550992965698,0.001697625033557415
1772565881167087400,4.95508740234375,0.0004747724160552025,0.0004851538687944412,0.00004301685839891434
1772565881177018400,4.965018310546875,-0.0010674637742340565,-0.0022714845836162567,0.0014512958005070686
1772565881186950100,4.9749501953125,0.0010822792537510395,0.0034869909286499023,0.0003025587648153305
1772565881196881400,4.98488134765625,-0.004028060473501682,0.0005833469331264496,-0.00022448133677244186
1772565881206813400,4.9948134765625,-0.0030683064833283424,-0.0009343046694993973,0.002619117498397827
1772565881216744400,5.004744384765625,-0.00031433161348104477,0.0010699909180402756,0.002729106694459915
1772565881226676200,5.01467626953125,-0.00169734051451087,-0.005303149111568928,-0.0010873768478631973
1772565881236608300,5.024608154296875,0.0017844759859144688,-0.0025116242468357086,0.0018596770241856575
1772565881246539300,5.034539306640625,0.0007062703371047974,-0.0009709428995847702,0.0028718821704387665
1772565881256471300,5.04447119140625,-0.0007267766632139683,-0.0002867765724658966,0.000926177017390728
1772565881266402300,5.05440234375,-0.002118375152349472,-0.001189637929201126,-0.0027425577864050865
1772565881276334300,5.064334228515625,-0.0026906882412731647,-0.0016184067353606224,-0.001122291199862957
1772565881286265300,5.074265380859375,0.000840524211525917,-0.00003251619637012482,0.0005998481065034866
1772565881296197400,5.084197265625,-0.001001051627099514,0.002230904996395111,0.0008642999455332756
1772565881306129200,5.094129150390625,0.0014934618957340717,-0.003083818592131138,-0.0011946475133299828
1772565881316060400,5.104060302734375,0.0020585847087204456,-0.0014984384179115295,-0.0013688178732991219
1772565881325992400,5.113992431640625,-0.0003975699655711651,-0.0007814038544893265,-0.00041990261524915695
1772565881335923500,5.12392333984375,-0.0013674930669367313,-0.003425389528274536,0.0014917142689228058
1772565881345855200,5.133855224609375,0.0008457810617983341,-0.00029921717941761017,0.0015571974217891693
1772565881355786200,5.1437861328125,0.00010169390588998795,-0.0014486368745565414,0.0004461267963051796
1772565881365718800,5.15371875,-0.0011493703350424767,-0.000007497146725654602,0.00190767552703619
1772565881375650800,5.16365087890625,-0.0024364760611206293,-0.0012868791818618774,-0.0015941150486469269
1772565881385582000,5.17358203125,0.002378538716584444,0.00001747533679008484,-0.0022527826949954033
1772565881395514000,5.18351416015625,-0.0005930163897573948,-0.0010672295466065407,-0.0020871348679065704
1772565881405444900,5.19344482421875,0.00013258634135127068,0.00025791674852371216,-0.0013658879324793816
1772565881415377000,5.203376953125,-0.0005180239677429199,-0.001663288101553917,0.0001387977972626686
1772565881425308000,5.213307861328125,-0.000767226330935955,-0.001367291435599327,-0.00024197716265916824
1772565881435240000,5.223239990234375,-0.0010910667479038239,-0.0013763466849923134,-0.0007985783740878105
1772565881445171700,5.233171630859375,-0.0013296762481331825,0.0014599133282899857,0.0008224621415138245
1772565881455103000,5.24310302734375,-0.0005128849297761917,-0.0009893961250782013,0.000022714026272296906
1772565881465035000,5.253034912109375,0.0001275511458516121,-0.0002811737358570099,-0.00038218218833208084
1772565881474966000,5.262966064453125,0.0016809729859232903,0.0011060666292905807,-0.000009072944521903992
1772565881484897800,5.272897705078125,0.0012003504671156406,-0.002416381612420082,0.0014999033883213997
1772565881494829000,5.2828291015625,-0.00036558834835886955,-0.0021846871823072433,0.0005635358393192291
1772565881504761000,5.292760986328125,0.0001874971203505993,0.0019518695771694183,0.0011120401322841644
1772565881514693000,5.302693115234375,0.00009162304922938347,0.000002436339855194092,-0.0018960004672408104
1772565881524624000,5.312623779296875,-0.0029373238794505596,-0.0004100613296031952,-0.0010249922052025795
1772565881534556000,5.322555908203125,0.00024089263752102852,0.002167079597711563,-0.0013315211981534958
1772565881544487000,5.33248681640625,0.001669763121753931,-0.0001588687300682068,-0.0006180731579661369
1772565881554419000,5.3424189453125,-0.0012115109711885452,0.0009061302989721298,-0.0007155444473028183
1772565881564350000,5.352349853515625,0.0018656742759048939,0.0004642624408006668,-0.001771450974047184
1772565881574282000,5.362281982421875,-0.0006068041548132896,0.001118335872888565,0.0005881097167730331
1772565881584214000,5.372214111328125,-0.0020282049663364887,0.0003258809447288513,0.0014543896540999413
1772565881594145000,5.38214501953125,-0.0004303082823753357,-0.003984179347753525,-0.0006566978991031647
1772565881604076800,5.392076904296875,-0.0011541899293661118,0.0012338235974311829,-0.0030747568234801292
1772565881614008000,5.402008056640625,0.004098629113286734,-0.0007859179750084877,0.0010504797101020813
1772565881623940000,5.411940185546875,-0.0016514654271304607,-0.002453714609146118,-0.003386428579688072
1772565881633870800,5.421870849609375,-0.0004772776737809181,0.0008680466562509537,0.0009159082546830177
1772565881643803000,5.431802978515625,0.0014678006991744041,-0.0025116009637713432,-0.001255052164196968
1772565881653735000,5.44173486328125,-0.000642488244920969,-0.0008015846833586693,-0.0012220283970236778
1772565881663666000,5.451666015625,0.0015181107446551323,-0.00028114207088947296,0.0041802311316132545
1772565881673598000,5.461597900390625,0.0016022669151425362,-0.001524040475487709,0.0015160050243139267
1772565881683529000,5.471529052734375,0.0004694364033639431,-0.0005701491609215736,0.0017015747725963593
1772565881693461000,5.4814609375,0.0012931521050632,-0.003576858900487423,0.0012805284932255745
1772565881703392000,5.49139208984375,-0.0015575899742543697,-0.00397933553904295,0.003503857646137476
1772565881713323800,5.50132373046875,0.0001931721344590187,-0.0035803932696580887,0.0030926652252674103
1772565881723255800,5.511255859375,0.0021013598889112473,-0.005684901028871536,0.0009475285187363625
1772565881733187000,5.52118701171875,-0.00044435542076826096,-0.0030169468373060226,0.0019542034715414047
1772565881743119000,5.531119140625,-0.0012297136709094048,-0.003100333735346794,0.0035266559571027756
1772565881753049900,5.5410498046875,-0.0028164249379187822,-0.0034026028588414192,0.0041016326285898685
1772565881762982000,5.55098193359375,-0.0014092507772147655,-0.0020399801433086395,0.007928743958473206
1772565881772913000,5.560912841796875,-0.0018904840108007193,-0.0038434723392128944,0.003826943226158619
1772565881782845000,5.570844970703125,-0.00267428089864552,-0.007501176558434963,0.0030889250338077545
1772565881792777000,5.58077685546875,-0.0008196556009352207,-0.0029000332579016685,0.006306290160864592
1772565881802708000,5.5907080078125,-0.005003058817237616,-0.005444749258458614,0.0069475118070840836
1772565881812640000,5.600639892578125,-0.003327131737023592,-0.007319881580770016,0.004620441701263189
1772565881822571000,5.610571044921875,-0.0014234809204936028,-0.004334855824708939,0.004270471632480621
1772565881832502800,5.620502685546875,-0.0018937953282147646,-0.003141493536531925,0.001685873605310917
1772565881842434000,5.63043408203125,-0.001205203589051962,-0.001187608577311039,0.0037861918099224567
1772565881852366000,5.640365966796875,-0.002815883606672287,0.0016446635127067566,0.003462884109467268
1772565881862298000,5.650298095703125,-0.003513732925057411,0.001180531457066536,0.0012807315215468407
1772565881872228900,5.660228759765625,-0.0007685464806854725,-0.0007800878956913948,-0.0006399406120181084
1772565881882161000,5.670160888671875,-0.00027076154947280884,0.002382606267929077,-0.002290419302880764
1772565881892092000,5.680091796875,0.001848848070949316,0.006220754235982895,-0.003954894840717316
1772565881902024000,5.69002392578125,0.002649179194122553,0.0033436063677072525,-0.005373720079660416
1772565881911955000,5.699954833984375,0.004247609060257673,0.005312480032444,-0.006705032661557198
1772565881921887000,5.709886962890625,0.005379294510930777,0.007137637585401535,-0.0014844834804534912
1772565881931819000,5.719819091796875,0.002848226111382246,0.004834001883864403,-0.003801700659096241
1772565881941750000,5.72975,0.002276219893246889,0.004934541881084442,-0.004517959430813789
1772565881951681800,5.739681884765625,0.004193695727735758,0.005959060043096542,-0.0017818277701735497
1772565881961613000,5.749613037109375,-0.0005769594572484493,-0.0010985881090164185,-0.002695051021873951
1772565881971545000,5.759545166015625,0.0016590305604040623,0.0010814759880304337,0.0005502775311470032
1772565881981475800,5.769475830078125,0.0019444827921688557,0.0006669331341981888,0.003473925404250622
1772565881991407900,5.779407958984375,0.0004794779233634472,-0.0023727985098958015,0.0023468760773539543
1772565882001340000,5.78933984375,0.0015489733777940273,-0.0017485106363892555,0.003180118277668953
1772565882011271000,5.79927099609375,0.0001955549232661724,-0.0038737133145332336,0.002728979103267193
1772565882021203000,5.809202880859375,-0.0020061873365193605,-0.001657102257013321,0.0024454183876514435
1772565882031134000,5.819134033203125,0.0007176939398050308,-0.0007763952016830444,0.007273463532328606
1772565882041066000,5.82906591796875,-0.002034226432442665,-0.002496901899576187,0.0010613678023219109
1772565882050997000,5.8389970703125,0.000376733485609293,-0.0017775818705558777,0.0027570025995373726
1772565882060929000,5.848928955078125,0.003153490833938122,-0.0016376618295907974,0.0028134677559137344
1772565882070860800,5.85886083984375,-0.0012114299461245537,-0.0018238164484500885,0.0029397010803222656
1772565882080792000,5.8687919921875,-0.0020541853737086058,-0.0016033630818128586,0.0027132919058203697
1772565882090724000,5.87872412109375,-0.0029101253021508455,-0.004450814798474312,0.0036438005045056343
1772565882100654800,5.88865478515625,-0.0014650523662567139,-0.0017564725130796432,-0.0006134016439318657
1772565882110587000,5.8985869140625,-0.003884267760440707,0.0008310545235872269,-0.00002697296440601349
1772565882120518000,5.908517822265625,-0.0005813916213810444,-0.0019783787429332733,-0.0036806315183639526
1772565882130450000,5.918449951171875,-0.00013983948156237602,0.0013894550502300262,-0.0015807291492819786
1772565882140382000,5.9283818359375,-0.0010945950634777546,0.0036699771881103516,-0.00008239224553108215
1772565882150313000,5.93831298828125,0.00029477570205926895,-0.002489914186298847,-0.0016398094594478607
1772565882160245000,5.948244873046875,0.0016979556530714035,-0.0005342783406376839,-0.006006209179759026
1772565882170176000,5.958176025390625,-0.014764107763767242,0.002497730776667595,-0.003176335245370865
1772565882180107800,5.968107666015625,-0.02609129063785076,0.031010787934064865,0.020015152171254158
1772565882190039000,5.9780390625,-0.02295568585395813,0.08875877410173416,0.056636013090610504
1772565882199971000,5.98797119140625,0.02909744158387184,-0.07658787071704865,-0.025919653475284576
1772565882209903000,5.997903076171875,-0.010041439905762672,-0.07785286754369736,-0.05234166979789734
1772565882219833900,6.007833740234375,0.0023891376331448555,0.03352627903223038,0.025965295732021332
1772565882229766000,6.017765869140625,-0.0042032515630126,0.009172998368740082,0.018270622938871384
1772565882239697000,6.02769677734375,0.007407292723655701,-0.002488641068339348,-0.029207829385995865
1772565882249629000,6.03762890625,-0.00787978433072567,-0.015934674069285393,-0.005905169062316418
1772565882259560000,6.047559814453125,0.0003933710977435112,-0.0017078835517168045,0.022974271327257156
1772565882269492000,6.057491943359375,-0.0024769839365035295,0.006469352170825005,-0.004537513479590416
1772565882279424000,6.067424072265625,0.00472209881991148,-0.006208689883351326,-0.0131835313513875
1772565882289355000,6.07735498046875,-0.0030519342981278896,0.00008728913962841034,0.006415470503270626
1772565882299286800,6.087286865234375,-0.0025001533795148134,0.0033409371972084045,0.010459812358021736
1772565882309218000,6.097218017578125,-0.001167507842183113,0.0023803357034921646,-0.0027686413377523422
1772565882319150000,6.107150146484375,0.0001301267184317112,0.002372315153479576,-0.0031762588769197464
1772565882329081000,6.1170810546875,-0.0029394326265901327,0.0011414028704166412,0.005148249678313732
1772565882339012900,6.127012939453125,-0.0035516084171831608,-0.0034612324088811874,0.0024901535362005234
1772565882348945000,6.13694482421875,-0.004805691074579954,-0.0020907698199152946,0.0016248924657702446
1772565882358876000,6.1468759765625,0.0000252528116106987,0.003576241433620453,0.003007965162396431
1772565882368807700,6.1568076171875,-0.006441967561841011,0.04360701143741608,0.023236537352204323
1772565882378738700,6.16673876953125,-0.01028621755540371,0.004033707082271576,0.004666514694690704
1772565882388670700,6.176670654296875,-0.0005390476435422897,-0.02549648843705654,-0.005098498426377773
1772565882398601500,6.1866015625,0.00383369205519557,0.00280102901160717,0.0017098532989621162
1772565882408533500,6.196533447265625,0.00488643953576684,0.012391604483127594,-0.004517948254942894
1772565882418465500,6.206465576171875,-0.0010605663992464542,-0.007784985937178135,-0.008165182545781136
1772565882428396800,6.216396728515625,0.0032444335520267487,-0.010640693828463554,0.003004380501806736
1772565882438328600,6.22632861328125,-0.0017354111187160015,-0.0030293790623545647,0.0009904978796839714
1772565882448259600,6.236259521484375,-0.00024404097348451614,0.01122891902923584,-0.002670283429324627
1772565882458191600,6.246191650390625,0.006393443327397108,0.0003010071814060211,-0.0028780056163668633
1772565882468122600,6.25612255859375,0.0016873711720108986,-0.011413171887397766,-0.001961878500878811
1772565882478054400,6.266054443359375,-0.0012355558574199677,0.005136735737323761,-0.0033615734428167343
1772565882487986700,6.275986572265625,-0.0018866988830268383,0.009259041398763657,-0.00044700969010591507
1772565882497917700,6.285917724609375,0.0005448469892144203,0.001484055072069168,-0.003019060008227825
1772565882507849700,6.295849609375,0.00034670764580368996,-0.0004789605736732483,-0.001076551154255867
1772565882517780500,6.305780517578125,-0.006262725684791803,-0.004065173678100109,-0.002664593979716301
1772565882527712500,6.31571240234375,-0.00327172945253551,0.008545160293579102,0.002781570889055729
1772565882537643800,6.325643798828125,-0.0033150017261505127,0.010489506646990776,0.0026360079646110535
1772565882547575800,6.335575927734375,-0.0005623581819236279,-0.004275592043995857,0.0005478234961628914
1772565882557507600,6.345507568359375,0.0008910857141017914,-0.0007466794922947884,-0.000058516860008239746
1772565882567438600,6.3554384765625,0.0013760472647845745,0.005989786237478256,-0.000566115602850914
1772565882577370600,6.36537060546875,0.0029928921721875668,-0.0035302918404340744,-0.002923661842942238
1772565882587301600,6.375301513671875,0.00421768007799983,-0.0043249791488051414,-0.0036118226125836372
1772565882597233400,6.3852333984375,0.0023649027571082115,-0.002552899532020092,-0.0014985539019107819
1772565882607164700,6.39516455078125,0.00002211984246969223,0.008579647168517113,0.001805364154279232
1772565882617096700,6.4050966796875,0.0003354824148118496,0.008089303970336914,-0.0008942717686295509
1772565882627028700,6.41502880859375,0.0008332272991538048,-0.0011654477566480637,0.000705755315721035
1772565882636959500,6.42495947265625,0.00493721105158329,-0.0067097507417202,0.00027922261506319046
1772565882646891500,6.4348916015625,-0.0006556939333677292,0.00019103288650512695,-0.0012321211397647858
1772565882656822800,6.44482275390625,0.0025394498370587826,0.0013228394091129303,0.00020394381135702133
1772565882666754800,6.4547548828125,0.001360202208161354,-0.005572883412241936,0.0018037054687738419
1772565882676685600,6.464685546875,-0.0026476273778826,0.0026864558458328247,0.0013960925862193108
1772565882686617600,6.47461767578125,0.0009289979934692383,0.004818316549062729,0.0015183314681053162
1772565882696549600,6.484549560546875,-0.0009233416058123112,-0.0023954296484589577,0.0032547726295888424
1772565882706480400,6.49448046875,-0.0002514258958399296,0.006578890606760979,0.0017729904502630234
1772565882716412700,6.50441259765625,-7.059425115585327e-7,0.004485150799155235,0.0016799597069621086
1772565882726343700,6.51434375,-0.00032268185168504715,-0.0008076159283518791,-0.0021896129474043846
1772565882736275700,6.524275634765625,0.0001926477998495102,-0.0015511782839894295,0.0021212194114923477
1772565882746206500,6.53420654296875,0.0043261400423944,0.003583395853638649,0.0005968259647488594
1772565882756138500,6.544138427734375,-0.00029589422047138214,-0.00003960356116294861,-0.0020811622962355614
1772565882766070500,6.554070556640625,-0.0011209412477910519,-0.0006745010614395142,-0.0005969824269413948
1772565882776001800,6.564001708984375,0.000739614013582468,0.0015922356396913528,0.00012878607958555222
1772565882785933600,6.57393359375,-0.0005504214204847813,0.010465888306498528,-0.0010390104725956917
1772565882795864600,6.583864501953125,-0.0036489125341176987,0.008529601618647575,0.0016694040969014168
1772565882805796600,6.593796630859375,-0.0011431444436311722,-0.003843710757791996,0.0028526466339826584
1772565882815727600,6.6037275390625,-0.000032862648367881775,-0.0003747297450900078,0.0022520897909998894
1772565882825659400,6.613659423828125,-0.003035576781257987,0.005365980789065361,-0.0024127038195729256
1772565882835591700,6.623591796875,0.0003406223841011524,-0.004067647270858288,-0.0015520425513386726
1772565882845522700,6.633522705078125,-0.0016125398688018322,-0.00281729269772768,0.0006077811121940613
1772565882855454700,6.643454833984375,-0.0008295523002743721,0.002719888463616371,-0.002859988249838352
1772565882865385500,6.653385498046875,-0.001202395185828209,-0.0013422314077615738,0.0008037229999899864
1772565882875317500,6.6633173828125,0.000011789146810770035,-0.00009196251630783081,0.003105882555246353
1772565882885249500,6.67324951171875,-0.000551469624042511,-0.0005665384232997894,0.00125178974121809
1772565882895180800,6.683180908203125,0.00191855663433671,0.0019750073552131653,0.0006008166819810867
1772565882905112600,6.693112548828125,-0.004505787044763565,0.00014514848589897156,0.00013582874089479446
1772565882915043600,6.703043701171875,-0.0030373712070286274,-0.0073709553107619286,-0.0001630866900086403
1772565882924975600,6.7129755859375,-0.0026128634344786406,-0.005445756018161774,0.00024038273841142654
1772565882934906600,6.72290673828125,-0.0033089236821979284,0.010750845074653625,0.0029400186613202095
1772565882944838400,6.73283837890625,0.0032954500056803226,-0.0018594879657030106,0.003922991454601288
1772565882954769700,6.742769775390625,-0.0016291122883558273,-0.011695382185280323,0.0015834644436836243
1772565882964701700,6.75270166015625,0.0006191283464431763,-0.000411301851272583,-0.001709267497062683
1772565882974633700,6.7626337890625,-0.0017247195355594158,0.0010840632021427155,0.002683349885046482
1772565882984564500,6.772564453125,0.0005432283505797386,-0.00286194309592247,-0.0005939360707998276
1772565882994496500,6.78249658203125,0.002235568128526211,-0.00428012665361166,-0.0023185601457953453
1772565883004427800,6.792427734375,-0.0011341297067701817,0.0008946619927883148,-0.00014329049736261368
1772565883014359800,6.80235986328125,-0.0014055054634809494,-0.0009250761941075325,-0.0013267993927001953
1772565883024291600,6.81229150390625,-0.0009174435399472713,-0.003298850730061531,0.0014290595427155495
1772565883034222600,6.82222265625,-0.0035835455637425184,-0.0022463109344244003,0.0029550911858677864
1772565883044154600,6.832154541015625,0.0011627399362623692,-0.002089983783662319,0.0025409702211618423
1772565883054085600,6.842085693359375,-0.0026312258560210466,-0.005266533233225346,0.0007141353562474251
1772565883064017400,6.852017333984375,-0.0017401319928467274,-0.0015695327892899513,0.0012648766860365868
1772565883073948700,6.86194873046875,-0.0031866165809333324,-0.003328896127641201,0.0009307460859417915
1772565883083880700,6.871880615234375,-0.005476136226207018,0.000949472188949585,0.004890334326773882
1772565883093812700,6.881812744140625,-0.000922634731978178,-0.004418420605361462,0.0015575513243675232
1772565883103743500,6.891743408203125,-0.0005801520310342312,-0.003314008004963398,-0.0021943096071481705
1772565883113675500,6.901675537109375,0.0005441810935735703,-0.0011873356997966766,0.00034067314118146896
1772565883123606800,6.911606689453125,-0.003806358901783824,-0.0009274110198020935,0.002496502362191677
1772565883133538800,6.921538818359375,-0.0036676886957138777,0.002144966274499893,0.0003678053617477417
1772565883143469600,6.931469482421875,0.0009542275220155716,-0.0025211581960320473,0.0029441481456160545
1772565883153401600,6.941401611328125,-0.0003458186984062195,-0.0015408573672175407,-0.0005393438041210175
1772565883163333600,6.951333740234375,-0.001530925277620554,0.0037388596683740616,-0.00263072457164526
1772565883173264400,6.961264404296875,0.0011904551647603512,-0.0033563803881406784,0.0013432791456580162
1772565883183196700,6.97119677734375,0.0013675554655492306,-0.0019275946542620659,-0.0012165512889623642
1772565883193127700,6.981127685546875,0.00490690628066659,0.0006476752460002899,0.00024123862385749817
1772565883203059700,6.991059814453125,0.005515705328434706,-0.0013760607689619064,0.0006787953898310661
1772565883212990500,7.000990478515625,0.0019669346511363983,0.0016636289656162262,0.0007326528429985046
1772565883222922500,7.010922607421875,0.0026764008216559887,-0.0010330881923437119,-0.0008857501670718193
1772565883232854500,7.0208544921875,0.003481918480247259,0.0032710079103708267,0.0014615543186664581
1772565883242785800,7.030785888671875,-0.0033152680844068527,0.003865957260131836,0.002422688528895378
1772565883252717600,7.040717529296875,-0.0014372598379850388,-0.000989425927400589,-0.0015114285051822662
1772565883262648600,7.050648681640625,-0.0012492407113313675,0.0007605366408824921,-0.0011660167947411537
1772565883272580600,7.06058056640625,0.0030257878825068474,-0.00029537826776504517,0.00029567908495664597
1772565883282511600,7.07051171875,0.00228862464427948,-0.005631021223962307,-0.0002792971208691597
1772565883292443400,7.080443359375,0.0005326084792613983,0.000771867111325264,0.00033701397478580475
1772565883302375700,7.090375732421875,0.0036823293194174767,0.0010099541395902634,-0.0025591738522052765
1772565883312306700,7.100306640625,0.0022136415354907513,0.0008631329983472824,-0.003146011382341385
1772565883322238700,7.11023876953125,0.004009144846349955,0.003739878535270691,0.0012490032240748405
1772565883332169500,7.12016943359375,0.0022160611115396023,-0.0013398965820670128,-0.00017582718282938004
1772565883342101500,7.1301015625,0.0002818075008690357,-0.0005382848903536797,-0.0014054086059331894
1772565883352033500,7.140033447265625,0.0013789227232336998,-0.00016335584223270416,-0.000030384398996829987
1772565883361964800,7.14996484375,0.0013869120739400387,0.0009122937917709351,-0.0026008673012256622
1772565883371896300,7.159896240234375,0.00231925118714571,0.00036055780947208405,-0.0023184791207313538
1772565883381827300,7.169827392578125,-0.0013133003376424313,-0.002399807795882225,0.0006333682686090469
1772565883391759400,7.17975927734375,0.00011312775313854218,0.0011687520891427994,-0.0010264329612255096
1772565883401690400,7.1896904296875,0.003211183473467827,0.0027253683656454086,0.0010162116959691048
1772565883411622400,7.199622314453125,0.001933847088366747,-0.004856226034462452,-0.0026634810492396355
1772565883421553400,7.209553466796875,-0.0004182565025985241,0.013112654909491539,0.0025837449356913567
1772565883431485400,7.2194853515625,0.0004791957326233387,0.0011644549667835236,0.0017249668017029762
1772565883441417200,7.229417236328125,0.0001665404997766018,-0.00993373617529869,-0.0003863871097564697
1772565883451348200,7.23934814453125,-0.0024431918282061815,0.00601109117269516,0.00039342138916254044
1772565883461280300,7.2492802734375,0.00009959423914551735,0.003609186038374901,0.003032348118722439
1772565883471211500,7.25921142578125,-0.0012120404280722141,-0.0032012443989515305,-0.0018816245719790459
1772565883481143300,7.269143310546875,-0.0012349439784884453,-0.0009016050025820732,0.001962382346391678
1772565883491075300,7.279075439453125,-0.0003535747528076172,-0.0002637989819049835,-0.00006787292659282684
1772565883501006300,7.28900634765625,-0.001712852157652378,0.004305653274059296,-0.0025802990421652794
1772565883510938400,7.2989384765625,0.0020188563503324986,-0.0007784832268953323,0.0008024526759982109
1772565883520869400,7.308869384765625,-0.0010480396449565887,-0.0038842614740133286,0.0005414625629782677
1772565883530801400,7.318801513671875,-0.0023232013918459415,0.004383068531751633,0.00015409104526042938
1772565883540732400,7.328732421875,-0.00033168960362672806,-0.0002822577953338623,-0.0034190723672509193
1772565883550664400,7.33866455078125,-0.0013514612801373005,-0.000651555135846138,0.00002933293581008911
1772565883560596200,7.34859619140625,-0.0008089751936495304,0.0005934722721576691,-0.0002518976107239723
1772565883570527200,7.35852734375,-0.001728359144181013,-0.0003850990906357765,0.0014287419617176056
1772565883580459300,7.368459228515625,-0.002127833431586623,0.002508692443370819,-0.002198217436671257
1772565883590390300,7.378390380859375,0.0026035993359982967,0.000505056232213974,-0.00004470348358154297
1772565883600322300,7.388322265625,-0.0004779445007443428,0.00020731426775455475,-0.0005006361752748489
1772565883610253300,7.39825341796875,0.0014670789241790771,0.0009008366614580154,-0.000027215108275413513
1772565883620185300,7.408185302734375,-0.0005079214461147785,0.00008404627442359924,-0.0001675635576248169
1772565883630117400,7.418117431640625,-0.0029327748343348503,0.00019864365458488464,0.0008480437099933624
1772565883640048400,7.42804833984375,-0.0003931843675673008,0.0003600306808948517,0.002722109667956829
1772565883649980400,7.43798046875,-0.002157443668693304,-0.0033051716163754463,0.0006653554737567902
1772565883659911400,7.447911376953125,0.001816791482269764,0.0029641762375831604,0.00046774931252002716
1772565883669843500,7.457843505859375,-0.0015101470053195953,-0.000024458393454551697,-0.002292729914188385
1772565883679774200,7.467774169921875,-0.0016350490041077137,0.001930302008986473,0.0005983980372548103
1772565883689706200,7.477706298828125,0.0007497118785977364,0.002309754490852356,0.0005657169967889786
1772565883699638300,7.48763818359375,0.0009321384131908417,-0.0009206607937812805,-0.0011789202690124512
1772565883709569300,7.4975693359375,-0.004146549850702286,-0.0007778387516736984,0.0009145047515630722
1772565883719501300,7.507501220703125,-0.00019867951050400734,0.0012291204184293747,-0.0005824584513902664
1772565883729432300,7.517432373046875,0.0007292353548109531,-0.0003161933273077011,-0.00039665866643190384
1772565883739364400,7.5273642578125,-0.0003781071864068508,0.00038208626210689545,-0.00047309137880802155
1772565883749296400,7.53729638671875,0.0009143739007413387,0.001276293769478798,-0.0020505664870142937
1772565883759227400,7.547227294921875,0.0009822845458984375,-0.0014414628967642784,0.0027844030410051346
1772565883769159400,7.557159423828125,0.00033769290894269943,-0.00045240577310323715,-0.00003811251372098923
1772565883779090400,7.56709033203125,-0.0006990758702158928,0.0027146246284246445,0.0015187719836831093
1772565883789022200,7.577022216796875,0.0002582748420536518,0.0016378872096538544,0.00017931591719388962
1772565883798953200,7.586953125,-0.00086611183360219,0.001193404197692871,0.0007785269990563393
1772565883808885200,7.59688525390625,-0.0019740620627999306,0.00010215491056442261,0.0006066123023629189
1772565883818817300,7.6068173828125,0.00026618922129273415,-0.001302129589021206,0.00029795244336128235
1772565883828748300,7.616748291015625,-0.0016556261107325554,0.000039597973227500916,-0.0004657367244362831
1772565883838680300,7.626680419921875,-0.00033842679113149643,0.0009810253977775574,0.001831771805882454
1772565883848611300,7.636611328125,-0.0013792859390377998,-0.0003046710044145584,0.00012427661567926407
1772565883858543400,7.64654345703125,0.001050049439072609,-0.004087691195309162,-0.0011828020215034485
1772565883868474400,7.656474365234375,0.0011479398235678673,-0.0017181579023599625,-0.0015397965908050537
1772565883878406400,7.666406494140625,0.0010464736260473728,-0.0004174700006842613,-0.0000612093135714531
1772565883888338400,7.67633837890625,0.00267964880913496,-0.002847142517566681,0.00037768110632896423
1772565883898269400,7.68626953125,0.002154206857085228,0.0015063267201185226,0.0006503881886601448
1772565883908201200,7.696201171875,0.0005423277616500854,0.00005955062806606293,0.002778349444270134
1772565883918132200,7.70613232421875,-0.0013048406690359116,0.00015542469918727875,-0.003093121573328972
1772565883928064300,7.716064208984375,-0.0011297278106212616,0.0009404942393302917,0.0017977738752961159
1772565883937995500,7.72599560546875,-0.00044929003342986107,-0.0017615491524338722,-0.0003149118274450302
1772565883947927300,7.73592724609375,-0.0015872912481427193,0.00173100084066391,0.0014479197561740875
1772565883957859300,7.745859375,-0.00009432341903448105,-0.0007966049015522003,-0.0001305360347032547
1772565883967790300,7.755790283203125,-0.0018811891786754131,-0.0013242000713944435,0.0014044223353266716
1772565883977722400,7.765722412109375,0.0007904940284788609,0.0013842340558767319,-0.0009580682963132858
1772565883987653400,7.7756533203125,0.002186151221394539,0.00012682192027568817,-0.0006071329116821289
1772565883997585400,7.78558544921875,0.0006431154906749725,-0.0008265888318419456,0.0011705271899700165
1772565884007516400,7.795516357421875,-0.0003143106587231159,0.0024049170315265656,0.0017232317477464676
1772565884017448400,7.805448486328125,-0.00207652454264462,-0.0008750315755605698,-0.0023319637402892113
1772565884027380200,7.815380126953125,-0.0003209034912288189,0.0007562413811683655,0.00010950397700071335
1772565884037311200,7.825311279296875,-0.0009265062399208546,0.0013442672789096832,-0.0006825197488069534
1772565884047243300,7.8352431640625,0.000221937894821167,-0.00029013119637966156,-0.0004567885771393776
1772565884057174300,7.84517431640625,0.00039344513788819313,0.0001013539731502533,-0.0005081873387098312
1772565884067106300,7.855106201171875,0.000023392029106616974,-0.0004824576899409294,0.003197002224624157
1772565884077037300,7.865037353515625,-0.0006147013045847416,0.0008768197149038315,-0.002097095362842083
1772565884086969300,7.87496923828125,0.0008392813615500927,-0.0010466249659657478,0.0015553468838334084
1772565884096901400,7.8849013671875,0.00044859573245048523,-0.0032732943072915077,0.000818982720375061
1772565884106832400,7.894832275390625,-0.0006294259801506996,0.0007942300289869308,-0.002671206369996071
1772565884116764400,7.904764404296875,-0.00019692862406373024,-0.0008097914978861809,0.0036713778972625732
1772565884126695400,7.9146953125,0.0005798209458589554,-0.0013198526576161385,-0.002376123331487179
1772565884136627500,7.92462744140625,0.0005806200206279755,0.0012239981442689896,0.0024577807635068893
1772565884146559200,7.934559326171875,-0.0018048619385808706,0.00042702071368694305,0.0023319628089666367
1772565884156490200,7.944490234375,0.0004044962115585804,0.00028853677213191986,0.00008745118975639343
1772565884166422300,7.95442236328125,0.0010831360705196857,0.0008519776165485382,0.0005428493022918701
1772565884176353300,7.964353271484375,-0.000033793970942497253,0.0005840621888637543,0.0011407285928726196
1772565884186285300,7.974285400390625,-0.0005770078860223293,-0.000040236860513687134,0.0026083067059516907
1772565884196216300,7.98421630859375,-0.0030223221983760595,0.0016644541174173355,0.0008420990779995918
1772565884206148400,7.9941484375,0.0006016818806529045,-0.000601145438849926,0.000004714354872703552
1772565884216080400,8.004080322265626,-0.0029999769758433104,0.001705152913928032,0.0015448210760951042
1772565884226011400,8.014011474609376,0.0014364439994096756,-0.0014205845072865486,-0.003362305462360382
1772565884235943400,8.023943359375,0.0006074020639061928,0.0034607239067554474,-0.0020544277504086494
1772565884245874400,8.03387451171875,0.00007370579987764359,0.0035157520323991776,0.0014236671850085258
1772565884255806200,8.04380615234375,-0.0003904830664396286,-0.00029736198484897614,-0.0017414996400475502
1772565884265737200,8.0537373046875,0.0007648724131286144,-0.00006986409425735474,0.00023913197219371796
1772565884275669200,8.063669189453124,-0.0017693918198347092,-0.0007148822769522667,-0.0009963084012269974
1772565884285601300,8.073601318359374,0.0016005374491214752,0.001245155930519104,0.0002850126475095749
1772565884295532300,8.0835322265625,-0.0015257475897669792,0.0012648645788431168,0.0023489631712436676
1772565884305464300,8.09346435546875,0.002348407171666622,-0.0014762375503778458,-0.002586659975349903
1772565884315395300,8.103395263671874,0.00032413844019174576,-0.0005433326587080956,-0.0011738529428839684
1772565884325327400,8.113327392578125,-0.0011377041228115559,-0.0005525602027773857,0.0010552462190389633
1772565884335258400,8.12325830078125,0.00042450614273548126,-0.0019890693947672844,-0.0004374552518129349
1772565884345190400,8.1331904296875,0.00123181426897645,0.0012592971324920654,-0.0022692950442433357
1772565884355122400,8.143122314453125,0.0008144970051944256,0.0012563690543174744,-0.001267148181796074
1772565884365053400,8.153053466796875,0.0020964769646525383,-0.0027410443872213364,0.0019035451114177704
1772565884374986000,8.162986083984375,-0.0007717474363744259,0.00035940855741500854,0.0016129948198795319
1772565884384916700,8.172916748046875,0.0009927498176693916,-0.0010294876992702484,0.00012899469584226608
1772565884394848800,8.182848876953125,0.0020170011557638645,0.0007140841335058212,-0.0015187030658125877
1772565884404780800,8.19278076171875,-0.002423473633825779,-0.00017748959362506866,0.0003285268321633339
1772565884414711800,8.2027119140625,-0.0006324979476630688,-0.0013298392295837402,-0.0008219592273235321
1772565884424643800,8.212643798828125,-0.001517727505415678,0.0009519308805465698,-0.000878714956343174
1772565884434574800,8.222574951171875,-0.0030128262005746365,-0.0019370652735233307,0.0006342269480228424
1772565884444507000,8.2325068359375,0.0003987438976764679,-0.0012265024706721306,-0.00035806652158498764
1772565884454437600,8.242437744140625,0.0009446917101740837,-0.00024139881134033203,0.0010459525510668755
1772565884464369700,8.25236962890625,0.003254995681345463,0.00011138617992401123,-0.00008695852011442184
1772565884474301700,8.2623017578125,-0.00034346804022789,0.0005518738180398941,0.0011165235191583633
1772565884484233000,8.27223291015625,0.00031717075034976006,-0.00027385540306568146,-0.0018300777301192284
1772565884494164700,8.282164794921876,0.0002655056305229664,-0.0006184680387377739,-0.00021327193826436996
1772565884504095700,8.292095703125,-0.0017888471484184265,0.0011197477579116821,0.0016653109341859818
1772565884514027800,8.30202783203125,-0.0016330522485077381,-0.00048161204904317856,-0.0012314096093177795
1772565884523959000,8.311958984375,0.0008262088522315025,-0.00018142350018024445,0.00018325354903936386
1772565884533890800,8.321890869140624,0.0004818621091544628,-0.0003348216414451599,-0.0007709572091698647
1772565884543822800,8.33182275390625,0.0009301379323005676,-0.0011927373707294464,-0.0020761098712682724
1772565884553753900,8.34175390625,-0.0019407498184591532,-0.0010830145329236984,0.0014075711369514465
1772565884563686000,8.351685791015624,-0.00003456650301814079,0.0008582454174757004,0.001215137541294098
1772565884573616600,8.36161669921875,0.0004144422709941864,-0.0002464335411787033,-0.0005814302712678909
1772565884583548700,8.371548583984374,-0.0028181655798107386,0.0012113824486732483,-0.0010707154870033264
1772565884593480700,8.381480712890625,0.0005515320226550102,0.0006614401936531067,-0.0011423546820878983
1772565884603412000,8.391411865234375,0.00014382274821400642,0.0006288904696702957,0.0009003803133964539
1772565884613343700,8.40134375,-0.0017709899693727493,0.0017578043043613434,0.002242613583803177
1772565884623274800,8.411274658203125,-0.0008463403210043907,-0.0022148415446281433,-0.000790824182331562
1772565884633206800,8.421206787109375,-0.0001701638102531433,-0.0004606172442436218,-0.0007500769570469856
1772565884643138000,8.431137939453125,-0.0009407214820384979,-0.00035812612622976303,-0.0009353850036859512
1772565884653069800,8.44106982421875,-0.00025975098833441734,0.0004954170435667038,0.0005029886960983276
1772565884663001900,8.451001953125,-0.0009526596404612064,-0.00022861547768115997,0.0025586355477571487
1772565884672932900,8.460932861328125,-0.0016701153945177794,0.0010161474347114563,-0.0021724700927734375
1772565884682865000,8.470864990234375,0.00022907229140400887,0.0015030447393655777,-0.0018057068809866905
1772565884692795600,8.480795654296875,-0.00003564590588212013,0.0013264771550893784,-0.0010533640161156654
1772565884702727700,8.490727783203125,-0.0026117891538888216,-0.004294993355870247,-0.003110582008957863
1772565884712659000,8.500658935546875,0.0013307542540133,0.003648150712251663,-0.0010418379679322243
1772565884722591000,8.510591064453125,0.0010470766574144363,0.0003647487610578537,-0.0009433180093765259
1772565884732522800,8.520522705078125,0.0008896840736269951,0.000017737969756126404,0.0006274143233895302
1772565884742453800,8.530453857421875,-0.0017362716607749462,0.001638593152165413,-0.002413320355117321
1772565884752385800,8.5403857421875,0.0021231812424957752,0.000950964167714119,-0.0016050506383180618
1772565884762316800,8.55031689453125,0.0007568309083580971,-0.0007571196183562279,-0.001358766108751297
1772565884772248800,8.560248779296876,0.0014452580362558365,0.00045674853026866913,-0.00035422109067440033
1772565884782179800,8.570179931640626,-0.003857804462313652,-0.0007034540176391602,0.0006641028448939323
1772565884792111900,8.58011181640625,-0.0004668016918003559,0.0014105625450611115,-0.0007263338193297386
1772565884802044000,8.5900439453125,-0.003539326833561063,-0.00039708055555820465,0.001562303863465786
1772565884811974700,8.599974609375,0.00022798078134655952,0.00022423453629016876,-0.000690198503434658
1772565884821906700,8.60990673828125,0.0018613827414810658,0.0023395419120788574,-0.0003320155665278435
1772565884831838000,8.619837890625,0.002659265883266926,-0.0005001863464713097,0.0018307371065020561
1772565884841770000,8.62977001953125,0.0004688655026257038,0.0008298736065626144,0.003737278748303652
1772565884851700700,8.63970068359375,-0.0007663085125386715,0.001132940873503685,-0.0022785356268286705
1772565884861632800,8.6496328125,-0.0016289877239614725,0.000734252855181694,-0.000004925765097141266
1772565884871564800,8.659564697265624,0.0024645570665597916,0.0033103283494710922,-0.002933870069682598
1772565884881495800,8.669495849609374,-0.001999981002882123,0.00046662241220474243,-0.0021964265033602715
1772565884891427800,8.679427734375,-0.0008926386944949627,0.00011188909411430359,-0.0019120005890727043
1772565884901358800,8.68935888671875,0.0019927294924855232,0.00019695982336997986,0.000029607675969600677
1772565884911291000,8.699290771484375,-0.00041636591777205467,-0.002123185433447361,0.00021736044436693192
1772565884921223000,8.709222900390625,-0.0017011284362524748,0.00017108023166656494,0.0013302480801939964
1772565884931153700,8.719153564453125,-0.0013186987489461899,-0.0002952404320240021,-0.0014663375914096832
1772565884941085700,8.729085693359375,0.00017743278294801712,-0.001957228407263756,-0.0011696796864271164
1772565884951017000,8.739016845703125,0.002271476201713085,0.0009637270122766495,-0.0005694031715393066
1772565884960948700,8.74894873046875,-0.00018311012536287308,-0.0030866237357258797,0.0009312452748417854
1772565884970879700,8.758879638671875,-0.0016971174627542496,0.000013029202818870544,0.001927800476551056
1772565884980811800,8.768811767578125,-0.00005223788321018219,0.002034805715084076,-0.0010172203183174133
1772565884990743800,8.778743896484375,0.0002681403420865536,-0.0007018577307462692,-0.00012159906327724457
1772565885000674800,8.7886748046875,-0.0006491211242973804,-0.0005418555811047554,0.0005120886489748955
1772565885010606800,8.79860693359375,0.0020220293663442135,-0.0007232166826725006,0.0006156861782073975
1772565885020537900,8.808537841796875,-0.0008490681648254395,-0.00200849212706089,0.0011334046721458435
1772565885030470000,8.818469970703125,0.0005291178822517395,0.0025854595005512238,0.0017576497048139572
1772565885040400600,8.828400634765625,-0.0013986630365252495,0.0003637373447418213,-0.000048032961785793304
1772565885050332700,8.838332763671875,-0.0003112941049039364,0.000702226534485817,-0.00007466413080692291
1772565885060264700,8.8482646484375,-0.0018818797543644905,-0.0018411828204989433,-0.0015820423141121864
1772565885070196000,8.858196044921876,-0.00047093722969293594,-0.0010997587814927101,-0.0015343716368079185
1772565885080127700,8.868127685546876,0.0022573363967239857,0.0014565903693437576,-0.0007965303957462311
1772565885090058800,8.878058837890626,0.0006389333866536617,-0.0025027310475707054,-0.00013366993516683578
1772565885099990800,8.88799072265625,0.00026459526270627975,-0.001396026462316513,0.0017271162942051888
1772565885109922800,8.8979228515625,0.0016302643343806267,0.0005504768341779709,0.0007476061582565308
1772565885119853800,8.907853759765626,-0.000548237469047308,0.0007993467152118683,-0.0004084501415491104
1772565885129785900,8.917785888671874,-0.0005503683350980282,0.0008890964090824127,-0.0015213852748274803
1772565885139716900,8.927716796875,0.001105050090700388,0.002355797216296196,0.0011061280965805054
1772565885149649000,8.93764892578125,0.001051520463079214,-0.0005153566598892212,-0.00042971689254045486
1772565885159579600,8.94757958984375,0.001109016127884388,-0.00017391331493854523,0.00039199739694595337
1772565885169511700,8.95751171875,-0.0007421472109854221,-0.0025579743087291718,0.0003496529534459114
1772565885179443700,8.967443603515624,0.0007630460895597935,0.0021618176251649857,-0.000502939336001873
1772565885189375000,8.977375,-0.0005562836304306984,0.0004323609173297882,0.001639307476580143
1772565885199306800,8.987306640625,-0.00004677288234233856,-0.0006302744150161743,0.0004027578979730606
1772565885209237800,8.99723779296875,-0.001204715110361576,0.000690387561917305,-0.0008870111778378487
1772565885219169800,9.007169677734375,0.0008268877863883972,0.0005484391003847122,0.0004979986697435379
1772565885229100800,9.017100830078125,-0.000483653973788023,0.0014584418386220932,-0.0008082818239927292
1772565885239032800,9.02703271484375,0.00042277341708540916,0.002344917505979538,0.00037957727909088135
1772565885248964900,9.03696484375,-0.00029201898723840714,0.0009134672582149506,0.00008183624595403671
1772565885258896000,9.046895751953125,-0.0012722788378596306,-0.0013189008459448814,0.00026820041239261627
1772565885268828000,9.056827880859375,-0.0019111710134893656,0.0007991120219230652,0.0004200004041194916
1772565885278758700,9.066758544921875,-0.0008859694935381413,-0.0014654528349637985,0.0007727304473519325
1772565885288690700,9.076690673828125,0.0028871968388557434,0.0005209986120462418,-0.002239304594695568
1772565885298622700,9.086622802734375,-0.002140239579603076,-0.0001205839216709137,-0.0006628865376114845
1772565885308554000,9.096553955078125,0.0006723250262439251,-0.0017238063737750053,-0.000045299530029296875
1772565885318485800,9.10648583984375,0.0005327067337930202,0.0013724733144044876,0.0017062323167920113
1772565885328416800,9.116416748046875,0.0020424528047442436,-0.00016656704246997833,0.00017145182937383652
1772565885338348800,9.126348876953125,-0.0003752186894416809,0.0003262758255004883,-0.0005365433171391487
1772565885348279800,9.13627978515625,0.00155583955347538,0.0009182970970869064,-0.0005554510280489922
1772565885358211800,9.1462119140625,-0.000027358531951904297,-0.0011849068105220795,-0.0009218230843544006
1772565885368144000,9.156143798828126,-0.0001077861525118351,0.0015245936810970306,-0.0003178184852004051
1772565885378075000,9.166074951171876,-0.002948388457298279,-0.00022800080478191376,0.002598527818918228
1772565885388007000,9.1760068359375,0.0002428772859275341,-0.000963299535214901,0.0005084788426756859
1772565885397937700,9.185937744140626,0.000729413703083992,0.0002534501254558563,-0.0002620462328195572
1772565885407869700,9.19586962890625,0.0008673653937876225,-0.001122339628636837,0.00041199941188097
1772565885417801000,9.205801025390626,0.003326886799186468,-0.0008972920477390289,-0.0008965898305177689
1772565885427732700,9.215732666015626,0.0007100650109350681,-0.0010674679651856422,0.001214764080941677
1772565885437664800,9.225664794921874,0.0005550901405513287,-0.000995434820652008,0.00046806875616312027
1772565885447595800,9.235595703125,-0.0016353600658476353,0.0015803743153810501,0.002131212502717972
1772565885457527800,9.24552783203125,-0.0017528589814901352,-0.0004625832661986351,-0.00016189459711313248
1772565885467458800,9.255458740234374,0.0008826050907373428,0.0017038974910974503,0.001254640519618988
1772565885477390800,9.265390869140624,0.0006585344672203064,0.0022668037563562393,0.003762913402169943
1772565885487323000,9.275322998046875,0.0016391100361943245,0.0002838149666786194,-0.00043609272688627243
1772565885497254000,9.28525390625,-0.0003528217785060406,-0.0009914115071296692,0.0005247965455055237
1772565885507186000,9.29518603515625,-0.0007778620347380638,-0.00001829303801059723,0.0010912511497735977
1772565885517116700,9.30511669921875,0.0013759434223175049,-0.0038635237142443657,-0.00004179030656814575
1772565885527048700,9.315048583984375,0.0015924586914479733,0.012078158557415009,0.014088942669332027
1772565885536980000,9.32497998046875,-0.0015171603299677372,0.020250776782631874,0.016503464430570602
1772565885546911700,9.334911865234375,0.0009071151725947857,0.01644272170960903,0.012162777595221996
1772565885556843800,9.34484375,0.0017457446083426476,0.018517857417464256,0.020113911479711533
1772565885566774800,9.35477490234375,0.0007022921927273273,0.022195011377334595,0.03251766413450241
1772565885576706800,9.364706787109375,-0.001441286876797676,0.02341838739812374,0.03137345239520073
1772565885586637800,9.374637939453125,0.002045057248324156,0.007607467472553253,0.014511913992464542
1772565885596569900,9.38456982421875,-0.0014123371802270412,-0.006426047533750534,-0.009123856201767921
1772565885606500900,9.3945009765625,0.0023688189685344696,-0.01898045465350151,-0.034006569534540176
1772565885616433000,9.404432861328125,-0.008423194289207458,-0.04948396235704422,-0.07169739156961441
1772565885626364700,9.41436474609375,-0.009019742719829082,-0.07487320899963379,-0.048759058117866516
1772565885636295700,9.424295654296875,0.006412457209080458,0.020126869902014732,0.047038376331329346
