time,seconds_elapsed,z,y,x
1772555316772206800,0.067206787109375,-0.18408527970314026,-0.029081052169203758,-0.062233321368694305
1772555316782139000,0.077138916015625,-0.22863410413265228,0.0588933601975441,-0.06958775967359543
1772555316792072000,0.087072021484375,-0.25406304001808167,0.15293464064598083,-0.06085152179002762
1772555316802004000,0.09700390625,-0.262594997882843,0.2345675230026245,-0.016106143593788147
1772555316811936000,0.10693603515625,-0.2582082152366638,0.30286911129951477,0.052273448556661606
1772555316821868000,0.116867919921875,-0.24049030244350433,0.3663812577724457,0.13765114545822144
1772555316831800800,0.12680078125,-0.2114567905664444,0.4182998538017273,0.21204416453838348
1772555316841732900,0.13673291015625,-0.17135123908519745,0.4343360960483551,0.2658923864364624
1772555316851665000,0.146664794921875,-0.14531351625919342,0.3721315562725067,0.27943217754364014
1772555316861597000,0.156596923828125,-0.14371778070926666,0.25409168004989624,0.24725505709648132
1772555316871529700,0.16652978515625,-0.15500931441783905,0.11945582181215286,0.161281019449234
1772555316881461800,0.176461669921875,-0.17734000086784363,-0.010752302594482899,0.05807064473628998
1772555316891393800,0.186393798828125,-0.19858217239379883,-0.10786446928977966,-0.03787665441632271
1772555316901325800,0.196325927734375,-0.21044114232063293,-0.16881360113620758,-0.10735458135604858
1772555316911259000,0.2062587890625,-0.22751706838607788,-0.19600766897201538,-0.13443973660469055
1772555316921190700,0.216190673828125,-0.24017956852912903,-0.19848307967185974,-0.11570026725530624
1772555316931122700,0.226122802734375,-0.2398378849029541,-0.1953544020652771,-0.07194719463586807
1772555316941054700,0.2360546875,-0.2126612663269043,-0.19258707761764526,-0.005935808643698692
1772555316950986800,0.24598681640625,-0.16892391443252563,-0.22885213792324066,0.06840020418167114
1772555316960919800,0.255919921875,-0.12985031306743622,-0.29551103711128235,0.1264496147632599
1772555316970851800,0.265851806640625,-0.09394237399101257,-0.3414023518562317,0.16013780236244202
1772555316980783900,0.275783935546875,-0.06482729315757751,-0.368478924036026,0.16883036494255066
1772555316990715600,0.285715576171875,-0.03718181326985359,-0.37654006481170654,0.16594058275222778
1772555317000648700,0.295648681640625,-0.01745251938700676,-0.38657113909721375,0.16487255692481995
1772555317010580700,0.305580810546875,-0.008256091736257076,-0.3899461627006531,0.1582372933626175
1772555317020512800,0.3155126953125,-0.018594948574900627,-0.3822103440761566,0.13973021507263184
1772555317030444800,0.32544482421875,-0.02945132553577423,-0.3524303436279297,0.11066873371601105
1772555317040377900,0.3353779296875,-0.0393880270421505,-0.32821616530418396,0.08684886991977692
1772555317050310000,0.345309814453125,-0.06780848652124405,-0.33013391494750977,0.09146013110876083
1772555317060242000,0.355241943359375,-0.09952709078788757,-0.32085996866226196,0.10532299429178238
1772555317070173700,0.365173583984375,-0.11187270283699036,-0.24968646466732025,0.10756910592317581
1772555317080106800,0.375106689453125,-0.08732504397630692,-0.10015545785427094,0.08282125741243362
1772555317090038800,0.385038818359375,-0.032153934240341187,0.08748207986354828,0.029029130935668945
1772555317099970800,0.394970703125,0.033923737704753876,0.27632850408554077,-0.03739120066165924
1772555317109902800,0.40490283203125,0.09110740572214127,0.4010866582393646,-0.09457167237997055
1772555317119836000,0.4148359375,0.1152099221944809,0.4330824613571167,-0.14013740420341492
1772555317129768000,0.424767822265625,0.12714700400829315,0.40048909187316895,-0.18038628995418549
1772555317139700000,0.434699951171875,0.12998175621032715,0.33759886026382446,-0.21188367903232574
1772555317149631700,0.4446318359375,0.12540538609027863,0.26625704765319824,-0.25337815284729004
1772555317159564800,0.454564697265625,0.1098712831735611,0.2039077877998352,-0.30580365657806396
1772555317169496800,0.464496826171875,0.099323570728302,0.1666480302810669,-0.3532995283603668
1772555317179428900,0.474428955078125,0.0873587355017662,0.14980648458003998,-0.3803586959838867
1772555317189361000,0.48436083984375,0.0806097537279129,0.12545187771320343,-0.3764137327671051
1772555317199294000,0.4942939453125,0.06464383751153946,0.10447195172309875,-0.34129610657691956
1772555317209226000,0.50422607421875,0.04995410889387131,0.09861832112073898,-0.2850314974784851
1772555317219158000,0.514157958984375,0.028451062738895416,0.10987332463264465,-0.21841919422149658
1772555317229089800,0.52408984375,0.008368697948753834,0.12210442125797272,-0.13400791585445404
1772555317239022800,0.53402294921875,-0.00858430564403534,0.12244731187820435,-0.0469847097992897
1772555317248955000,0.543954833984375,-0.022034600377082825,0.108343206346035,0.015605169348418713
1772555317258887000,0.553886962890625,-0.025497213006019592,0.08040974289178848,0.046147529035806656
1772555317268819000,0.56381884765625,-0.008405045606195927,0.06368748843669891,0.03263198584318161
1772555317278751000,0.5737509765625,0.02093840017914772,0.06685853004455566,-0.024181673303246498
1772555317288683800,0.583683837890625,0.04607571288943291,0.07235822826623917,-0.10068736225366592
1772555317298616000,0.593615966796875,0.06524215638637543,0.08242286741733551,-0.1826089471578598
1772555317308548000,0.603548095703125,0.08264751732349396,0.11086250096559525,-0.2558099329471588
1772555317318480100,0.613480224609375,0.10449404269456863,0.16585026681423187,-0.3089538812637329
1772555317328413200,0.6234130859375,0.12073799222707748,0.24352294206619263,-0.3348243534564972
1772555317338345000,0.633344970703125,0.1283668577671051,0.31971094012260437,-0.3353756368160248
1772555317348277000,0.643277099609375,0.1278451532125473,0.3653615117073059,-0.3111829459667206
1772555317358209000,0.653208984375,0.13515064120292664,0.37160807847976685,-0.2838864326477051
1772555317368142000,0.66314208984375,0.13155536353588104,0.3314356207847595,-0.2551437318325043
1772555317378074000,0.67307421875,0.11824986338615417,0.24513903260231018,-0.23319858312606812
1772555317388006100,0.683006103515625,0.092055544257164,0.13319118320941925,-0.220521941781044
1772555317397938200,0.692938232421875,0.07213202118873596,0.03186861425638199,-0.21259640157222748
1772555317407871200,0.702871337890625,0.05433624982833862,-0.06251700967550278,-0.20145852863788605
1772555317417803000,0.712802978515625,0.041066575795412064,-0.1163649931550026,-0.1881679743528366
1772555317427735000,0.722735107421875,0.030614733695983887,-0.1324148029088974,-0.1735549420118332
1772555317437667000,0.7326669921875,0.014702907763421535,-0.1296994537115097,-0.15427067875862122
1772555317447600000,0.74260009765625,-0.0035048583522439003,-0.1204225942492485,-0.1311592310667038
1772555317457532200,0.7525322265625,-0.024946175515651703,-0.10157826542854309,-0.10716970264911652
1772555317467464200,0.762464111328125,-0.04266711696982384,-0.07254768162965775,-0.09363098442554474
1772555317477396200,0.772396240234375,-0.056389618664979935,-0.036581236869096756,-0.09159581363201141
1772555317487329300,0.782329345703125,-0.059812311083078384,-0.001686902716755867,-0.09417827427387238
1772555317497261000,0.792260986328125,-0.07740367949008942,0.027563342824578285,-0.1018979474902153
1772555317507193000,0.802193115234375,-0.07400042563676834,0.052411697804927826,-0.10959528386592865
1772555317517125000,0.812125,0.03471330553293228,-0.06987559795379639,-0.10569734871387482
1772555317527058200,0.82205810546875,0.19069279730319977,-0.12597215175628662,-0.10527550429105759
1772555317536990200,0.831990234375,0.2442389875650406,0.01553271897137165,-0.12230531126260757
1772555317546922200,0.841922119140625,0.24523741006851196,-0.017281418666243553,-0.11884347349405289
1772555317556854300,0.851854248046875,0.22594936192035675,-0.13932155072689056,-0.12155932188034058
1772555317566787300,0.861787353515625,0.15719212591648102,-0.1366964727640152,-0.18367569148540497
1772555317576719000,0.871718994140625,0.13045956194400787,-0.11959177255630493,-0.27862247824668884
1772555317586651100,0.881651123046875,0.1277439296245575,-0.1877971887588501,-0.36717337369918823
1772555317596583200,0.891583251953125,0.06585080921649933,-0.09122246503829956,-0.3676379323005676
1772555317606515200,0.90151513671875,0.0255353432148695,0.058895133435726166,-0.2928379774093628
1772555317616448300,0.9114482421875,0.013089800253510475,0.19957441091537476,-0.17980924248695374
1772555317626380300,0.92138037109375,-0.0005064355209469795,0.31843236088752747,-0.04956493899226189
1772555317636312300,0.931312255859375,-0.006785081699490547,0.37196996808052063,0.05401517078280449
1772555317646244000,0.941244140625,-0.023539559915661812,0.3650294840335846,0.12008499354124069
1772555317656177200,0.95117724609375,-0.048532675951719284,0.32714536786079407,0.13255643844604492
1772555317666109200,0.961109130859375,-0.08003333956003189,0.27113643288612366,0.09988157451152802
1772555317676041200,0.971041259765625,-0.11272284388542175,0.20460659265518188,0.033732764422893524
1772555317685973200,0.98097314453125,-0.15534141659736633,0.12733151018619537,-0.05124310776591301
1772555317695906000,0.990906005859375,-0.1954868882894516,0.0499577634036541,-0.1404252052307129
1772555317705838000,1.000838134765625,-0.22767038643360138,-0.014822030439972878,-0.20600475370883942
1772555317715770400,1.010770263671875,-0.2486947625875473,-0.061520978808403015,-0.23464111983776093
1772555317725702100,1.0207021484375,-0.2503472566604614,-0.07792791724205017,-0.2200387418270111
1772555317735635000,1.030635009765625,-0.23676477372646332,-0.09670890867710114,-0.1668577492237091
1772555317745567000,1.04056689453125,-0.2209961861371994,-0.13232629001140594,-0.10481008887290955
1772555317755499000,1.0504990234375,-0.20879122614860535,-0.18441149592399597,-0.05570954829454422
1772555317765431000,1.06043115234375,-0.19757585227489471,-0.23246878385543823,-0.022278886288404465
1772555317775364000,1.070364013671875,-0.18820872902870178,-0.2437322586774826,0.008924187161028385
1772555317785296100,1.080296142578125,-0.18865934014320374,-0.2055121809244156,0.07631467282772064
1772555317795228200,1.090228271484375,-0.17335766553878784,-0.06612993776798248,0.2706373333930969
1772555317805160000,1.100159912109375,-0.16610029339790344,0.038141340017318726,0.40309152007102966
1772555317815093000,1.110093017578125,-0.1654331386089325,0.06202687323093414,0.4144569933414459
1772555317825025000,1.12002490234375,-0.1639913022518158,0.04250083863735199,0.3775450587272644
1772555317834957000,1.12995703125,-0.1750165969133377,0.029813110828399658,0.3360463082790375
1772555317844889000,1.13988916015625,-0.19129356741905212,0.007850820198655128,0.29671141505241394
1772555317854822100,1.149822265625,-0.21076343953609467,-0.028387408703565598,0.26953521370887756
1772555317864754200,1.159754150390625,-0.22070129215717316,-0.07875844091176987,0.26012682914733887
1772555317874686200,1.169686279296875,-0.22082696855068207,-0.14145183563232422,0.26336726546287537
1772555317884618000,1.179617919921875,-0.21462367475032806,-0.21487519145011902,0.28244322538375854
1772555317894550000,1.189550048828125,-0.20082372426986694,-0.2824714183807373,0.3101447522640228
1772555317904483000,1.199483154296875,-0.18572254478931427,-0.322614848613739,0.3400309979915619
1772555317914415000,1.2094150390625,-0.16966067254543304,-0.3404211401939392,0.37874889373779297
1772555317924347100,1.21934716796875,-0.1526840776205063,-0.33433395624160767,0.4247145354747772
1772555317934279200,1.229279052734375,-0.13986562192440033,-0.30069029331207275,0.4724399447441101
1772555317944212200,1.239212158203125,-0.13274353742599487,-0.2612273097038269,0.5014529824256897
1772555317954144300,1.249144287109375,-0.13964074850082397,-0.15263934433460236,0.49857524037361145
1772555317964076000,1.259075927734375,-0.14119043946266174,-0.1226300373673439,0.4703183174133301
1772555317974008000,1.269008056640625,-0.13167080283164978,-0.16616922616958618,0.43010932207107544
1772555317983941000,1.278941162109375,-0.13357309997081757,-0.18226110935211182,0.3790823519229889
1772555317993873200,1.288873046875,-0.13701358437538147,-0.1882011443376541,0.3368924856185913
1772555318003805200,1.29880517578125,-0.13490648567676544,-0.1980295330286026,0.32006052136421204
1772555318013737200,1.3087373046875,-0.12499894946813583,-0.16392244398593903,0.3084455728530884
1772555318023670300,1.318670166015625,-0.11488639563322067,-0.11061074584722519,0.2798570692539215
1772555318033602300,1.328602294921875,-0.0938936173915863,-0.05634978413581848,0.22484908998012543
1772555318043534000,1.3385341796875,-0.08919420093297958,0.0005190931260585785,0.1300535947084427
1772555318053466000,1.348466064453125,-0.10164299607276917,0.04083078354597092,-0.002171957865357399
1772555318063399200,1.358399169921875,-0.12604394555091858,0.058383941650390625,-0.1321834921836853
1772555318073331200,1.368331298828125,-0.14702151715755463,0.07545129209756851,-0.23176969587802887
1772555318083263200,1.37826318359375,-0.15706881880760193,0.1030815839767456,-0.2857445180416107
1772555318093195300,1.3881953125,-0.1745578646659851,0.11249472945928574,-0.29300379753112793
1772555318103128300,1.39812841796875,-0.19462265074253082,0.11055994778871536,-0.24006763100624084
1772555318113060400,1.408060302734375,-0.22024764120578766,0.1008567363023758,-0.13891606032848358
1772555318122992000,1.4179921875,-0.24661026895046234,0.09755680710077286,-0.015568030066788197
1772555318132924200,1.427924072265625,-0.2697821259498596,0.10174514353275299,0.09916795790195465
1772555318142857000,1.43785693359375,-0.2752237617969513,0.10791275650262833,0.19017936289310455
1772555318152789000,1.4477890625,-0.27815189957618713,0.10536358505487442,0.24300183355808258
1772555318162721300,1.45772119140625,-0.27638810873031616,0.08652064949274063,0.2620173394680023
1772555318172653300,1.4676533203125,-0.2653120160102844,0.06353969871997833,0.2531372904777527
1772555318182586000,1.477586181640625,-0.25522369146347046,0.0577545166015625,0.21863417327404022
1772555318192518100,1.48751806640625,-0.23544128239154816,0.0670890212059021,0.16784797608852386
1772555318202450000,1.497449951171875,-0.22052864730358124,0.08441128581762314,0.08686870336532593
1772555318212382000,1.5073818359375,-0.22841674089431763,0.09940961003303528,-0.003117036074399948
1772555318222314200,1.517314208984375,-0.2548859119415283,0.13331778347492218,-0.08908786624670029
1772555318232247000,1.5272470703125,-0.29070407152175903,0.1648344248533249,-0.14405925571918488
1772555318242179000,1.537178955078125,-0.32495126128196716,0.18154549598693848,-0.15576064586639404
1772555318252111000,1.547111083984375,-0.3443593680858612,0.1799100637435913,-0.12196841090917587
1772555318262043100,1.557043212890625,-0.3570570647716522,0.16194544732570648,-0.05971222370862961
1772555318271976200,1.56697607421875,-0.35394296050071716,0.12855985760688782,0.01809186115860939
1772555318281908000,1.576907958984375,-0.3513762056827545,0.07355146110057831,0.10397987067699432
1772555318291840000,1.586840087890625,-0.35248294472694397,0.023505322635173798,0.18151184916496277
1772555318301772000,1.59677197265625,-0.35541802644729614,-0.008332768455147743,0.22654378414154053
1772555318311705000,1.606705078125,-0.36936378479003906,-0.024553591385483742,0.24113602936267853
1772555318321636900,1.616636962890625,-0.3879401385784149,-0.020429952070116997,0.22868123650550842
1772555318331569000,1.62656884765625,-0.40078532695770264,-0.0058220019564032555,0.17992308735847473
1772555318341501000,1.6365009765625,-0.4111087918281555,0.005228251218795776,0.09544149786233902
1772555318351434000,1.64643408203125,-0.40419527888298035,0.01626591943204403,-0.009933453984558582
1772555318361366000,1.656365966796875,-0.39788517355918884,0.021971741691231728,-0.12762999534606934
1772555318371298000,1.666298095703125,-0.3856355547904968,0.0070009995251894,-0.24626997113227844
1772555318381230000,1.67622998046875,-0.3691346049308777,-0.012122094631195068,-0.3612056076526642
1772555318391163100,1.6861630859375,-0.34930771589279175,-0.03397278115153313,-0.4545740783214569
1772555318401095000,1.696094970703125,-0.33277666568756104,-0.042502619326114655,-0.521937370300293
1772555318411027000,1.70602685546875,-0.3086206614971161,-0.03627884015440941,-0.5587761402130127
1772555318420959000,1.715958984375,-0.2805466651916504,-0.02544509992003441,-0.559497594833374
1772555318430891000,1.72589111328125,-0.24943657219409943,-0.009884553030133247,-0.5165205001831055
1772555318440824000,1.735823974609375,-0.2184344381093979,-0.013407649472355843,-0.431342214345932
1772555318450756000,1.745756103515625,-0.17421437799930573,-0.03779337927699089,-0.30982890725135803
1772555318460688100,1.755688232421875,-0.1287560760974884,-0.0805421769618988,-0.17928023636341095
1772555318470621200,1.76562109375,-0.08766376972198486,-0.12870340049266815,-0.0588543638586998
1772555318480553000,1.775552978515625,-0.061496078968048096,-0.16705238819122314,0.044475480914115906
1772555318490485000,1.785485107421875,-0.06044244393706322,-0.19866600632667542,0.11955153942108154
1772555318500417000,1.7954169921875,-0.0427209697663784,-0.16618449985980988,0.15353214740753174
1772555318510349000,1.80534912109375,-0.03646044433116913,-0.1293615698814392,0.15526852011680603
1772555318520282000,1.8152822265625,-0.03712037578225136,-0.10272596776485443,0.1399867683649063
1772555318530214100,1.825214111328125,-0.04024236649274826,-0.07058766484260559,0.10740699619054794
1772555318540146200,1.835146240234375,-0.042748402804136276,-0.027463361620903015,0.057159267365932465
1772555318550078000,1.845077880859375,-0.04220195114612579,0.023678306490182877,-0.018132567405700684
1772555318560011000,1.855010986328125,-0.031381264328956604,0.09169011563062668,-0.08414966613054276
1772555318569943000,1.864943115234375,-0.01901768520474434,0.13500308990478516,-0.13358448445796967
1772555318579875000,1.874875,0.0076741124503314495,0.1568833589553833,-0.15788103640079498
1772555318589807000,1.88480712890625,0.0346841923892498,0.15686117112636566,-0.15658418834209442
1772555318599740000,1.894739990234375,0.06131153926253319,0.13637453317642212,-0.14574111998081207
1772555318609672200,1.904672119140625,0.08699116110801697,0.11037192493677139,-0.1375892460346222
1772555318619604200,1.914604248046875,0.10765249282121658,0.084295853972435,-0.1310271918773651
1772555318629536000,1.924535888671875,0.12985612452030182,0.06801123172044754,-0.12854401767253876
1772555318639468800,1.93446875,0.15365973114967346,0.05495774745941162,-0.12557591497898102
1772555318649400800,1.94440087890625,0.18027807772159576,0.029224487021565437,-0.1280299723148346
1772555318659332900,1.954332763671875,0.2072359323501587,0.005651518702507019,-0.10987573862075806
1772555318669265200,1.96426513671875,0.23463672399520874,-0.02301858365535736,-0.0770677775144577
1772555318679198000,1.974197998046875,0.26533737778663635,-0.039945103228092194,-0.03475707769393921
1772555318689130000,1.9841298828125,0.29029932618141174,-0.0435369573533535,0.01401218306273222
1772555318699062000,1.99406201171875,0.3027551770210266,-0.02861446514725685,0.056554585695266724
1772555318708993800,2.003993896484375,0.31861838698387146,0.009665435180068016,0.09580391645431519
1772555318718926000,2.013926025390625,0.331770122051239,0.0497441440820694,0.12417377531528473
1772555318728859000,2.02385888671875,0.35005348920822144,0.07476313412189484,0.1451546847820282
1772555318738791000,2.033791015625,0.3701939284801483,0.09311177581548691,0.1498761922121048
1772555318748723000,2.043722900390625,0.3871561884880066,0.09442656487226486,0.1452917456626892
1772555318758655000,2.053655029296875,0.4055301249027252,0.07838740944862366,0.14078834652900696
1772555318768588000,2.063588134765625,0.4240640699863434,0.06561598181724548,0.12902067601680756
1772555318778520000,2.07352001953125,0.4377942383289337,0.058835841715335846,0.11680448800325394
1772555318788451800,2.083451904296875,0.44868502020835876,0.04098697006702423,0.10236232727766037
1772555318798383900,2.0933837890625,0.45870622992515564,0.04527279734611511,0.09533557295799255
1772555318808317000,2.10331689453125,0.47116807103157043,0.0569785051047802,0.09386654198169708
1772555318818249000,2.1132490234375,0.4758951961994171,0.04996906593441963,0.11451589316129684
1772555318828181000,2.123180908203125,0.4821721613407135,0.02464091032743454,0.14796143770217896
1772555318838113000,2.133113037109375,0.48767533898353577,-0.0002090446650981903,0.18732349574565887
1772555318848046000,2.143046142578125,0.4948919117450714,-0.026543069630861282,0.21838214993476868
1772555318857978000,2.15297802734375,0.506838858127594,-0.047316260635852814,0.24171915650367737
1772555318867910000,2.162909912109375,0.5154963731765747,-0.05347522348165512,0.2504528760910034
1772555318877842000,2.172842041015625,0.5172631144523621,-0.045023947954177856,0.23511333763599396
1772555318887775000,2.18277490234375,0.5146167874336243,-0.022533642128109932,0.18385745584964752
1772555318897707000,2.19270703125,0.4823291301727295,-0.02047928050160408,0.08747287094593048
1772555318907639000,2.20263916015625,0.42866039276123047,-0.0405854657292366,-0.02908758446574211
1772555318917571000,2.212571044921875,0.3688631057739258,-0.06245827674865723,-0.12991459667682648
1772555318927504100,2.222504150390625,0.3096085786819458,-0.08095365762710571,-0.1757204383611679
1772555318937436200,2.232436279296875,0.2542608976364136,-0.09252803027629852,-0.14965501427650452
1772555318947368000,2.242367919921875,0.202513188123703,-0.0887858122587204,-0.038393571972846985
1772555318957300000,2.252300048828125,0.16932301223278046,-0.06879772245883942,0.12858955562114716
1772555318967233000,2.26223291015625,0.14273494482040405,-0.02413397654891014,0.315939337015152
1772555318977165000,2.2721650390625,0.121464803814888,0.04091266542673111,0.482893705368042
1772555318987097000,2.28209716796875,0.09397390484809875,0.11335992813110352,0.6028121113777161
1772555318997029000,2.292029052734375,0.06753990054130554,0.16728441417217255,0.6538342833518982
1772555319006961200,2.301961181640625,0.053963080048561096,0.19862540066242218,0.6437659859657288
1772555319016894200,2.311894287109375,0.04201693832874298,0.2004065215587616,0.5861567854881287
1772555319026826000,2.321825927734375,0.03522120416164398,0.17857086658477783,0.49997463822364807
1772555319036758000,2.331758056640625,0.03822072222828865,0.1338510662317276,0.3976559638977051
1772555319046690000,2.34168994140625,0.04897079989314079,0.09352254867553711,0.2916069030761719
1772555319056623000,2.351623046875,0.0529671385884285,0.07074293494224548,0.17795436084270477
1772555319066555100,2.36155517578125,0.05820684880018234,0.06367422640323639,0.0648888647556305
1772555319076487200,2.371487060546875,0.05355191230773926,0.0676330029964447,-0.04723820835351944
1772555319086419200,2.381419189453125,0.03815843164920807,0.07275724411010742,-0.1467893272638321
1772555319096352000,2.39135205078125,0.022615958005189896,0.08577743917703629,-0.23385950922966003
1772555319106283800,2.40128369140625,0.00913327932357788,0.08044326305389404,-0.30764371156692505
1772555319116216000,2.411216064453125,-0.00967476237565279,0.06399185210466385,-0.35889625549316406
1772555319126148000,2.421148193359375,-0.01787971705198288,0.050542548298835754,-0.37419894337654114
1772555319136081000,2.431080810546875,-0.017205670475959778,0.039199348539114,-0.35775235295295715
1772555319146013000,2.441012939453125,-0.012722212821245193,0.033016543835401535,-0.3029944896697998
1772555319155945000,2.450945068359375,-0.001845063641667366,0.02533678337931633,-0.22096674144268036
1772555319165877000,2.460876953125,0.026398824527859688,0.012862272560596466,-0.11095822602510452
1772555319175810000,2.47081005859375,0.06548337638378143,0.011325094848871231,-0.00434123445302248
1772555319185741800,2.480741943359375,0.09765860438346863,0.03003576770424843,0.08001831918954849
1772555319195673900,2.490673828125,0.12202678620815277,0.05813344940543175,0.11483568698167801
1772555319205606000,2.50060595703125,0.13305941224098206,0.0906151533126831,0.09542890638113022
1772555319215538000,2.510537841796875,0.14401139318943024,0.12236909568309784,0.03069198876619339
1772555319225471000,2.520470947265625,0.14063991606235504,0.13004261255264282,-0.060850996524095535
1772555319235403000,2.530403076171875,0.13467815518379211,0.09673897922039032,-0.15491198003292084
1772555319245335000,2.5403349609375,0.11888041347265244,0.04279074817895889,-0.23553040623664856
1772555319255268000,2.55026806640625,0.10348467528820038,-0.020420977845788002,-0.30399706959724426
1772555319265199900,2.560199951171875,0.08311836421489716,-0.07141382992267609,-0.3410545289516449
1772555319275132000,2.5701318359375,0.07184972614049911,-0.11735176295042038,-0.3481936752796173
1772555319285064000,2.58006396484375,0.060361795127391815,-0.1563301831483841,-0.3269430696964264
1772555319294995700,2.58999560546875,0.05183062702417374,-0.1795034110546112,-0.2913685739040375
1772555319304928800,2.5999287109375,0.04242860525846481,-0.18657056987285614,-0.23890121281147003
1772555319314860800,2.60986083984375,0.03132055699825287,-0.17634989321231842,-0.18267762660980225
1772555319324792800,2.619792724609375,0.018928930163383484,-0.1535162329673767,-0.12268520891666412
1772555319334724900,2.629724853515625,0.0013230391778051853,-0.1267320215702057,-0.07051815092563629
1772555319344658000,2.639657958984375,-0.011927731335163116,-0.09924235939979553,-0.026145808398723602
1772555319354590000,2.64958984375,-0.027326662093400955,-0.06982801109552383,0.009228957816958427
1772555319364522000,2.65952197265625,-0.04386456310749054,-0.04154730215668678,0.030308466404676437
1772555319374453800,2.669453857421875,-0.05860942229628563,-0.02413315698504448,0.037952274084091187
1772555319384386800,2.67938671875,-0.075177863240242,-0.015766529366374016,0.0289009939879179
1772555319394318800,2.68931884765625,-0.08752480894327164,-0.013388860039412975,0.0013085147365927696
1772555319404251000,2.6992509765625,-0.09997668862342834,-0.0064827511087059975,-0.045566849410533905
1772555319414183000,2.709182861328125,-0.11534925550222397,-0.012425861321389675,-0.09267629683017731
1772555319424116000,2.719115966796875,-0.134361132979393,-0.02933911234140396,-0.1361647993326187
1772555319434048000,2.729048095703125,-0.14816376566886902,-0.048564206808805466,-0.1689951866865158
1772555319443980000,2.73897998046875,-0.15807300806045532,-0.06311114132404327,-0.1862374097108841
1772555319453911800,2.748911865234375,-0.16621749103069305,-0.07592733949422836,-0.20237857103347778
1772555319463844900,2.758844970703125,-0.17892375588417053,-0.08666713535785675,-0.21675889194011688
1772555319473777000,2.76877685546875,-0.18641948699951172,-0.09637436270713806,-0.2270091325044632
1772555319483709000,2.778708984375,-0.1965562254190445,-0.11795734614133835,-0.2360297441482544
1772555319493641000,2.788640869140625,-0.20178480446338654,-0.12957511842250824,-0.25047603249549866
1772555319503573000,2.798572998046875,-0.20668147504329681,-0.1339186728000641,-0.2550757825374603
1772555319513506000,2.808506103515625,-0.21089673042297363,-0.15148968994617462,-0.2486008256673813
1772555319523438000,2.81843798828125,-0.21498849987983704,-0.17163708806037903,-0.2334747016429901
1772555319533369900,2.828369873046875,-0.21032662689685822,-0.18221941590309143,-0.20999175310134888
1772555319543302000,2.838302001953125,-0.21017228066921234,-0.1820489466190338,-0.175580233335495
1772555319553234700,2.848234619140625,-0.20706143975257874,-0.1895609200000763,-0.13696040213108063
1772555319563167000,2.8581669921875,-0.20408722758293152,-0.18162807822227478,-0.09191767871379852
1772555319573099000,2.86809912109375,-0.20142512023448944,-0.16870081424713135,-0.053600385785102844
1772555319583031000,2.878031005859375,-0.20528170466423035,-0.15255531668663025,-0.021309226751327515
1772555319592963800,2.8879638671875,-0.2090039998292923,-0.12490583211183548,-0.0032956069335341454
1772555319602896000,2.897895751953125,-0.21370209753513336,-0.08809420466423035,0.01813686080276966
1772555319612828000,2.907827880859375,-0.2132352590560913,-0.04559867084026337,0.04773043841123581
1772555319622760000,2.917760009765625,-0.20871642231941223,-0.009946122765541077,0.08741123229265213
1772555319632692700,2.927692626953125,-0.2041216790676117,0.011919228360056877,0.11966291069984436
1772555319642624800,2.937624755859375,-0.1998453140258789,0.012992354109883308,0.14505013823509216
1772555319652556800,2.947556884765625,-0.19864130020141602,0.0020129401236772537,0.15817739069461823
1772555319662488800,2.95748876953125,-0.19710366427898407,-0.013179833069443703,0.15993380546569824
1772555319672422000,2.967421875,-0.19230279326438904,-0.01840388961136341,0.15961527824401855
1772555319682354000,2.97735400390625,-0.19065040349960327,-0.008826244622468948,0.15988659858703613
1772555319692285700,2.98728564453125,-0.18675099313259125,0.011693410575389862,0.16339051723480225
1772555319702217700,2.9972177734375,-0.18569202721118927,0.03930157423019409,0.16414101421833038
1772555319712150800,3.00715087890625,-0.19088253378868103,0.0680602490901947,0.17074459791183472
1772555319722082800,3.017082763671875,-0.20316563546657562,0.09879519045352936,0.1784961223602295
1772555319732014800,3.027014892578125,-0.22253267467021942,0.1290132850408554,0.1768612116575241
1772555319741947000,3.03694677734375,-0.25102439522743225,0.15146848559379578,0.1659291535615921
1772555319751880000,3.0468798828125,-0.28008562326431274,0.17787215113639832,0.148528054356575
1772555319761812000,3.05681201171875,-0.30876752734184265,0.20219022035598755,0.14746859669685364
1772555319771743700,3.06674365234375,-0.33141371607780457,0.21207721531391144,0.170006662607193
1772555319781675800,3.07667578125,-0.3412584960460663,0.21455888450145721,0.21925190091133118
1772555319791608800,3.08660888671875,-0.35010257363319397,0.19572395086288452,0.281613290309906
1772555319801540900,3.096540771484375,-0.3657481372356415,0.17226123809814453,0.3455870747566223
1772555319811473000,3.106472900390625,-0.3748662769794464,0.17561817169189453,0.37711596488952637
1772555319821405000,3.116405029296875,-0.407457560300827,0.18875856697559357,0.3627316653728485
1772555319831337000,3.1263369140625,-0.4251231253147125,0.22455304861068726,0.29736971855163574
1772555319841270000,3.13627001953125,-0.4361321032047272,0.27876177430152893,0.20219790935516357
1772555319851201800,3.146201904296875,-0.43631425499916077,0.331770122051239,0.11340837925672531
1772555319861133800,3.1561337890625,-0.42224031686782837,0.3762023448944092,0.05224178358912468
1772555319871065900,3.16606591796875,-0.3882059156894684,0.3907328248023987,0.03390698879957199
1772555319880999000,3.1759990234375,-0.3458854854106903,0.3724868893623352,0.07832588255405426
1772555319890931000,3.185930908203125,-0.3043942451477051,0.31112954020500183,0.167613685131073
1772555319900863000,3.195863037109375,-0.275554895401001,0.23098191618919373,0.26556718349456787
1772555319910795000,3.205794921875,-0.2483866661787033,0.16123425960540771,0.3522607982158661
1772555319920728000,3.21572802734375,-0.23388296365737915,0.09589932858943939,0.4287514388561249
1772555319930659800,3.225659912109375,-0.23234179615974426,0.037799544632434845,0.47483929991722107
1772555319940591900,3.235591796875,-0.24646347761154175,-0.016147669404745102,0.49096423387527466
1772555319950524000,3.24552392578125,-0.27731087803840637,-0.0548282191157341,0.4691675901412964
1772555319960457000,3.25545703125,-0.32093575596809387,-0.07480248808860779,0.40948131680488586
1772555319970389000,3.265388916015625,-0.3669101893901825,-0.07096833735704422,0.3317372500896454
1772555319980321000,3.275321044921875,-0.4194628596305847,-0.029977139085531235,0.25205719470977783
1772555319990253000,3.285253173828125,-0.4683041572570801,0.021713752299547195,0.1774604618549347
1772555320000184800,3.295184814453125,-0.49294447898864746,0.07293324917554855,0.09922654926776886
1772555320010118000,3.305117919921875,-0.507393479347229,0.12479618191719055,0.031453102827072144
1772555320020050000,3.3150498046875,-0.5133041739463806,0.17120924592018127,-0.0015988098457455635
1772555320029982000,3.32498193359375,-0.5054877996444702,0.19013872742652893,-0.01387757994234562
1772555320039914000,3.3349140625,-0.4783036410808563,0.18414732813835144,-0.008945727720856667
1772555320049846800,3.3448466796875,-0.4403005838394165,0.15406107902526855,-0.0004150904715061188
1772555320059778800,3.35477880859375,-0.3961234986782074,0.10692577064037323,-0.010026358999311924
1772555320069710800,3.3647109375,-0.35782137513160706,0.04376011714339256,-0.0445726178586483
1772555320079643000,3.374642822265625,-0.32930538058280945,-0.020490752533078194,-0.10026977956295013
1772555320089575700,3.38457568359375,-0.30926376581192017,-0.08761093020439148,-0.17865140736103058
1772555320099507700,3.3945078125,-0.2855478823184967,-0.15412981808185577,-0.2575908601284027
1772555320109439700,3.404439697265625,-0.24958908557891846,-0.21218620240688324,-0.32808977365493774
1772555320119371800,3.414371826171875,-0.20074833929538727,-0.2335418164730072,-0.3769722282886505
1772555320129304800,3.424304931640625,-0.15123909711837769,-0.2573041319847107,-0.40195560455322266
1772555320139236900,3.43423681640625,-0.09827176481485367,-0.27425462007522583,-0.39173465967178345
1772555320149169000,3.4441689453125,-0.0391186960041523,-0.26106664538383484,-0.3632279336452484
1772555320159100700,3.4541005859375,0.00517189921811223,-0.24202124774456024,-0.3222973644733429
1772555320169033700,3.46403369140625,0.026199420914053917,-0.22519433498382568,-0.276531457901001
1772555320178965800,3.4739658203125,0.04317522794008255,-0.20857444405555725,-0.2325948178768158
1772555320188897800,3.483897705078125,0.05124673619866371,-0.1899549663066864,-0.2002139687538147
1772555320198829800,3.493829833984375,0.06284438073635101,-0.16861429810523987,-0.17656457424163818
1772555320208763000,3.503762939453125,0.07065223902463913,-0.16110044717788696,-0.17062467336654663
1772555320218695000,3.51369482421875,0.0776297003030777,-0.15165536105632782,-0.1885433942079544
1772555320228627000,3.523626953125,0.07448636740446091,-0.13513070344924927,-0.23210126161575317
1772555320238558700,3.533558837890625,0.06768178939819336,-0.12453845143318176,-0.29113495349884033
1772555320248492000,3.543491943359375,0.058507196605205536,-0.13364434242248535,-0.3507697880268097
1772555320258423800,3.553423828125,0.057739000767469406,-0.15279267728328705,-0.4035153388977051
1772555320268355800,3.56335595703125,0.06103333458304405,-0.18357588350772858,-0.44917044043540955
1772555320278288000,3.573287841796875,0.06817246228456497,-0.2112223505973816,-0.4851277768611908
1772555320288221000,3.583220947265625,0.07935774326324463,-0.23435190320014954,-0.5062426328659058
1772555320298153000,3.593153076171875,0.09066493064165115,-0.24493464827537537,-0.5138472318649292
1772555320308085000,3.6030849609375,0.10121744126081467,-0.23907384276390076,-0.5045205950737
1772555320318016800,3.613016845703125,0.11447438597679138,-0.22254271805286407,-0.4821794331073761
1772555320327948800,3.62294873046875,0.1266772598028183,-0.1918678879737854,-0.4368865191936493
1772555320337881900,3.6328818359375,0.13940410315990448,-0.14852933585643768,-0.38488098978996277
1772555320347814000,3.64281396484375,0.15837939083576202,-0.11124454438686371,-0.32140669226646423
1772555320357746000,3.652745849609375,0.18080271780490875,-0.07046881318092346,-0.25556689500808716
1772555320367678000,3.662677978515625,0.20397621393203735,-0.040282417088747025,-0.19096551835536957
1772555320377611000,3.672611083984375,0.22795307636260986,-0.03084830939769745,-0.12563323974609375
1772555320387543000,3.68254296875,0.25899675488471985,-0.042869020253419876,-0.06891829520463943
1772555320397474800,3.692474853515625,0.2825201153755188,-0.05844919756054878,-0.018226824700832367
1772555320407406800,3.70240673828125,0.3111030161380768,-0.06598994135856628,0.025668729096651077
1772555320417340000,3.71233984375,0.3358513116836548,-0.08085013926029205,0.06248568370938301
1772555320427272000,3.72227197265625,0.34922704100608826,-0.09608741104602814,0.08662484586238861
1772555320437204000,3.732203857421875,0.3572293221950531,-0.10601576417684555,0.0973455160856247
1772555320447136000,3.742135986328125,0.35835981369018555,-0.11616427451372147,0.09357794374227524
1772555320457068800,3.75206884765625,0.3558218479156494,-0.12111634761095047,0.09343218803405762
1772555320467001000,3.7620009765625,0.3491961658000946,-0.11457349359989166,0.09198422729969025
1772555320476933000,3.77193310546875,0.33654725551605225,-0.10208344459533691,0.09417682141065598
1772555320486865000,3.781864990234375,0.3240532875061035,-0.08731062710285187,0.10196737200021744
1772555320496797700,3.791797607421875,0.3168340027332306,-0.07144147157669067,0.1226397380232811
1772555320506729700,3.801729736328125,0.30596885085105896,-0.040397536009550095,0.15189909934997559
1772555320516661800,3.811661865234375,0.3036176562309265,0.0011926572769880295,0.1998763233423233
1772555320526594000,3.821593994140625,0.2983557879924774,0.04704776406288147,0.24420569837093353
1772555320536526800,3.83152685546875,0.2942979335784912,0.09558377414941788,0.28526967763900757
1772555320546459000,3.841458984375,0.29464709758758545,0.1423739194869995,0.31077316403388977
1772555320556391000,3.851390869140625,0.3008507788181305,0.19682282209396362,0.307466983795166
1772555320566322700,3.86132275390625,0.30679547786712646,0.2584398686885834,0.2602488696575165
1772555320576255700,3.871255859375,0.3100491762161255,0.31808751821517944,0.17841950058937073
1772555320586187800,3.881187744140625,0.3076491355895996,0.3521791696548462,0.07077053189277649
1772555320596119800,3.891119873046875,0.2934296429157257,0.3244974911212921,-0.025945838540792465
1772555320606051800,3.9010517578125,0.27177894115448,0.261854887008667,-0.06451240926980972
1772555320615983900,3.91098388671875,0.24944838881492615,0.16094113886356354,-0.013071531429886818
1772555320625917000,3.9209169921875,0.2296653687953949,0.05056963115930557,0.11580309271812439
1772555320635849000,3.930848876953125,0.223506361246109,-0.06345373392105103,0.30154603719711304
1772555320645780700,3.94078076171875,0.22824625670909882,-0.1581626683473587,0.4888818562030792
1772555320655712800,3.950712646484375,0.2393035888671875,-0.19952106475830078,0.6250885725021362
1772555320665645800,3.960645751953125,0.24235476553440094,-0.17769086360931396,0.6888563632965088
1772555320675577900,3.970577880859375,0.23864173889160156,-0.12422212958335876,0.6882410645484924
1772555320685510000,3.980510009765625,0.2282266467809677,-0.05434131622314453,0.6220929622650146
1772555320695442000,3.99044189453125,0.2073274850845337,0.019308317452669144,0.5261372327804565
1772555320705375000,4.000375,0.1869601607322693,0.06334741413593292,0.42335760593414307
1772555320715307000,4.01030712890625,0.1712096482515335,0.09076093882322311,0.33026909828186035
1772555320725238800,4.02023876953125,0.16529850661754608,0.11345800012350082,0.23312708735466003
1772555320735170800,4.0301708984375,0.1560535877943039,0.12091228365898132,0.12829726934432983
1772555320745104000,4.040103759765625,0.13731718063354492,0.11219814419746399,0.03367383033037186
1772555320755036000,4.050035888671875,0.11251424252986908,0.0933946743607521,-0.04905521869659424
1772555320764968000,4.059968017578125,0.08442029356956482,0.06566930562257767,-0.11256495118141174
1772555320774900000,4.06989990234375,0.05426310375332832,0.027612585574388504,-0.14998075366020203
1772555320784833000,4.0798330078125,0.026935072615742683,-0.019985824823379517,-0.16216284036636353
1772555320794765000,4.08976513671875,0.0010069217532873154,-0.07775222510099411,-0.16488593816757202
1772555320804696800,4.09969677734375,-0.017547588795423508,-0.13087110221385956,-0.1507253646850586
1772555320814628900,4.10962890625,-0.02474895492196083,-0.17079955339431763,-0.12017295509576797
1772555320824562000,4.11956201171875,-0.026144983246922493,-0.1896137297153473,-0.08235420286655426
1772555320834494000,4.129493896484375,-0.02512381039559841,-0.18511009216308594,-0.03471425920724869
1772555320844426000,4.139426025390625,-0.026165904477238655,-0.16490229964256287,0.0022669294849038124
1772555320854358000,4.14935791015625,-0.036080121994018555,-0.13072165846824646,0.024370457977056503
1772555320864291000,4.159291015625,-0.0612989217042923,-0.10004124790430069,0.019329359754920006
1772555320874223000,4.16922314453125,-0.0794682428240776,-0.05221560597419739,-0.011146066710352898
1772555320884155000,4.17915478515625,-0.09818893671035767,-0.0009907707571983337,-0.05977751314640045
1772555320894087000,4.1890869140625,-0.12093683332204819,0.04192180186510086,-0.12193459272384644
1772555320904019000,4.19901904296875,-0.1465364694595337,0.06746071577072144,-0.18544699251651764
1772555320913952000,4.208951904296875,-0.16922330856323242,0.07854343205690384,-0.24141016602516174
1772555320923884000,4.218884033203125,-0.1864856481552124,0.061916783452034,-0.28786927461624146
1772555320933816000,4.228816162109375,-0.2025330662727356,0.02661312185227871,-0.32105752825737
1772555320943748000,4.238748046875,-0.20976246893405914,-0.019275272265076637,-0.35491588711738586
1772555320953681000,4.248680908203125,-0.21642085909843445,-0.06908989697694778,-0.38001301884651184
1772555320963612700,4.25861279296875,-0.21983449161052704,-0.10115010291337967,-0.40286266803741455
1772555320973545000,4.268544921875,-0.2322833240032196,-0.1040274128317833,-0.4294077157974243
1772555320983477000,4.27847705078125,-0.25392258167266846,-0.10361488908529282,-0.452557235956192
1772555320993409800,4.288409912109375,-0.2782202959060669,-0.1101183071732521,-0.45001041889190674
1772555321003341800,4.298341796875,-0.29426345229148865,-0.1193472221493721,-0.425182580947876
1772555321013273900,4.30827392578125,-0.30368342995643616,-0.1314975917339325,-0.3693205416202545
1772555321023206000,4.318205810546875,-0.3039739727973938,-0.14455054700374603,-0.30150261521339417
1772555321033139000,4.328138916015625,-0.3012719750404358,-0.15179139375686646,-0.21787694096565247
1772555321043070700,4.33807080078125,-0.2967209219932556,-0.15787512063980103,-0.1452386975288391
1772555321053002800,4.348002685546875,-0.2968059480190277,-0.15037252008914948,-0.09410930424928665
1772555321062934800,4.357934814453125,-0.30190911889076233,-0.1355525553226471,-0.06647314876317978
1772555321072867800,4.367867919921875,-0.30527463555336,-0.11648207157850266,-0.0555989071726799
1772555321082799900,4.3777998046875,-0.3093703091144562,-0.09023049473762512,-0.05843304097652435
1772555321092732000,4.38773193359375,-0.3069896101951599,-0.0676020085811615,-0.07334650307893753
1772555321102664000,4.397663818359375,-0.297372430562973,-0.0537429116666317,-0.08966794610023499
1772555321112597000,4.407596923828125,-0.2789705991744995,-0.04169607162475586,-0.10775849223136902
1772555321122528800,4.41752880859375,-0.26669368147850037,-0.02715414948761463,-0.1244644969701767
1772555321132460800,4.427460693359375,-0.24688288569450378,-0.015948917716741562,-0.13373585045337677
1772555321142392800,4.437392822265625,-0.23118647933006287,-0.014145690947771072,-0.13463225960731506
1772555321152326000,4.447325927734375,-0.21779555082321167,-0.023666057735681534,-0.13119636476039886
1772555321162258000,4.4572578125,-0.21065135300159454,-0.03650915250182152,-0.134384423494339
1772555321172190000,4.46718994140625,-0.20864084362983704,-0.05094689130783081,-0.14021533727645874
1772555321182122000,4.4771220703125,-0.2186271697282791,-0.06310155242681503,-0.15238624811172485
1772555321192053800,4.4870537109375,-0.22405269742012024,-0.07829421758651733,-0.1716972291469574
1772555321201986800,4.49698681640625,-0.22879765927791595,-0.08986032754182816,-0.19191622734069824
1772555321211918800,4.5069189453125,-0.24243342876434326,-0.09245820343494415,-0.21058550477027893
1772555321221851000,4.516850830078125,-0.25602009892463684,-0.08674066513776779,-0.22689630091190338
1772555321231783000,4.526782958984375,-0.2657860219478607,-0.07896596938371658,-0.23449920117855072
1772555321241716000,4.536716064453125,-0.27567726373672485,-0.08371944725513458,-0.2250031679868698
1772555321251648000,4.54664794921875,-0.2819616198539734,-0.09166345000267029,-0.18811024725437164
1772555321261580000,4.556580078125,-0.28924110531806946,-0.10711963474750519,-0.14440935850143433
1772555321271511800,4.56651171875,-0.2968085706233978,-0.11985136568546295,-0.09767922759056091
1772555321281444900,4.57644482421875,-0.3072415292263031,-0.1322323977947235,-0.05779838562011719
1772555321291377000,4.586376953125,-0.3223854601383209,-0.15220721065998077,-0.02698659896850586
1772555321301309000,4.596308837890625,-0.3333824574947357,-0.17908117175102234,0.0013065580278635025
1772555321311241000,4.606240966796875,-0.34919220209121704,-0.2095615416765213,0.021157901734113693
1772555321321174000,4.616174072265625,-0.37015315890312195,-0.2318551242351532,0.04785555973649025
1772555321331106000,4.62610595703125,-0.39487653970718384,-0.23337019979953766,0.08105678856372833
1772555321341038000,4.6360380859375,-0.42606934905052185,-0.20774127542972565,0.12877157330513
1772555321350970000,4.64597021484375,-0.46003884077072144,-0.16985183954238892,0.17687995731830597
1772555321360903000,4.65590283203125,-0.49456727504730225,-0.13431142270565033,0.22380699217319489
1772555321370835000,4.6658349609375,-0.5243416428565979,-0.09865216910839081,0.2648319900035858
1772555321380767000,4.67576708984375,-0.5552412271499634,-0.07427065819501877,0.30976271629333496
1772555321390699000,4.685698974609375,-0.5853325724601746,-0.05303981900215149,0.3678976595401764
1772555321400631800,4.6956318359375,-0.6105338335037231,-0.025945883244276047,0.43158236145973206
1772555321410563800,4.705563720703125,-0.6263205409049988,-0.0029864953830838203,0.4945497214794159
1772555321420496000,4.715495849609375,-0.6328455805778503,0.03879477456212044,0.542319655418396
1772555321430428000,4.725427978515625,-0.6412042379379272,0.08388327062129974,0.5610795021057129
1772555321440360200,4.735360107421875,-0.6459140181541443,0.13466842472553253,0.5412477254867554
1772555321450293000,4.74529296875,-0.6506400108337402,0.19104734063148499,0.4644401967525482
1772555321460224800,4.755224853515625,-0.6487970948219299,0.2377714216709137,0.35066065192222595
1772555321470156800,4.76515673828125,-0.6274709701538086,0.25988543033599854,0.24613706767559052
1772555321480088800,4.7750888671875,-0.56198650598526,0.2573048174381256,0.19758950173854828
1772555321490022000,4.78502197265625,-0.4822799265384674,0.17994751036167145,0.23695796728134155
1772555321499954000,4.794953857421875,-0.3950134813785553,0.05194588005542755,0.3352869153022766
1772555321509886000,4.804885986328125,-0.3059252202510834,-0.0794554352760315,0.4578850269317627
1772555321519818000,4.81481787109375,-0.23923833668231964,-0.20014776289463043,0.5747852325439453
1772555321529751000,4.8247509765625,-0.18059666454792023,-0.2471032738685608,0.6425577402114868
1772555321539682800,4.834682861328125,-0.13674107193946838,-0.2046751081943512,0.651199996471405
1772555321549614800,4.84461474609375,-0.12961074709892273,-0.1406596451997757,0.6099119186401367
1772555321559547000,4.854546875,-0.13788439333438873,-0.10796348005533218,0.5570486783981323
1772555321569480000,4.86447998046875,-0.14314591884613037,-0.11777833104133606,0.49505680799484253
1772555321579412000,4.874411865234375,-0.1462136059999466,-0.1522470861673355,0.42641836404800415
1772555321589344000,4.884343994140625,-0.1511213332414627,-0.19829027354717255,0.36150482296943665
1772555321599276000,4.894276123046875,-0.15568892657756805,-0.2383737862110138,0.3019448220729828
1772555321609209000,4.904208984375,-0.1615421324968338,-0.25252825021743774,0.24880343675613403
1772555321619140900,4.914140869140625,-0.16992123425006866,-0.2251986414194107,0.2106105089187622
1772555321629073000,4.924072998046875,-0.17608578503131866,-0.17072835564613342,0.17899973690509796
1772555321639005000,4.9340048828125,-0.18117322027683258,-0.09710978716611862,0.1463368535041809
1772555321648938000,4.94393798828125,-0.18967807292938232,-0.03354392945766449,0.09960898756980896
1772555321658870000,4.9538701171875,-0.1946752369403839,0.029772458598017693,0.04861504212021828
1772555321668802000,4.963802001953125,-0.1997155398130417,0.07148395478725433,0.0015607159584760666
1772555321678734000,4.973734130859375,-0.19916824996471405,0.09033594280481339,-0.044726621359586716
1772555321688667100,4.983667236328125,-0.18011131882667542,0.08782168477773666,-0.09020595252513885
1772555321698599000,4.993598876953125,-0.1569969356060028,0.05951707810163498,-0.14095380902290344
1772555321708531000,5.003531005859375,-0.1333649754524231,-0.0009129354730248451,-0.2010941058397293
1772555321718463000,5.013462890625,-0.11036138236522675,-0.08339475840330124,-0.27724480628967285
1772555321728395000,5.02339501953125,-0.08814142644405365,-0.16794778406620026,-0.3494150936603546
1772555321738328000,5.033328125,-0.06940875202417374,-0.24439196288585663,-0.42060911655426025
1772555321748260000,5.043260009765625,-0.058132242411375046,-0.28583380579948425,-0.474131315946579
1772555321758192000,5.053192138671875,-0.046783447265625,-0.2823522686958313,-0.5067611336708069
1772555321768124000,5.0631240234375,-0.03679389879107475,-0.24476218223571777,-0.5048247575759888
1772555321778057000,5.073056884765625,-0.019345134496688843,-0.1881263554096222,-0.45512405037879944
1772555321787989000,5.082989013671875,0.014206909574568272,-0.1309708058834076,-0.35714656114578247
1772555321797921000,5.092921142578125,0.05099022388458252,-0.09145747870206833,-0.2320203334093094
1772555321807853000,5.10285302734375,0.0824003741145134,-0.07100352644920349,-0.0997147485613823
1772555321817785900,5.112785888671875,0.10485934466123581,-0.06956754624843597,0.011099915951490402
1772555321827718100,5.12271826171875,0.11706709861755371,-0.08088158071041107,0.08144357055425644
1772555321837650200,5.132650146484375,0.11861918866634369,-0.07877981662750244,0.09982550889253616
1772555321847582000,5.14258203125,0.10787653177976608,-0.05704149603843689,0.06416071951389313
1772555321857514800,5.1525146484375,0.08660586178302765,-0.0367727056145668,-0.014509590342640877
1772555321867446800,5.16244677734375,0.06286761909723282,-0.02596404030919075,-0.12518951296806335
1772555321877378800,5.17237890625,0.04034234210848808,-0.03154922276735306,-0.24838201701641083
1772555321887311000,5.18231103515625,0.023929905146360397,-0.06437865644693375,-0.360821396112442
1772555321897244000,5.192243896484375,0.020726121962070465,-0.12763166427612305,-0.4397819936275482
1772555321907176000,5.202176025390625,0.022564560174942017,-0.19000886380672455,-0.47247475385665894
1772555321917108000,5.21210791015625,0.025249559432268143,-0.2393692284822464,-0.46137338876724243
1772555321927039700,5.222039794921875,0.03281497582793236,-0.28523334860801697,-0.4074954390525818
1772555321936971800,5.2319716796875,0.048511650413274765,-0.32136258482933044,-0.33124035596847534
1772555321946904800,5.24190478515625,0.055401336401700974,-0.32156458497047424,-0.2673502564430237
1772555321956836900,5.2518369140625,0.0426381379365921,-0.27858781814575195,-0.2443264126777649
1772555321966769000,5.261768798828125,0.007659762632101774,-0.1796145886182785,-0.2684555649757385
1772555321976701000,5.271700927734375,-0.040879275649785995,-0.06598389148712158,-0.34546753764152527
1772555321986634000,5.281634033203125,-0.08228572458028793,0.04678087681531906,-0.4600432813167572
1772555321996566000,5.29156591796875,-0.11100605130195618,0.13275544345378876,-0.5987279415130615
1772555322006497800,5.301497802734375,-0.12367721647024155,0.18455208837985992,-0.7351699471473694
1772555322016429800,5.311429931640625,-0.11608454585075378,0.19191999733448029,-0.8308002948760986
1772555322026363000,5.32136279296875,-0.09139136224985123,0.15900808572769165,-0.864066481590271
1772555322036295000,5.331294921875,-0.04776958376169205,0.09196487814188004,-0.8337162733078003
1772555322046227000,5.34122705078125,-0.006409897934645414,0.009230755269527435,-0.7456071376800537
1772555322056159000,5.351158935546875,0.03753305971622467,-0.0921587198972702,-0.6289031505584717
1772555322066092000,5.361092041015625,0.07022496312856674,-0.19630545377731323,-0.49844810366630554
1772555322076024000,5.371024169921875,0.08545611053705215,-0.2841956317424774,-0.37828361988067627
1772555322085955800,5.380955810546875,0.08365161716938019,-0.3355794847011566,-0.2606963515281677
1772555322095888000,5.390887939453125,0.062155112624168396,-0.34124481678009033,-0.15405058860778809
1772555322105821000,5.400821044921875,0.026940636336803436,-0.3094114065170288,-0.06165824085474014
1772555322115753000,5.4107529296875,-0.005087071098387241,-0.24140094220638275,0.028064459562301636
1772555322125685000,5.42068505859375,-0.026639264076948166,-0.16132570803165436,0.101688452064991
1772555322135617000,5.430616943359375,-0.03684156760573387,-0.08950744569301605,0.16550923883914948
1772555322145550000,5.440550048828125,-0.02963538095355034,-0.025117607787251472,0.21424557268619537
1772555322155482000,5.450482177734375,-0.00821877084672451,0.022778812795877457,0.2394779473543167
1772555322165414000,5.460413818359375,0.02529483288526535,0.057987891137599945,0.25743910670280457
1772555322175346000,5.470345947265625,0.06467233598232269,0.08374891430139542,0.25266513228416443
1772555322185279000,5.480279052734375,0.10002108663320541,0.09735159575939178,0.2319287806749344
1772555322195211000,5.4902109375,0.13332338631153107,0.09773296117782593,0.19272758066654205
1772555322205143000,5.50014306640625,0.15792742371559143,0.09510482102632523,0.12374342978000641
1772555322215075000,5.510074951171875,0.17163656651973724,0.086698018014431,0.0372314378619194
1772555322225008000,5.520008056640625,0.18668031692504883,0.08210279792547226,-0.052643220871686935
1772555322234940200,5.529940185546875,0.20155008137226105,0.06711612641811371,-0.11859427392482758
1772555322244872000,5.539871826171875,0.21954023838043213,0.03520417958498001,-0.1579163819551468
1772555322254804000,5.549803955078125,0.23134389519691467,0.006752567365765572,-0.17060315608978271
1772555322264736000,5.559736083984375,0.22917789220809937,0.010983996093273163,-0.16126537322998047
1772555322274669000,5.5696689453125,0.21491214632987976,0.03948647528886795,-0.12953859567642212
1772555322284601000,5.57960107421875,0.1897830367088318,0.07820921391248703,-0.06662002950906754
1772555322294533000,5.589533203125,0.16455170512199402,0.10977592319250107,0.018426954746246338
1772555322304464600,5.599464599609375,0.15204907953739166,0.11213590204715729,0.11695656925439835
1772555322314397700,5.609397705078125,0.14542073011398315,0.0728505402803421,0.22723540663719177
1772555322324329700,5.619329833984375,0.14286448061466217,0.012966660782694817,0.33844661712646484
1772555322334261500,5.629261474609375,0.13952860236167908,-0.03340483456850052,0.4527771770954132
1772555322344193500,5.639193603515625,0.13303552567958832,-0.030014442279934883,0.5451369285583496
1772555322354126300,5.649126220703125,0.13259823620319366,0.013012919574975967,0.5982083678245544
1772555322364058400,5.659058349609375,0.14264649152755737,0.06539236009120941,0.5930670499801636
1772555322373990700,5.66899072265625,0.15358489751815796,0.121495321393013,0.5114677548408508
1772555322383922700,5.678922607421875,0.1595391035079956,0.14786410331726074,0.3607737720012665
1772555322393855500,5.68885546875,0.15342102944850922,0.12227165699005127,0.20654530823230743
1772555322403787500,5.69878759765625,0.13360847532749176,0.07024288177490234,0.10289186239242554
1772555322413719300,5.70871923828125,0.1174958348274231,0.010669829323887825,0.0741419717669487
1772555322423651600,5.718651611328125,0.08552224934101105,-0.04069644212722778,0.10211731493473053
1772555322433584400,5.72858447265625,0.050114456564188004,-0.059716738760471344,0.17468419671058655
1772555322443516400,5.738516357421875,0.012928472831845284,-0.038172647356987,0.26539239287376404
1772555322453448400,5.748448486328125,-0.03282143920660019,0.00658629834651947,0.36904609203338623
1772555322463380500,5.75838037109375,-0.06498171389102936,0.04730716720223427,0.47549188137054443
1772555322473313500,5.7683134765625,-0.08550029993057251,0.08070985972881317,0.5746139287948608
1772555322483245600,5.77824560546875,-0.10429064929485321,0.11475176364183426,0.6492862105369568
1772555322493177300,5.78817724609375,-0.11401944607496262,0.14686176180839539,0.6933668255805969
1772555322503109400,5.798109375,-0.11929729580879211,0.17798835039138794,0.7040005326271057
1772555322513041400,5.80804150390625,-0.11609404534101486,0.2112882435321808,0.6632860898971558
1772555322522974500,5.817974365234375,-0.10604079067707062,0.23741763830184937,0.586800754070282
1772555322532906500,5.827906494140625,-0.08616188913583755,0.26359546184539795,0.476547509431839
1772555322542838500,5.837838623046875,-0.06200595572590828,0.2862114906311035,0.33558356761932373
1772555322552770600,5.8477705078125,-0.044706858694553375,0.29018062353134155,0.16761480271816254
1772555322562703600,5.85770361328125,-0.03859091177582741,0.2823861837387085,-0.008887645788490772
1772555322572635400,5.867635498046875,-0.03860529139637947,0.2514367997646332,-0.1807773858308792
1772555322582567400,5.8775673828125,-0.048810914158821106,0.1815544217824936,-0.32069167494773865
1772555322592499500,5.88749951171875,-0.04473148286342621,0.08731367439031601,-0.42567482590675354
1772555322602432500,5.8974326171875,-0.03528888523578644,-0.011851731687784195,-0.48568978905677795
1772555322612364500,5.907364501953125,-0.021090509369969368,-0.10539286583662033,-0.503359317779541
1772555322622296600,5.917296630859375,-0.008373677730560303,-0.1648140251636505,-0.4800725281238556
1772555322632228600,5.927228515625,-0.01121820043772459,-0.1942611187696457,-0.43234655261039734
1772555322642161700,5.93716162109375,-0.0391618050634861,-0.18445435166358948,-0.3804481625556946
1772555322652093400,5.947093505859375,-0.07368409633636475,-0.12868748605251312,-0.3319304287433624
1772555322662025500,5.957025390625,-0.11174791306257248,-0.05057021230459213,-0.29313239455223083
1772555322671957500,5.96695751953125,-0.15453505516052246,0.026267314329743385,-0.24524660408496857
1772555322681890600,5.976890625,-0.18264208734035492,0.07403804361820221,-0.17848999798297882
1772555322691822600,5.986822509765625,-0.19913877546787262,0.08631068468093872,-0.08891430497169495
1772555322701754600,5.996754638671875,-0.20107363164424896,0.07310338318347931,0.018134092912077904
1772555322711686700,6.006686767578125,-0.19177253544330597,0.048928000032901764,0.12707309424877167
1772555322721619700,6.01661962890625,-0.1820669174194336,0.02784828469157219,0.22394318878650665
1772555322731551500,6.026551513671875,-0.17810314893722534,0.024614527821540833,0.2780413329601288
1772555322741483500,6.0364833984375,-0.17639100551605225,0.05029512196779251,0.28908225893974304
1772555322751415600,6.04641552734375,-0.17926456034183502,0.07723033428192139,0.25473758578300476
1772555322761348600,6.0563486328125,-0.17780296504497528,0.10423459112644196,0.16892731189727783
1772555322771280600,6.06628076171875,-0.17599892616271973,0.13779734075069427,0.04575425386428833
1772555322781212700,6.076212646484375,-0.17213791608810425,0.16242004930973053,-0.10004308074712753
1772555322791144700,6.086144775390625,-0.1611901819705963,0.15455520153045654,-0.24748606979846954
1772555322801077500,6.096077392578125,-0.144186869263649,0.11272411048412323,-0.37011855840682983
1772555322811009300,6.10600927734375,-0.11328195035457611,0.058945029973983765,-0.45613306760787964
1772555322820941600,6.115941650390625,-0.08043399453163147,-0.006388701498508453,-0.5106152296066284
1772555322830873600,6.12587353515625,-0.05322607606649399,-0.07199008017778397,-0.5231429934501648
1772555322840805600,6.1358056640625,-0.026917627081274986,-0.12971743941307068,-0.5022833943367004
1772555322850738400,6.145738525390625,-0.012053458951413631,-0.15502572059631348,-0.46800342202186584
1772555322860670500,6.15567041015625,-0.012540637515485287,-0.14912866055965424,-0.4107874035835266
1772555322870602500,6.1656025390625,-0.01776895485818386,-0.11123666167259216,-0.3518007695674896
1772555322880534500,6.175534423828125,-0.03350654989480972,-0.049738798290491104,-0.29761773347854614
1772555322890467300,6.18546728515625,-0.047845542430877686,0.006473341956734657,-0.24880224466323853
1772555322900399400,6.1953994140625,-0.06938261538743973,0.039731014519929886,-0.2137739360332489
1772555322910331400,6.205331298828125,-0.08416156470775604,0.048574041575193405,-0.1915636956691742
1772555322920263400,6.215263427734375,-0.09525910019874573,0.03709018602967262,-0.18615350127220154
1772555322930196500,6.225196533203125,-0.10288532823324203,0.010821031406521797,-0.1772548258304596
1772555322940128500,6.23512841796875,-0.1078115850687027,-0.030527673661708832,-0.16317124664783478
1772555322950060500,6.245060546875,-0.10871413350105286,-0.05573529377579689,-0.12832245230674744
1772555322959992300,6.254992431640625,-0.1028660386800766,-0.06449027359485626,-0.08360396325588226
1772555322969925400,6.26492529296875,-0.1004209890961647,-0.07075242698192596,-0.027834702283143997
1772555322979857400,6.274857421875,-0.09921815991401672,-0.06183071434497833,0.021055229008197784
1772555322989789400,6.28478955078125,-0.09431314468383789,-0.04617132991552353,0.05640123412013054
1772555322999721500,6.294721435546875,-0.09378349781036377,-0.02730671688914299,0.07933324575424194
1772555323009654500,6.304654541015625,-0.09473877400159836,-0.013627391308546066,0.091050885617733
1772555323019586600,6.314586669921875,-0.08822637051343918,-0.011917166411876678,0.07907614856958389
1772555323029518600,6.3245185546875,-0.08935236185789108,-0.015276478603482246,0.04867536574602127
1772555323039450400,6.334450439453125,-0.09645980596542358,-0.03300913795828819,0.008525463752448559
1772555323049382400,6.34438232421875,-0.10583333671092987,-0.043923839926719666,-0.03355008363723755
1772555323059315500,6.3543154296875,-0.11663437634706497,-0.052757877856492996,-0.05799076706171036
1772555323069247500,6.36424755859375,-0.1241583377122879,-0.0703967958688736,-0.06669583916664124
1772555323079179500,6.374179443359375,-0.13373613357543945,-0.0963815227150917,-0.05559392273426056
1772555323089111600,6.384111572265625,-0.13464081287384033,-0.13098131120204926,-0.04126904904842377
1772555323099044600,6.394044677734375,-0.1436256319284439,-0.15937544405460358,-0.01666397601366043
1772555323108976600,6.4039765625,-0.15392674505710602,-0.16169506311416626,0.016666816547513008
1772555323118908400,6.413908447265625,-0.16873346269130707,-0.15938767790794373,0.06206550821661949
1772555323128840400,6.42384033203125,-0.18193981051445007,-0.1439538598060608,0.11841452866792679
1772555323138773500,6.4337734375,-0.18737657368183136,-0.12549595534801483,0.16678854823112488
1772555323148705500,6.44370556640625,-0.19257612526416779,-0.10558083653450012,0.20554393529891968
1772555323158637600,6.453637451171875,-0.18922483921051025,-0.1008254811167717,0.2446088194847107
1772555323168569600,6.463569580078125,-0.17758283019065857,-0.11429202556610107,0.29095980525016785
1772555323178502700,6.473502685546875,-0.1648412048816681,-0.15138313174247742,0.3233660161495209
1772555323188434700,6.4834345703125,-0.15512412786483765,-0.19196251034736633,0.35567787289619446
1772555323198366500,6.493366455078125,-0.14585885405540466,-0.22020971775054932,0.37966880202293396
1772555323208298500,6.503298583984375,-0.13510075211524963,-0.2347409725189209,0.4160324037075043
1772555323218231600,6.5132314453125,-0.1254195123910904,-0.2298513650894165,0.46647077798843384
1772555323228163600,6.52316357421875,-0.11494610458612442,-0.2028927206993103,0.532274067401886
1772555323238095600,6.533095703125,-0.11034061014652252,-0.1729327142238617,0.5967068076133728
1772555323248027600,6.543027587890625,-0.10172661393880844,-0.1225326657295227,0.6461739540100098
1772555323257960400,6.55296044921875,-0.10363154858350754,-0.06469849497079849,0.6473903656005859
1772555323267892500,6.562892578125,-0.11146363615989685,0.0024256817996501923,0.6110256910324097
1772555323277824500,6.572824462890625,-0.11691255867481232,0.06658410280942917,0.5326758623123169
1772555323287756500,6.582756591796875,-0.11946120113134384,0.14268100261688232,0.4327883720397949
1772555323297688600,6.5926884765625,-0.10820996016263962,0.20647946000099182,0.33828866481781006
1772555323307621400,6.602621337890625,-0.08490703999996185,0.22814586758613586,0.26387274265289307
1772555323317553400,6.612553466796875,-0.03956527262926102,0.2414594143629074,0.20876432955265045
1772555323327485400,6.6224853515625,0.03317098319530487,0.2425995022058487,0.1762724220752716
1772555323337417700,6.632417724609375,0.11694799363613129,0.23494181036949158,0.1727268099784851
1772555323347350500,6.6423505859375,0.20187807083129883,0.2274080216884613,0.19070103764533997
1772555323357282600,6.652282470703125,0.25778883695602417,0.2135663777589798,0.22050803899765015
1772555323367214600,6.662214599609375,0.2843024730682373,0.17848029732704163,0.24920307099819183
1772555323377146400,6.672146484375,0.2891904413700104,0.12759961187839508,0.27305299043655396
1772555323387079400,6.682079345703125,0.27753111720085144,0.08462738990783691,0.2818475365638733
1772555323397011500,6.692011474609375,0.24179671704769135,0.04412074387073517,0.27610599994659424
1772555323406943500,6.701943603515625,0.1901170164346695,0.024016009643673897,0.27381381392478943
1772555323416875500,6.71187548828125,0.14125558733940125,0.01598946750164032,0.26890191435813904
1772555323426808600,6.72180859375,0.09561086446046829,0.03405182436108589,0.2670150697231293
1772555323436740600,6.73174072265625,0.05761978030204773,0.05064643546938896,0.26243841648101807
1772555323446672600,6.741672607421875,0.023645833134651184,0.05555437132716179,0.25491949915885925
1772555323456604400,6.7516044921875,-0.0032387198880314827,0.07165121287107468,0.242124542593956
1772555323466537500,6.761537353515625,-0.042880669236183167,0.10479078441858292,0.2230275571346283
1772555323476469500,6.771469482421875,-0.08084148913621902,0.15569297969341278,0.2020971179008484
1772555323486401500,6.781401611328125,-0.12115588784217834,0.22072258591651917,0.18255111575126648
1772555323496333600,6.79133349609375,-0.1547350138425827,0.27765291929244995,0.16731049120426178
1772555323506266600,6.8012666015625,-0.1861581802368164,0.33596470952033997,0.15285566449165344
1772555323516198700,6.81119873046875,-0.20993033051490784,0.3757193088531494,0.14048753678798676
1772555323526130700,6.821130615234375,-0.2265670895576477,0.38957786560058594,0.12634828686714172
1772555323536062500,6.8310625,-0.22920258343219757,0.3548198938369751,0.10451929271221161
1772555323545994500,6.840994384765625,-0.21749453246593475,0.30040058493614197,0.07003748416900635
1772555323555927600,6.850927490234375,-0.20046217739582062,0.20155245065689087,0.023641999810934067
1772555323565859600,6.860859619140625,-0.18223391473293304,0.1017259806394577,-0.0513177290558815
1772555323575791600,6.87079150390625,-0.1674225777387619,0.019475700333714485,-0.13706697523593903
1772555323585723600,6.8807236328125,-0.14488956332206726,-0.05644276738166809,-0.21677857637405396
1772555323595656700,6.89065673828125,-0.11999824643135071,-0.10707277059555054,-0.2821114659309387
1772555323605588700,6.900588623046875,-0.0948428213596344,-0.13187238574028015,-0.31491947174072266
1772555323615520500,6.9105205078125,-0.06696511805057526,-0.1466033160686493,-0.30546215176582336
1772555323625452500,6.92045263671875,-0.038849323987960815,-0.16413597762584686,-0.26419299840927124
1772555323635385600,6.930385498046875,-0.008130975998938084,-0.1847280114889145,-0.2072097361087799
1772555323645317600,6.940317626953125,0.02109615132212639,-0.1981186419725418,-0.15711061656475067
1772555323655249700,6.950249755859375,0.035376377403736115,-0.1973438858985901,-0.12479697167873383
1772555323665181700,6.960181640625,0.04706419259309769,-0.19698461890220642,-0.12339028716087341
1772555323675113700,6.97011376953125,0.05064806714653969,-0.18839435279369354,-0.1492905169725418
1772555323685046800,6.980046875,0.048106878995895386,-0.19153821468353271,-0.1892019808292389
1772555323694978600,6.989978515625,0.04616164788603783,-0.20684239268302917,-0.22805355489253998
1772555323704910600,6.99991064453125,0.04466388374567032,-0.22001492977142334,-0.2636443078517914
1772555323714842600,7.009842529296875,0.03871068358421326,-0.22022300958633423,-0.28837746381759644
1772555323724775700,7.019775634765625,0.023913362994790077,-0.21602560579776764,-0.2925319969654083
1772555323734707700,7.029707763671875,0.00379454018548131,-0.20191405713558197,-0.2773507833480835
1772555323744639700,7.0396396484375,-0.01553281769156456,-0.17834800481796265,-0.2524113655090332
1772555323754571800,7.04957177734375,-0.03413106128573418,-0.1648876667022705,-0.21877460181713104
1772555323764504600,7.059504638671875,-0.04908844083547592,-0.16467435657978058,-0.193449005484581
1772555323774436600,7.0694365234375,-0.05699435994029045,-0.16373273730278015,-0.17877185344696045
1772555323784368600,7.07936865234375,-0.06982067227363586,-0.16262617707252502,-0.16562221944332123
1772555323794300700,7.08930078125,-0.08435271680355072,-0.14670883119106293,-0.156885027885437
1772555323804233500,7.0992333984375,-0.08915732055902481,-0.13614700734615326,-0.1581239253282547
1772555323814165500,7.10916552734375,-0.0950545072555542,-0.122492216527462,-0.16434934735298157
1772555323824097500,7.11909765625,-0.0943535640835762,-0.12101362645626068,-0.17039579153060913
1772555323834029600,7.129029541015625,-0.09281991422176361,-0.10322298109531403,-0.16911061108112335
1772555323843962600,7.138962646484375,-0.08548237383365631,-0.0802747905254364,-0.15785396099090576
1772555323853894700,7.148894775390625,-0.07347911596298218,-0.0607941634953022,-0.13363957405090332
1772555323863826400,7.158826416015625,-0.052110712975263596,-0.04876865819096565,-0.10564123839139938
1772555323873758500,7.168758544921875,-0.0294661782681942,-0.03399590402841568,-0.08153435587882996
1772555323883691500,7.17869140625,-0.008050103671848774,-0.02587592788040638,-0.06786994636058807
1772555323893623600,7.18862353515625,0.010669965296983719,-0.02580718882381916,-0.062445566058158875
1772555323903555600,7.1985556640625,0.027723252773284912,-0.03372609615325928,-0.0743006244301796
1772555323913487600,7.208487548828125,0.04552275314927101,-0.030292576178908348,-0.0856829434633255
1772555323923419400,7.21841943359375,0.052153222262859344,-0.021588034927845,-0.10173781216144562
1772555323933352700,7.228352783203125,0.05651770159602165,-0.00415492057800293,-0.1113111600279808
1772555323943284500,7.238284423828125,0.06431438028812408,0.0055488403886556625,-0.09619718790054321
1772555323953216500,7.248216552734375,0.07464075088500977,0.01167953573167324,-0.07558368146419525
1772555323963148500,7.2581484375,0.08360414952039719,0.011171404272317886,-0.05036115273833275
1772555323973081600,7.26808154296875,0.08880968391895294,0.012433702126145363,-0.031348053365945816
1772555323983013600,7.278013671875,0.08729088306427002,0.018137125298380852,-0.0175803080201149
1772555323992945700,7.287945556640625,0.07808362692594528,0.037564948201179504,-0.019890768453478813
1772555324002877700,7.297877685546875,0.06322691589593887,0.0663561150431633,-0.021147245541214943
1772555324012810800,7.307810791015625,0.047524381428956985,0.0981803610920906,-0.01913142018020153
1772555324022742500,7.317742431640625,0.03792182356119156,0.13482065498828888,-0.015027755871415138
1772555324032674600,7.327674560546875,0.028201967477798462,0.17413188517093658,0.0030505070462822914
1772555324042606600,7.337606689453125,0.02283170446753502,0.20938681066036224,0.01883639395236969
1772555324052539600,7.34753955078125,0.026087332516908646,0.24346011877059937,0.03856141120195389
1772555324062471700,7.3574716796875,0.0331372506916523,0.27037909626960754,0.05974552780389786
1772555324072403700,7.36740380859375,0.04334215819835663,0.27611973881721497,0.07520352303981781
1772555324082335700,7.377335693359375,0.057700060307979584,0.2813624441623688,0.0859171524643898
1772555324092268800,7.387268798828125,0.0765080377459526,0.28412723541259766,0.09657534211874008
1772555324102200600,7.39720068359375,0.0924563780426979,0.2788408696651459,0.09737242013216019
1772555324112132600,7.407132568359375,0.10752250254154205,0.26320260763168335,0.10808108747005463
1772555324122064600,7.417064697265625,0.11866117268800735,0.24368347227573395,0.1190386638045311
1772555324131996700,7.42699658203125,0.1312386840581894,0.22112271189689636,0.1264251470565796
1772555324141929700,7.4369296875,0.1435510218143463,0.20196180045604706,0.13299250602722168
1772555324151861800,7.44686181640625,0.15339311957359314,0.19181840121746063,0.13018204271793365
1772555324161793800,7.456793701171875,0.16586656868457794,0.18333250284194946,0.1252003312110901
1772555324171725600,7.4667255859375,0.17877419292926788,0.1782611906528473,0.12289116531610489
1772555324181658600,7.47665869140625,0.19147028028964996,0.17848250269889832,0.12441209703683853
1772555324191590700,7.486590576171875,0.21341991424560547,0.16650542616844177,0.13595210015773773
1772555324201522700,7.496522705078125,0.23781420290470123,0.14519375562667847,0.143927201628685
1772555324211454700,7.506454833984375,0.2624169588088989,0.11936315149068832,0.15301305055618286
1772555324221387500,7.516387451171875,0.28592362999916077,0.09574171155691147,0.1546836495399475
1772555324231319600,7.526319580078125,0.30240151286125183,0.08320590108633041,0.14605358242988586
1772555324241251600,7.53625146484375,0.31662705540657043,0.07353782653808594,0.13277879357337952
1772555324251183600,7.54618359375,0.32625612616539,0.060743603855371475,0.11536950618028641
1772555324261116400,7.556116455078125,0.33255210518836975,0.05823757126927376,0.09665041416883469
1772555324271048400,7.56604833984375,0.336118221282959,0.04433155804872513,0.08170479536056519
1772555324280980500,7.57598046875,0.3382412791252136,0.024024687707424164,0.06787233799695969
1772555324290912500,7.58591259765625,0.3413031995296478,-0.005841529928147793,0.04300911724567413
1772555324300844500,7.595844482421875,0.34079718589782715,-0.03908257186412811,-0.00040333718061447144
1772555324310777600,7.605777587890625,0.3277394473552704,-0.07069624960422516,-0.06814639270305634
1772555324320709600,7.615709716796875,0.30400562286376953,-0.0940423235297203,-0.16141508519649506
1772555324330641700,7.6256416015625,0.26856014132499695,-0.10437160730361938,-0.26253536343574524
1772555324340573700,7.63557373046875,0.2299536168575287,-0.09990974515676498,-0.339325487613678
1772555324350506800,7.6455068359375,0.19186235964298248,-0.10697650909423828,-0.36352354288101196
1772555324360438800,7.655438720703125,0.15427397191524506,-0.13122433423995972,-0.3122853934764862
1772555324370370800,7.665370849609375,0.1255650371313095,-0.16611260175704956,-0.20235095918178558
1772555324380302600,7.675302490234375,0.09801436960697174,-0.2079487293958664,-0.03787412866950035
1772555324390235600,7.685235595703125,0.07053788006305695,-0.24630114436149597,0.15768392384052277
1772555324400167700,7.695167724609375,0.0428287610411644,-0.2590286433696747,0.341072678565979
1772555324410099700,7.705099609375,0.006715051364153624,-0.25043049454689026,0.4748417139053345
1772555324420031700,7.71503173828125,-0.03240865096449852,-0.20647023618221283,0.5548587441444397
1772555324429964800,7.72496484375,-0.06540491431951523,-0.13543254137039185,0.5600668787956238
1772555324439896800,7.734896728515625,-0.10358452796936035,-0.06928761303424835,0.524789571762085
1772555324449828900,7.744828857421875,-0.13304118812084198,-0.013230389915406704,0.4586465358734131
1772555324459760600,7.7547607421875,-0.14799457788467407,0.02003329060971737,0.38521867990493774
1772555324469693700,7.764693603515625,-0.14895926415920258,0.031087391078472137,0.2916063666343689
1772555324479625700,7.774625732421875,-0.14312054216861725,0.036977238953113556,0.1967882513999939
1772555324489557800,7.784557861328125,-0.11946939677000046,0.03868817910552025,0.1016155406832695
1772555324499489800,7.79448974609375,-0.08485442399978638,0.052402663975954056,0.014911538921296597
1772555324509421800,7.804421875,-0.04660063236951828,0.07051503658294678,-0.059136733412742615
1772555324519355000,7.81435498046875,-0.018825994804501534,0.09120780229568481,-0.11102177202701569
1772555324529287000,7.824286865234375,0.004055205732584,0.11123304814100266,-0.15002666413784027
1772555324539218700,7.83421875,0.011501404456794262,0.12880536913871765,-0.16768768429756165
1772555324549150700,7.844150634765625,0.012175745330750942,0.12212269753217697,-0.1663019061088562
1772555324559083800,7.854083740234375,0.009506725706160069,0.10366300493478775,-0.14812584221363068
1772555324569015800,7.864015869140625,0.005711040459573269,0.082328200340271,-0.11000281572341919
1772555324578947800,7.87394775390625,0.004308886826038361,0.05490349605679512,-0.05108516663312912
1772555324588880000,7.8838798828125,0.005488015711307526,0.024143671616911888,0.029264122247695923
1772555324598813000,7.89381298828125,0.013946481980383396,-0.00433430727571249,0.10798583179712296
1772555324608745000,7.903744873046875,0.01678680069744587,-0.02622702345252037,0.18477565050125122
1772555324618676700,7.9136767578125,0.018632903695106506,-0.05980762094259262,0.2573428153991699
1772555324628608800,7.92360888671875,0.02308846265077591,-0.08249299228191376,0.31543293595314026
1772555324638541800,7.933541748046875,0.01856987550854683,-0.08636575937271118,0.34220090508461
1772555324648473900,7.943473876953125,0.0032303943298757076,-0.07045267522335052,0.3374618589878082
1772555324658406000,7.953406005859375,-0.009304039180278778,-0.02705087512731552,0.30081915855407715
1772555324668338000,7.963337890625,-0.021925291046500206,0.04052044451236725,0.24107351899147034
1772555324678270000,7.97327001953125,-0.03352043032646179,0.09737440943717957,0.16333186626434326
1772555324688202800,7.98320263671875,-0.04291100427508354,0.12757465243339539,0.06929723918437958
1772555324698134800,7.993134765625,-0.04643756151199341,0.11606314778327942,-0.01860971562564373
1772555324708066800,8.00306689453125,-0.046479783952236176,0.06720181554555893,-0.09845448285341263
1772555324717998800,8.012998779296876,-0.04662705957889557,-0.013911943882703781,-0.1685640513896942
1772555324727931600,8.022931640625,-0.04744672030210495,-0.08258894085884094,-0.22297318279743195
1772555324737863700,8.03286376953125,-0.050182852894067764,-0.1339714378118515,-0.2550815939903259
1772555324747795700,8.042795654296874,-0.05766050145030022,-0.16309192776679993,-0.2689986228942871
1772555324757727700,8.052727783203125,-0.05797022953629494,-0.16159310936927795,-0.2572663426399231
1772555324767660800,8.062660888671875,-0.062444377690553665,-0.13980090618133545,-0.23144522309303284
1772555324777592600,8.072592529296875,-0.0690961554646492,-0.11114101856946945,-0.18193386495113373
1772555324787524600,8.082524658203125,-0.0764915943145752,-0.07953841239213943,-0.12645092606544495
1772555324797456600,8.09245654296875,-0.08503128588199615,-0.039920955896377563,-0.06954023987054825
1772555324807389700,8.1023896484375,-0.09822914749383926,-0.004349280148744583,-0.03064725175499916
1772555324817321700,8.11232177734375,-0.11804626882076263,0.03940645605325699,0.0008062804117798805
1772555324827253800,8.122253662109374,-0.14035770297050476,0.07926660776138306,0.019450422376394272
1772555324837185800,8.132185791015624,-0.16838186979293823,0.11088951677083969,0.02929745987057686
1772555324847117600,8.14211767578125,-0.19820116460323334,0.12675251066684723,0.024932118132710457
1772555324857050600,8.152050537109375,-0.2189144343137741,0.12562014162540436,0.014647522941231728
1772555324866982700,8.161982666015625,-0.23962722718715668,0.12450748682022095,0.0006680646911263466
1772555324876914700,8.171914794921875,-0.25568315386772156,0.1276518702507019,-0.014321270398795605
1772555324886846700,8.1818466796875,-0.26377665996551514,0.12455067038536072,-0.032591838389635086
1772555324896779800,8.19177978515625,-0.2664933502674103,0.1047319620847702,-0.05044354125857353
1772555324906711800,8.2017119140625,-0.2599380314350128,0.06419724971055984,-0.07799825817346573
1772555324916643800,8.211643798828124,-0.2445787787437439,0.014630496501922607,-0.11579251289367676
1772555324926575600,8.22157568359375,-0.2395516335964203,-0.03125183656811714,-0.1678638756275177
1772555324936508700,8.2315087890625,-0.23484103381633759,-0.06330697238445282,-0.21904051303863525
1772555324946440700,8.241440673828125,-0.22971810400485992,-0.0621909499168396,-0.2551766633987427
1772555324956372700,8.251372802734375,-0.2218679040670395,-0.05197159945964813,-0.2638804018497467
1772555324966304800,8.2613046875,-0.21719974279403687,-0.03632940724492073,-0.2544882893562317
1772555324976237800,8.27123779296875,-0.21216504275798798,-0.03189684450626373,-0.2338232398033142
1772555324986169900,8.281169921875,-0.20858459174633026,-0.04798378050327301,-0.21202732622623444
1772555324996102000,8.291101806640626,-0.2058039754629135,-0.07458263635635376,-0.1906871497631073
1772555325006033700,8.30103369140625,-0.20141589641571045,-0.10177049785852432,-0.17547263205051422
1772555325015966700,8.310966796875,-0.19412362575531006,-0.12251438945531845,-0.16374459862709045
1772555325025898800,8.320898681640625,-0.1960788369178772,-0.12637068331241608,-0.15142539143562317
1772555325035830800,8.330830810546875,-0.20048503577709198,-0.11207962036132812,-0.14557841420173645
1772555325045762800,8.3407626953125,-0.2080843299627304,-0.07998748123645782,-0.14636056125164032
1772555325055694800,8.35069482421875,-0.21998253464698792,-0.053922317922115326,-0.14662766456604004
1772555325065628000,8.3606279296875,-0.22345903515815735,-0.031138265505433083,-0.1486629992723465
1772555325075560000,8.370559814453125,-0.22282972931861877,-0.0279826857149601,-0.13541243970394135
1772555325085491700,8.38049169921875,-0.21813540160655975,-0.04010387510061264,-0.13223370909690857
1772555325095423700,8.390423828125,-0.2072973996400833,-0.058967579156160355,-0.1303173005580902
1772555325105356800,8.400356689453124,-0.19836394488811493,-0.08583927899599075,-0.1370123326778412
1772555325115288800,8.410288818359374,-0.19400781393051147,-0.1131713017821312,-0.1417066752910614
1772555325125220900,8.420220947265625,-0.19136884808540344,-0.1230500340461731,-0.1455678790807724
1772555325135153000,8.43015283203125,-0.19434866309165955,-0.1252490133047104,-0.14569729566574097
1772555325145085700,8.440085693359375,-0.20225073397159576,-0.10903064906597137,-0.13720199465751648
1772555325155017700,8.450017822265625,-0.2115374505519867,-0.08901380002498627,-0.12407554686069489
1772555325164949800,8.45994970703125,-0.21731668710708618,-0.07058244198560715,-0.10426795482635498
1772555325174881800,8.4698818359375,-0.22097374498844147,-0.07247275114059448,-0.08116156607866287
1772555325184813800,8.479813720703126,-0.22039759159088135,-0.0723879262804985,-0.05655632168054581
1772555325194746600,8.48974658203125,-0.21197427809238434,-0.06731806695461273,-0.025942759588360786
1772555325204678700,8.4996787109375,-0.20894262194633484,-0.053846705704927444,0.016395244747400284
1772555325214610700,8.509610595703125,-0.21124012768268585,-0.034103360027074814,0.06651194393634796
1772555325224543000,8.51954296875,-0.21699896454811096,-0.007508935406804085,0.10847999900579453
1772555325234475800,8.529475830078125,-0.2239559441804886,0.02748393639922142,0.13829250633716583
1772555325244407600,8.539407470703125,-0.22565995156764984,0.06072164699435234,0.17269882559776306
1772555325254339600,8.549339599609375,-0.22552785277366638,0.09077861905097961,0.19218437373638153
1772555325264271600,8.559271728515625,-0.2242962121963501,0.12294269353151321,0.2075977772474289
1772555325274204700,8.56920458984375,-0.2217845916748047,0.1438535749912262,0.20837782323360443
1772555325284136700,8.57913671875,-0.21629424393177032,0.1502348631620407,0.19796043634414673
1772555325294068700,8.58906884765625,-0.21791771054267883,0.15014219284057617,0.17124813795089722
1772555325304000800,8.599000732421874,-0.21144169569015503,0.1515716016292572,0.14074239134788513
1772555325313933800,8.608933837890625,-0.19994430243968964,0.15881966054439545,0.11954256892204285
1772555325323865900,8.618865966796875,-0.1879969984292984,0.15826764702796936,0.10653045773506165
1772555325333798000,8.6287978515625,-0.17388011515140533,0.1400529444217682,0.10898296535015106
1772555325343729700,8.638729736328125,-0.15174254775047302,0.10618303716182709,0.11181486397981644
1772555325353662700,8.648662841796876,-0.12853604555130005,0.057555846869945526,0.1345185786485672
1772555325363594800,8.6585947265625,-0.09903798252344131,0.007943524047732353,0.16832762956619263
1772555325373526800,8.66852685546875,-0.07721018046140671,-0.021345920860767365,0.21703258156776428
1772555325383458800,8.678458740234374,-0.06443824619054794,-0.03212203085422516,0.2617773711681366
1772555325393390800,8.688390869140624,-0.06282783299684525,-0.02274370566010475,0.2906782627105713
1772555325403324000,8.698323974609375,-0.06952447444200516,0.0031160712242126465,0.30903691053390503
1772555325413256000,8.708255859375,-0.07972145080566406,0.03958593308925629,0.3145933449268341
1772555325423187700,8.718187744140625,-0.09122574329376221,0.09498739242553711,0.3210654854774475
1772555325433119700,8.72811962890625,-0.1021718680858612,0.13950160145759583,0.314418226480484
1772555325443052800,8.738052734375,-0.10287313908338547,0.17426501214504242,0.2975931465625763
1772555325452984800,8.74798486328125,-0.1086367517709732,0.19169433414936066,0.27212080359458923
1772555325462916900,8.757916748046876,-0.12253271788358688,0.1996505856513977,0.23667234182357788
1772555325472849000,8.767848876953124,-0.13955777883529663,0.20629383623600006,0.20044243335723877
1772555325482782000,8.777781982421875,-0.15212610363960266,0.2141381949186325,0.17411892116069794
1772555325492714000,8.7877138671875,-0.1624128371477127,0.2112116515636444,0.16563701629638672
1772555325502645800,8.797645751953125,-0.17304234206676483,0.2080879509449005,0.17064163088798523
1772555325512577800,8.807577880859375,-0.17937374114990234,0.20861124992370605,0.17780020833015442
1772555325522510800,8.8175107421875,-0.1829858273267746,0.20597313344478607,0.1852697879076004
1772555325532443000,8.82744287109375,-0.190373957157135,0.18977206945419312,0.1796473264694214
1772555325542375000,8.837375,-0.19979938864707947,0.1611623466014862,0.17014651000499725
1772555325552307000,8.847306884765626,-0.19918154180049896,0.1187238097190857,0.15445490181446075
1772555325562239000,8.857239013671874,-0.19750317931175232,0.07986694574356079,0.1454063206911087
1772555325572172000,8.867172119140625,-0.20206117630004883,0.03563716635107994,0.13927865028381348
1772555325582103800,8.877103759765625,-0.20178553462028503,-0.02028229460120201,0.14595067501068115
1772555325592035800,8.887035888671875,-0.2027788907289505,-0.08353716135025024,0.16103188693523407
1772555325601967900,8.8969677734375,-0.20915116369724274,-0.14341138303279877,0.1706853210926056
1772555325611901000,8.90690087890625,-0.2188677191734314,-0.19378480315208435,0.1830866038799286
1772555325621833000,8.9168330078125,-0.22749412059783936,-0.23075979948043823,0.18812300264835358
1772555325631765000,8.926764892578126,-0.23024889826774597,-0.2526746988296509,0.17592358589172363
1772555325641697000,8.936697021484376,-0.231464222073555,-0.258717805147171,0.1549241840839386
1772555325651629800,8.9466298828125,-0.23593460023403168,-0.2443455159664154,0.12180778384208679
1772555325661561600,8.9565615234375,-0.22921442985534668,-0.2153782993555069,0.07518385350704193
1772555325671494000,8.966493896484375,-0.2180808186531067,-0.1785457283258438,0.013967365026473999
1772555325681426000,8.976426025390625,-0.20013053715229034,-0.14397284388542175,-0.07630211114883423
1772555325691358000,8.98635791015625,-0.17032895982265472,-0.1251498907804489,-0.18964996933937073
1772555325701290800,8.996290771484375,-0.1392592042684555,-0.12056570500135422,-0.3133557140827179
1772555325711222800,9.006222900390625,-0.10033177584409714,-0.11292216181755066,-0.42215222120285034
1772555325721154800,9.01615478515625,-0.06758187711238861,-0.11607115715742111,-0.50733482837677
1772555325731086800,9.0260869140625,-0.03345346450805664,-0.13348209857940674,-0.5421884059906006
1772555325741019600,9.03601953125,0.005576522089540958,-0.15894831717014313,-0.5309828519821167
1772555325750951700,9.04595166015625,0.050121087580919266,-0.18903644382953644,-0.47448253631591797
1772555325760883700,9.0558837890625,0.08719859272241592,-0.20054703950881958,-0.38960570096969604
1772555325770815700,9.065815673828125,0.12108039110898972,-0.19757841527462006,-0.28423136472702026
1772555325780748800,9.075748779296875,0.1381055861711502,-0.16510123014450073,-0.1939709335565567
1772555325790680800,9.085680908203125,0.14047394692897797,-0.10738146305084229,-0.12383339554071426
1772555325800612900,9.09561279296875,0.1295722872018814,-0.06850197911262512,-0.07409700006246567
1772555325810544600,9.105544677734375,0.11058688163757324,-0.06246459484100342,-0.054883889853954315
1772555325820477700,9.115477783203126,0.0870908796787262,-0.0674593523144722,-0.0722769945859909
1772555325830409700,9.12540966796875,0.057860296219587326,-0.0760435163974762,-0.0721459686756134
1772555325840341800,9.135341796875,0.05857795476913452,-0.014733005315065384,-0.09055737406015396
1772555325850273800,9.145273681640624,0.023393068462610245,0.09250742942094803,-0.17154435813426971
1772555325860205800,9.155205810546875,0.007914183661341667,0.08640694618225098,-0.22867991030216217
1772555325870139000,9.165138916015625,0.02591235749423504,0.057823508977890015,-0.24920327961444855
1772555325880071000,9.17507080078125,0.05908229574561119,0.0342063307762146,-0.26377904415130615
1772555325890002700,9.185002685546875,0.1062343567609787,-0.02133016660809517,-0.25980615615844727
1772555325899934700,9.194934814453125,0.1664479672908783,-0.06981827318668365,-0.19883620738983154
1772555325909867800,9.20486767578125,0.18742382526397705,-0.09883181750774384,-0.20043116807937622
