time,seconds_elapsed,z,y,x
1772555466570940000,0.07693994140625,-0.20592845976352692,-0.3124197721481323,-0.24777638912200928
1772555466580872000,0.086871826171875,-0.25886693596839905,-0.2761988043785095,-0.24822501838207245
1772555466590804000,0.096803955078125,-0.2958950102329254,-0.21746760606765747,-0.22939994931221008
1772555466600735000,0.10673486328125,-0.310593843460083,-0.11525601148605347,-0.18410399556159973
1772555466610666800,0.116666748046875,-0.32582151889801025,0.0050658732652664185,-0.130495086312294
1772555466620598800,0.126598876953125,-0.3409932851791382,0.1345638930797577,-0.07044517993927002
1772555466630530800,0.13653076171875,-0.34792256355285645,0.2506747841835022,-0.02105393260717392
1772555466640462800,0.146462890625,-0.37532517313957214,0.3517761528491974,0.025175467133522034
1772555466650395000,0.156394775390625,-0.3962450921535492,0.40324655175209045,0.05777708813548088
1772555466660326000,0.166325927734375,-0.3890838325023651,0.41746604442596436,0.090328648686409
1772555466670258000,0.1762578125,-0.38280728459358215,0.45159685611724854,0.13492301106452942
1772555466680190000,0.18618994140625,-0.36839425563812256,0.4181041419506073,0.18099169433116913
1772555466690122000,0.1961220703125,-0.33518171310424805,0.34352976083755493,0.205880805850029
1772555466700054000,0.206053955078125,-0.2827205955982208,0.19497010111808777,0.208084374666214
1772555466709985800,0.21598583984375,-0.21072950959205627,0.015346001833677292,0.1704384684562683
1772555466719917800,0.225917724609375,-0.13735494017601013,-0.14903269708156586,0.09740452468395233
1772555466729848800,0.235848876953125,-0.07726709544658661,-0.2467922866344452,0.008736977353692055
1772555466739780900,0.24578076171875,-0.0414341576397419,-0.27670204639434814,-0.07067152112722397
1772555466749713000,0.255712890625,-0.029081348329782486,-0.2500312924385071,-0.13728544116020203
1772555466759644700,0.265644775390625,-0.029263578355312347,-0.19467753171920776,-0.16455817222595215
1772555466769576700,0.27557666015625,-0.030672121793031693,-0.1360270082950592,-0.15959909558296204
1772555466779508700,0.2855087890625,-0.024661965668201447,-0.07686208188533783,-0.11650383472442627
1772555466789440000,0.29543994140625,-0.012809833511710167,-0.015992874279618263,-0.036078762263059616
1772555466799372000,0.3053720703125,0.007286881096661091,0.026621922850608826,0.05808980017900467
1772555466809303800,0.3153037109375,0.02302110381424427,0.05804749205708504,0.14514879882335663
1772555466819235800,0.32523583984375,0.030925028026103973,0.08690205216407776,0.2036881148815155
1772555466829167900,0.33516796875,0.034551188349723816,0.10984305292367935,0.22427408397197723
1772555466839100000,0.345099853515625,0.028584958985447884,0.111976258456707,0.21053120493888855
1772555466849032000,0.355031982421875,0.02976873330771923,0.10137128829956055,0.16105152666568756
1772555466858962700,0.364962646484375,0.02108263596892357,0.08622248470783234,0.08756381273269653
1772555466868894700,0.374894775390625,0.00857323594391346,0.08570051193237305,0.004938975442200899
1772555466878826800,0.38482666015625,-0.009905854240059853,0.09504182636737823,-0.060657799243927
1772555466888758800,0.3947587890625,-0.02066635712981224,0.1253501921892166,-0.08730804920196533
1772555466898690800,0.40469091796875,-0.021251920610666275,0.1683792769908905,-0.0644754096865654
1772555466908622800,0.414622802734375,-0.011315933428704739,0.1870107501745224,-0.010760786011815071
1772555466918555000,0.424554931640625,0.0013476461172103882,0.18514464795589447,0.04962211847305298
1772555466928486000,0.43448583984375,0.01586933061480522,0.1641291081905365,0.09040576219558716
1772555466938418000,0.44441796875,0.03333281725645065,0.12193050980567932,0.11247340589761734
1772555466948350000,0.454349853515625,0.04334257170557976,0.07916760444641113,0.11237246543169022
1772555466958281700,0.46428173828125,0.055846020579338074,0.03589339926838875,0.10007908940315247
1772555466968213800,0.4742138671875,0.06050682067871094,-0.0021173665300011635,0.08466711640357971
1772555466978145800,0.484145751953125,0.06829331070184708,-0.02121191844344139,0.07259325683116913
1772555466988077800,0.494077880859375,0.07168591767549515,-0.0297396257519722,0.06149347126483917
1772555466998008800,0.5040087890625,0.07197455316781998,-0.032035887241363525,0.04778164252638817
1772555467007940900,0.51394091796875,0.07202301919460297,-0.035219162702560425,0.028997035697102547
1772555467017873000,0.523872802734375,0.07223772257566452,-0.022149084135890007,0.0033516068942844868
1772555467027805000,0.533804931640625,0.06358377635478973,-0.014574522152543068,-0.008602524176239967
1772555467037737000,0.543737060546875,0.04725698381662369,-0.002401985228061676,-0.01367884874343872
1772555467047669000,0.5536689453125,0.03368045762181282,0.007361961528658867,-0.013025309890508652
1772555467057599700,0.563599853515625,0.023658087477087975,0.02452373318374157,-0.015610196627676487
1772555467067531800,0.57353173828125,0.016253434121608734,0.044838063418865204,-0.020385511219501495
1772555467077463800,0.5834638671875,0.012645911425352097,0.051257677376270294,-0.018983691930770874
1772555467087395800,0.593395751953125,0.013824626803398132,0.048790790140628815,-0.018805790692567825
1772555467097327900,0.603327880859375,0.014146481640636921,0.05292373523116112,-0.01640358380973339
1772555467107259600,0.613259765625,0.009844676591455936,0.04457419365644455,-0.009251665323972702
1772555467117191700,0.623191650390625,0.012933000922203064,0.026938753202557564,0.0029519684612751007
1772555467127123000,0.633123046875,0.014341546222567558,0.019380969926714897,0.02010352537035942
1772555467137055000,0.643054931640625,0.010592687875032425,0.022806057706475258,0.04303402453660965
1772555467146986800,0.65298681640625,0.0008114287629723549,0.03684651106595993,0.06267483532428741
1772555467156918800,0.662918701171875,-0.012279041111469269,0.05202789604663849,0.07447638362646103
1772555467166850800,0.672850830078125,-0.02065521478652954,0.07454811781644821,0.08482994884252548
1772555467176782800,0.682782958984375,-0.03588324785232544,0.09820292890071869,0.09874235093593597
1772555467186715000,0.69271484375,-0.04458831995725632,0.1170615628361702,0.10467533767223358
1772555467196645600,0.702645751953125,-0.05448209121823311,0.13143309950828552,0.1259385198354721
1772555467206577700,0.71257763671875,-0.05522111803293228,0.13852909207344055,0.14750532805919647
1772555467216509700,0.722509765625,-0.04513838142156601,0.1338159739971161,0.17619703710079193
1772555467226442000,0.73244189453125,-0.026833411306142807,0.11830758303403854,0.20556876063346863
1772555467236374000,0.7423740234375,-0.008346048183739185,0.09433302283287048,0.2343425452709198
1772555467246306000,0.75230615234375,0.007200953550636768,0.06057213619351387,0.2623917758464813
1772555467256236800,0.76223681640625,0.00968073308467865,0.019456295296549797,0.27386441826820374
1772555467266168800,0.7721689453125,0.013817422091960907,-0.018362190574407578,0.2638290822505951
1772555467276100900,0.782100830078125,0.018136166036128998,-0.05607045441865921,0.2398543655872345
1772555467286033000,0.792032958984375,0.021351134404540062,-0.09309051930904388,0.20687803626060486
1772555467295965000,0.80196484375,0.03493226319551468,-0.1379789113998413,0.172956183552742
1772555467305896700,0.811896728515625,0.05940884351730347,-0.1983647495508194,0.1482769250869751
1772555467315828700,0.821828857421875,0.08361363410949707,-0.25344318151474,0.12698252499103546
1772555467325760000,0.831760009765625,0.10256762057542801,-0.27385976910591125,0.11277429014444351
1772555467335692000,0.841692138671875,0.10797550529241562,-0.27297812700271606,0.10999077558517456
1772555467345623800,0.851623779296875,0.09047213941812515,-0.256767213344574,0.12815885245800018
1772555467355555800,0.861555908203125,0.0839228555560112,-0.24710755050182343,0.16121912002563477
1772555467365487900,0.87148779296875,0.06562267243862152,-0.20478005707263947,0.20601801574230194
1772555467375420000,0.881419921875,0.06428167968988419,-0.19046173989772797,0.21363943815231323
1772555467385351000,0.891350830078125,0.047040905803442,-0.01676318608224392,0.23353751003742218
1772555467395282700,0.90128271484375,-0.014923008158802986,-0.020853521302342415,0.2567724883556366
1772555467405214700,0.911214599609375,-0.032181356102228165,-0.03650917857885361,0.23907604813575745
1772555467415146800,0.921146728515625,0.06120792776346207,-0.047950468957424164,0.19899466633796692
1772555467425078800,0.931078857421875,0.11875750869512558,-0.16773653030395508,0.14965853095054626
1772555467435010800,0.9410107421875,0.12268020212650299,-0.3063098192214966,0.06944595277309418
1772555467444943400,0.950943359375,0.10571853816509247,-0.3926636278629303,-0.04094100371003151
1772555467454874600,0.96087451171875,0.09099550545215607,-0.4370962977409363,-0.14795514941215515
1772555467464806700,0.970806640625,0.10932337492704391,-0.4519631266593933,-0.23742350935935974
1772555467474738400,0.980738525390625,0.1531183123588562,-0.4259510636329651,-0.2907536029815674
1772555467484670500,0.99067041015625,0.20714479684829712,-0.3686653971672058,-0.31614261865615845
1772555467494602500,1.0006025390625,0.25308316946029663,-0.2775373160839081,-0.32911935448646545
1772555467504534500,1.010534423828125,0.2822436988353729,-0.16722041368484497,-0.32133492827415466
1772555467514466600,1.020466552734375,0.2918395400047302,-0.05760439112782478,-0.2959423363208771
1772555467524397300,1.030397216796875,0.28503331542015076,0.034749776124954224,-0.2676585018634796
1772555467534329300,1.040329345703125,0.2742191255092621,0.12283453345298767,-0.23441292345523834
1772555467544261400,1.050261474609375,0.2580534517765045,0.2247643619775772,-0.20144085586071014
1772555467554193400,1.060193359375,0.23320621252059937,0.33345526456832886,-0.17408041656017303
1772555467564125400,1.07012548828125,0.21230196952819824,0.4310566484928131,-0.1338014304637909
1772555467574057500,1.080057373046875,0.1911156177520752,0.49365976452827454,-0.08029736578464508
1772555467583988500,1.089988525390625,0.17191609740257263,0.5111671090126038,-0.015965240076184273
1772555467593920500,1.09992041015625,0.1507662832736969,0.49809056520462036,0.04845188558101654
1772555467603852500,1.1098525390625,0.1264636069536209,0.44622790813446045,0.09546306729316711
1772555467613784600,1.11978466796875,0.09243681281805038,0.3637480139732361,0.13601286709308624
1772555467623716400,1.12971630859375,0.05965675786137581,0.2603614330291748,0.14788417518138885
1772555467633648400,1.1396484375,0.02560495212674141,0.15594211220741272,0.13824357092380524
1772555467643580400,1.149580322265625,-0.014553384855389595,0.06080281361937523,0.107404425740242
1772555467653511400,1.159511474609375,-0.05155115947127342,-0.02204672247171402,0.06992848217487335
1772555467663443500,1.169443359375,-0.08113168925046921,-0.08065330982208252,0.03333264961838722
1772555467673375500,1.17937548828125,-0.09600584954023361,-0.12727485597133636,0.00949146319180727
1772555467683307500,1.1893076171875,-0.10257000476121902,-0.15307903289794922,-0.0014951415359973907
1772555467693239600,1.199239501953125,-0.10261192172765732,-0.1708575338125229,-0.0035302182659506798
1772555467703171600,1.209171630859375,-0.08961543440818787,-0.19648194313049316,-0.006132924929261208
1772555467713102600,1.2191025390625,-0.06884723156690598,-0.21997587382793427,-0.02190501242876053
1772555467723034400,1.229034423828125,-0.04538904130458832,-0.2441059798002243,-0.05868300050497055
1772555467732966400,1.23896630859375,-0.04027015343308449,-0.2656407356262207,-0.10776272416114807
1772555467742898400,1.2488984375,-0.05200563743710518,-0.2727910280227661,-0.15878622233867645
1772555467752830500,1.25883056640625,-0.07740997523069382,-0.2602640986442566,-0.2045588195323944
1772555467762762500,1.268762451171875,-0.111859031021595,-0.2159765362739563,-0.2298378050327301
1772555467772694300,1.2786943359375,-0.15681765973567963,-0.15270939469337463,-0.23254482448101044
1772555467782625500,1.28862548828125,-0.1962534785270691,-0.08429970592260361,-0.2140723466873169
1772555467792557600,1.2985576171875,-0.2185099720954895,-0.013101169839501381,-0.17192289233207703
1772555467802489600,1.308489501953125,-0.22179898619651794,0.054938603192567825,-0.1254512518644333
1772555467812421600,1.318421630859375,-0.21498170495033264,0.11954370886087418,-0.07404695451259613
1772555467822353400,1.328353515625,-0.19133257865905762,0.16185228526592255,-0.030011318624019623
1772555467832285400,1.338285400390625,-0.1539403349161148,0.17881137132644653,0.01285614911466837
1772555467842216400,1.348216552734375,-0.11306427419185638,0.20345626771450043,0.05120939761400223
1772555467852148500,1.3581484375,-0.05672142654657364,0.2166895568370819,0.07881824672222137
1772555467862080500,1.36808056640625,-0.00259081250987947,0.20815332233905792,0.09129489958286285
1772555467872012300,1.37801220703125,0.04264763370156288,0.17927893996238708,0.09170857071876526
1772555467881944300,1.3879443359375,0.07903573662042618,0.12557123601436615,0.08054007589817047
1772555467891876400,1.39787646484375,0.11112578213214874,0.05457933247089386,0.05254180356860161
1772555467901808400,1.407808349609375,0.1409292221069336,-0.016555562615394592,0.017926299944519997
1772555467911739400,1.417739501953125,0.1530291587114334,-0.07760168612003326,-0.024438101798295975
1772555467921671400,1.42767138671875,0.15890462696552277,-0.1347840130329132,-0.05804666131734848
1772555467931603500,1.437603515625,0.16385915875434875,-0.17965146899223328,-0.0781468003988266
1772555467941535500,1.447535400390625,0.1657063215970993,-0.2096453160047531,-0.08558554947376251
1772555467951467500,1.457467529296875,0.16482383012771606,-0.22454623878002167,-0.09303612262010574
1772555467961399600,1.467399658203125,0.15811239182949066,-0.2022387981414795,-0.09802582114934921
1772555467971330300,1.477330322265625,0.15390470623970032,-0.16470657289028168,-0.08902737498283386
1772555467981262300,1.487262451171875,0.1382541060447693,-0.13789093494415283,-0.07042732834815979
1772555467991194400,1.4971943359375,0.10646854341030121,-0.12208128720521927,-0.04247390478849411
1772555468001126400,1.50712646484375,0.06835950911045074,-0.11298126727342606,-0.015592485666275024
1772555468011058700,1.51705859375,0.025757303461432457,-0.09972850233316422,0.0024862829595804214
1772555468020990500,1.526990478515625,-0.014270007610321045,-0.08726464211940765,0.016692116856575012
1772555468030922500,1.536922607421875,-0.053445156663656235,-0.07800272107124329,0.031187361106276512
1772555468040853500,1.546853515625,-0.07754196971654892,-0.06922387331724167,0.04484404996037483
1772555468050785500,1.55678564453125,-0.09805191308259964,-0.03803344815969467,0.04680223390460014
1772555468060717600,1.566717529296875,-0.10975464433431625,-0.004379617050290108,0.04995328560471535
1772555468070649300,1.5766494140625,-0.11621937155723572,0.03134572505950928,0.05040824040770531
1772555468080581400,1.586581298828125,-0.12248446047306061,0.05936937779188156,0.052675921469926834
1772555468090513400,1.596513427734375,-0.12352713942527771,0.06899049133062363,0.053068459033966064
1772555468100445400,1.606445556640625,-0.12199901789426804,0.06227373331785202,0.054633334279060364
1772555468110376400,1.61637646484375,-0.12607374787330627,0.027729764580726624,0.052261169999837875
1772555468120308500,1.62630859375,-0.13950113952159882,-0.019633222371339798,0.045873578637838364
1772555468130240500,1.636240478515625,-0.1497996598482132,-0.058062098920345306,0.04346512630581856
1772555468140172500,1.646172607421875,-0.15045639872550964,-0.07603231072425842,0.03972897678613663
1772555468150104600,1.6561044921875,-0.14231890439987183,-0.07868221402168274,0.031742069870233536
1772555468160036600,1.66603662109375,-0.12410634011030197,-0.08113924413919449,0.02485726773738861
1772555468169967400,1.67596728515625,-0.0974031463265419,-0.09561987221240997,0.01710040494799614
1772555468179899400,1.6858994140625,-0.07329434901475906,-0.11565723270177841,0.0020886994898319244
1772555468189831400,1.69583154296875,-0.04576865956187248,-0.12919145822525024,-0.014541803859174252
1772555468199763500,1.705763427734375,-0.03247895464301109,-0.1351713240146637,-0.022246595472097397
1772555468209695500,1.715695556640625,-0.019790329039096832,-0.14910085499286652,-0.031623974442481995
1772555468219627300,1.725627197265625,-0.018017729744315147,-0.15190836787223816,-0.0385332815349102
1772555468229559300,1.735559326171875,-0.02771264873445034,-0.13826210796833038,-0.04144052043557167
1772555468239490600,1.745490478515625,-0.04552733153104782,-0.10753534734249115,-0.04058964177966118
1772555468249422600,1.755422607421875,-0.07124875485897064,-0.07055409252643585,-0.03906865790486336
1772555468259354400,1.765354248046875,-0.10121597349643707,-0.013145124539732933,-0.030162513256072998
1772555468269286400,1.775286376953125,-0.13153353333473206,0.047031473368406296,-0.016075823456048965
1772555468279218400,1.785218505859375,-0.1524135172367096,0.09793832898139954,0.014042130671441555
1772555468289150500,1.795150390625,-0.16324885189533234,0.1364162117242813,0.046083152294158936
1772555468299081500,1.80508154296875,-0.16469281911849976,0.15053071081638336,0.0829026848077774
1772555468309013200,1.81501318359375,-0.17084592580795288,0.14296633005142212,0.11640196293592453
1772555468318945300,1.8249453125,-0.17068907618522644,0.12779776751995087,0.1381477266550064
1772555468328877600,1.834877685546875,-0.17783965170383453,0.11533728241920471,0.14196445047855377
1772555468338809600,1.8448095703125,-0.17559833824634552,0.1108088344335556,0.1281450390815735
1772555468348741600,1.85474169921875,-0.1684420108795166,0.10430482029914856,0.09862898290157318
1772555468358672400,1.86467236328125,-0.16104109585285187,0.0806780457496643,0.06252903491258621
1772555468368604400,1.8746044921875,-0.15355202555656433,0.04339912533760071,0.02225351706147194
1772555468378536400,1.884536376953125,-0.13959066569805145,0.004916712641716003,-0.01240326277911663
1772555468388468500,1.894468505859375,-0.12414242327213287,-0.0329546183347702,-0.030705351382493973
1772555468398400500,1.904400390625,-0.10880926996469498,-0.05100739002227783,-0.044674430042505264
1772555468408332300,1.914332275390625,-0.087047278881073,-0.04100686311721802,-0.049124982208013535
1772555468418264300,1.924264404296875,-0.0721793845295906,-0.014256474561989307,-0.05613122507929802
1772555468428195600,1.934195556640625,-0.06096988916397095,0.02136685699224472,-0.05876336991786957
1772555468438127600,1.944127685546875,-0.049658115953207016,0.04620056971907616,-0.05695508420467377
1772555468448059100,1.95405908203125,-0.038513701409101486,0.06011278182268143,-0.05623559281229973
1772555468457991200,1.9639912109375,-0.02979877218604088,0.06331390142440796,-0.056672353297472
1772555468467923200,1.973923095703125,-0.02814529277384281,0.045464929193258286,-0.05688774958252907
1772555468477855200,1.983855224609375,-0.034789346158504486,0.030770406126976013,-0.06370171904563904
1772555468487786000,1.993785888671875,-0.04757868871092796,0.025255650281906128,-0.07630080729722977
1772555468497718000,2.003718017578125,-0.0638444796204567,0.029860254377126694,-0.08604691177606583
1772555468507650000,2.013650146484375,-0.0830170139670372,0.039049990475177765,-0.08359099179506302
1772555468517582000,2.02358203125,-0.1018274575471878,0.051332227885723114,-0.06629882007837296
1772555468527513900,2.033513916015625,-0.1175059899687767,0.059316761791706085,-0.04181298241019249
1772555468537446100,2.043446044921875,-0.1336953490972519,0.05442214012145996,-0.0069404831156134605
1772555468547378200,2.053378173828125,-0.13586433231830597,0.04556196182966232,0.034663595259189606
1772555468557309200,2.06330908203125,-0.12658293545246124,0.033664822578430176,0.07166582345962524
1772555468567241200,2.0732412109375,-0.10579035431146622,0.032300934195518494,0.10067881643772125
1772555468577173000,2.083173095703125,-0.07829401642084122,0.028500601649284363,0.11377863585948944
1772555468587105000,2.09310498046875,-0.04148479923605919,0.025965798646211624,0.11227969825267792
1772555468597037000,2.103037109375,-0.00022764084860682487,0.021650146692991257,0.09687437862157822
1772555468606969000,2.112968994140625,0.03817015513777733,0.017596276476979256,0.06957553327083588
1772555468616900000,2.122900146484375,0.08066967129707336,0.016102774068713188,0.039361171424388885
1772555468626832100,2.13283203125,0.10976719111204147,0.016357768326997757,0.0036346158012747765
1772555468636764200,2.14276416015625,0.13277316093444824,0.020761307328939438,-0.02543059177696705
1772555468646696200,2.1526962890625,0.14828665554523468,0.026605229824781418,-0.047033678740262985
1772555468656628200,2.162628173828125,0.15888071060180664,0.03794843330979347,-0.048415061086416245
1772555468666560300,2.172560302734375,0.1620529741048813,0.045298982411623,-0.038906123489141464
1772555468676492000,2.182491943359375,0.15544620156288147,0.03801124170422554,-0.0214320570230484
1772555468686423000,2.192423095703125,0.14259907603263855,0.029271459206938744,-0.00416706595569849
1772555468696355000,2.20235498046875,0.1297791451215744,0.019840409979224205,0.013363191857933998
1772555468706287000,2.212287109375,0.12147127091884613,0.003877837210893631,0.027956873178482056
1772555468716219100,2.22221923828125,0.11278616636991501,-0.01580425351858139,0.03477483242750168
1772555468726151000,2.23215087890625,0.11064478754997253,-0.030014757066965103,0.03515408933162689
1772555468736083000,2.2420830078125,0.1083664521574974,-0.016764730215072632,0.024880144745111465
1772555468746014200,2.25201416015625,0.10855413228273392,0.00828922912478447,0.014861712232232094
1772555468755946200,2.2619462890625,0.09544924646615982,0.03252266347408295,0.013433458283543587
1772555468765878300,2.271878173828125,0.08473317325115204,0.038784466683864594,0.022347845137119293
1772555468775810000,2.28181005859375,0.07058300077915192,0.028399473056197166,0.030565295368433
1772555468785742000,2.2917421875,0.06131307780742645,0.018216745927929878,0.03632291406393051
1772555468795674000,2.301674072265625,0.05008572340011597,0.009972397238016129,0.03492901846766472
1772555468805605000,2.311605224609375,0.03636791929602623,0.003446640446782112,0.025680094957351685
1772555468815537000,2.321536865234375,0.026659633964300156,0.004359040409326553,0.009737879037857056
1772555468825469000,2.331468994140625,0.016226675361394882,0.010423148050904274,-0.00701434351503849
1772555468835401000,2.34140087890625,0.007935456931591034,0.022035330533981323,-0.021831639111042023
1772555468845333000,2.3513330078125,0.010687928646802902,0.032704658806324005,-0.026168838143348694
1772555468855265000,2.36126513671875,0.010965697467327118,0.04655788838863373,-0.025816235691308975
1772555468865197000,2.371197021484375,0.008205624297261238,0.06658229976892471,-0.01727953553199768
1772555468875128000,2.381128173828125,0.0037032836116850376,0.09414548426866531,-0.00960323866456747
1772555468885060000,2.39106005859375,0.0014846730045974255,0.12561026215553284,-0.0011199172586202621
1772555468894992100,2.4009921875,-0.005664582829922438,0.14512377977371216,0.008774524554610252
1772555468904924200,2.410924072265625,-0.018798084929585457,0.15428556501865387,0.011984206736087799
1772555468914856200,2.420856201171875,-0.03103158064186573,0.15296170115470886,0.017363525927066803
1772555468924788000,2.4307880859375,-0.03936106711626053,0.1318700611591339,0.019819039851427078
1772555468934719000,2.440718994140625,-0.04105483740568161,0.10765368491411209,0.02560209482908249
1772555468944651000,2.450651123046875,-0.03340621665120125,0.0803130567073822,0.02666749805212021
1772555468954583300,2.460583251953125,-0.01831861026585102,0.04262346029281616,0.02896207757294178
1772555468964515300,2.470515380859375,-0.009699046611785889,0.0010058004409074783,0.029971543699502945
1772555468974447000,2.480447021484375,0.005197078920900822,-0.03519587963819504,0.02692222222685814
1772555468984379100,2.490379150390625,0.014632073231041431,-0.06695515662431717,0.020543338730931282
1772555468994311200,2.500311279296875,0.023701470345258713,-0.09307144582271576,0.010943176224827766
1772555469004242200,2.5102421875,0.026191692799329758,-0.09490460157394409,-0.000533275306224823
1772555469014174000,2.520174072265625,0.029312383383512497,-0.07208743691444397,-0.013417115435004234
1772555469024106000,2.53010595703125,0.030441978946328163,-0.03496411815285683,-0.0197548009455204
1772555469034038000,2.5400380859375,0.02614576555788517,-0.003851206973195076,-0.01890578866004944
1772555469043970000,2.549969970703125,0.009106113575398922,0.011766919866204262,-0.010176132433116436
1772555469053902000,2.559902099609375,-0.010354669764637947,0.011133354157209396,0.0021788040176033974
1772555469063833000,2.5698330078125,-0.026539798825979233,0.0024986062198877335,0.018236003816127777
1772555469073765000,2.57976513671875,-0.02910548821091652,-0.0033635441213846207,0.02698155865073204
1772555469083697200,2.589697265625,-0.030696794390678406,-0.0008192164823412895,0.025330837815999985
1772555469093629200,2.599629150390625,-0.028098348528146744,0.010140223428606987,0.011275473050773144
1772555469103561200,2.609561279296875,-0.02542942389845848,0.026370156556367874,-0.001309320330619812
1772555469113493200,2.6194931640625,-0.01616774871945381,0.05499647185206413,-0.005660392343997955
1772555469123425000,2.629425048828125,-0.0032618960831314325,0.07521869242191315,-0.005488574504852295
1772555469133356000,2.63935595703125,0.011966858059167862,0.07782192528247833,0.00010938942432403564
1772555469143288000,2.6492880859375,0.023085597902536392,0.06975169479846954,0.004933054558932781
1772555469153220000,2.65922021484375,0.027782082557678223,0.06466799974441528,-0.0001754211261868477
1772555469163152000,2.66915185546875,0.037480682134628296,0.046893417835235596,-0.01008566189557314
1772555469173084000,2.679083984375,0.04532156139612198,0.0297679603099823,-0.022184666246175766
1772555469183016000,2.689015869140625,0.044420335441827774,0.016772961243987083,-0.03314485400915146
1772555469192947200,2.698947265625,0.04494684189558029,0.006364263594150543,-0.03999849781394005
1772555469202879200,2.708879150390625,0.044426329433918,-0.003806562162935734,-0.04151599854230881
1772555469212811000,2.71881103515625,0.04501941800117493,-0.008095582947134972,-0.03303409740328789
1772555469222743000,2.728742919921875,0.04798620566725731,0.006576946005225182,-0.024490203708410263
1772555469232675000,2.738675048828125,0.05208108201622963,0.032784316688776016,-0.019169211387634277
1772555469242607000,2.748607177734375,0.06194392964243889,0.06271102279424667,-0.017135927453637123
1772555469252538000,2.7585380859375,0.07219469547271729,0.07358897477388382,-0.01760650798678398
1772555469262470000,2.768469970703125,0.08146116137504578,0.06442343443632126,-0.022495273500680923
1772555469272402200,2.778402099609375,0.08542314916849136,0.04205101728439331,-0.03274631127715111
1772555469282334200,2.788334228515625,0.08257170766592026,-0.00853073038160801,-0.04583888128399849
1772555469292266200,2.798266357421875,0.07487357407808304,-0.08224835991859436,-0.05978825315833092
1772555469302198300,2.8081982421875,0.057411566376686096,-0.15125426650047302,-0.07835359126329422
1772555469312130000,2.818130126953125,0.03347614035010338,-0.21277248859405518,-0.09836404770612717
1772555469322061000,2.82806103515625,0.004196446854621172,-0.23845799267292023,-0.11348769813776016
1772555469331993000,2.8379931640625,-0.021253785118460655,-0.24823792278766632,-0.13759863376617432
1772555469341925000,2.847925048828125,-0.04397091269493103,-0.24616633355617523,-0.16588973999023438
1772555469351857200,2.857857177734375,-0.06070062518119812,-0.2378641963005066,-0.19839681684970856
1772555469361789000,2.867788818359375,-0.06746899336576462,-0.2132854163646698,-0.2353658825159073
1772555469371721000,2.877720947265625,-0.0685339942574501,-0.17499738931655884,-0.26255249977111816
1772555469381652200,2.88765234375,-0.06277723610401154,-0.13231267035007477,-0.27897191047668457
1772555469391584300,2.897584228515625,-0.05415472015738487,-0.08759313076734543,-0.29022297263145447
1772555469401516300,2.907516357421875,-0.05059414356946945,-0.03785845637321472,-0.2890874445438385
1772555469411448000,2.917447998046875,-0.046035610139369965,0.0097519401460886,-0.26920560002326965
1772555469421380000,2.927380126953125,-0.04198615252971649,0.04961288720369339,-0.24460023641586304
1772555469431312100,2.93731201171875,-0.04135258495807648,0.0828336849808693,-0.2159494161605835
1772555469441243600,2.94724365234375,-0.04006380960345268,0.10782983899116516,-0.19458405673503876
1772555469451175700,2.95717578125,-0.04114052653312683,0.12106655538082123,-0.17457199096679688
1772555469461107500,2.967107421875,-0.03406978398561478,0.1172526627779007,-0.16311445832252502
1772555469471039500,2.97703955078125,-0.021476227790117264,0.10559387505054474,-0.15450072288513184
1772555469480971500,2.986971435546875,-0.003404893446713686,0.08256831765174866,-0.14450803399085999
1772555469490903600,2.996903564453125,0.016042839735746384,0.06703142821788788,-0.14068055152893066
1772555469500835600,3.006835693359375,0.025887776166200638,0.04286975413560867,-0.13509729504585266
1772555469510766600,3.0167666015625,0.026587121188640594,0.0133624617010355,-0.11958597600460052
1772555469520698600,3.02669873046875,0.036267854273319244,-0.021996282041072845,-0.09932705760002136
1772555469530630700,3.036630615234375,0.03426062688231468,-0.05909784510731697,-0.07075852900743484
1772555469540562700,3.046562744140625,0.040613725781440735,-0.09215198457241058,-0.03079192154109478
1772555469550494700,3.05649462890625,0.03883233666419983,-0.10194815695285797,0.011314254254102707
1772555469560426500,3.066426513671875,0.03791116923093796,-0.08861912041902542,0.05597853660583496
1772555469570357500,3.076357421875,0.023459261283278465,-0.06831091642379761,0.09038657695055008
1772555469580289500,3.08628955078125,0.003817263524979353,-0.044910069555044174,0.11671042442321777
1772555469590221600,3.0962216796875,-0.019026532769203186,-0.03358390927314758,0.1336827576160431
1772555469600153600,3.106153564453125,-0.04365598410367966,-0.023468565195798874,0.1368430107831955
1772555469610085400,3.11608544921875,-0.06854349374771118,-0.011721363291144371,0.12644842267036438
1772555469620017400,3.126017333984375,-0.08823812007904053,0.0045302752405405045,0.11652892827987671
1772555469629948700,3.13594873046875,-0.10229454934597015,0.015645509585738182,0.09803300350904465
1772555469639880700,3.145880615234375,-0.11316180229187012,0.027795733883976936,0.07740950584411621
1772555469649812700,3.155812744140625,-0.119223952293396,0.0371285155415535,0.056350018829107285
1772555469659744500,3.16574462890625,-0.11500700563192368,0.04703371226787567,0.040759697556495667
1772555469669676500,3.175676513671875,-0.11746297031641006,0.06586998701095581,0.022053388878703117
1772555469679608600,3.185608642578125,-0.12385865300893784,0.08438324183225632,0.018036603927612305
1772555469689540600,3.19554052734375,-0.13457894325256348,0.09566838294267654,0.030499931424856186
1772555469699471400,3.205471435546875,-0.14253100752830505,0.08886535465717316,0.05163579806685448
1772555469709403400,3.2154033203125,-0.13993708789348602,0.07436151057481766,0.0743754655122757
1772555469719335700,3.225335693359375,-0.12717443704605103,0.04690159484744072,0.09754875302314758
1772555469729267700,3.235267822265625,-0.11064498871564865,-0.009314005263149738,0.11211571842432022
1772555469739199700,3.24519970703125,-0.08798848092556,-0.08568553626537323,0.11177393794059753
1772555469749131800,3.2551318359375,-0.06432469934225082,-0.15567658841609955,0.09364500641822815
1772555469759062500,3.2650625,-0.03987901657819748,-0.18885120749473572,0.0603785365819931
1772555469768994600,3.27499462890625,-0.013357392512261868,-0.18605196475982666,0.022947009652853012
1772555469778926600,3.284926513671875,0.013632221147418022,-0.1446356177330017,-0.014509339816868305
1772555469788858600,3.294858642578125,0.03022105060517788,-0.072084441781044,-0.03828790411353111
1772555469798790700,3.304790771484375,0.034066226333379745,0.017590085044503212,-0.04249581694602966
1772555469808722400,3.314722412109375,0.026545461267232895,0.10274146497249603,-0.032039180397987366
1772555469818653700,3.32465380859375,0.024968015030026436,0.16893598437309265,0.0020044026896357536
1772555469828585700,3.334585693359375,0.03454101085662842,0.20658108592033386,0.044468242675065994
1772555469838517800,3.344517822265625,0.049140192568302155,0.2115207314491272,0.07992450147867203
1772555469848449800,3.35444970703125,0.07013815641403198,0.18560390174388885,0.10566101968288422
1772555469858381600,3.364381591796875,0.08957066386938095,0.1353185474872589,0.10737714916467667
1772555469868313600,3.374313720703125,0.11310421675443649,0.08100390434265137,0.0781974270939827
1772555469878245600,3.38424560546875,0.11531899869441986,0.04312373697757721,0.022157415747642517
1772555469888176600,3.3941767578125,0.11151333898305893,0.01153918169438839,-0.0381927452981472
1772555469898108400,3.4041083984375,0.09080452471971512,-0.02342112921178341,-0.08648538589477539
1772555469908040400,3.41404052734375,0.06669972091913223,-0.055346302688121796,-0.11153534799814224
1772555469917972500,3.423972412109375,0.046088214963674545,-0.07480351626873016,-0.1057257205247879
1772555469927904500,3.433904541015625,0.02843385562300682,-0.07313823699951172,-0.0763835459947586
1772555469937836500,3.44383642578125,0.005148501601070166,-0.05948302149772644,-0.030096067115664482
1772555469947767600,3.453767578125,-0.019491329789161682,-0.03114485740661621,0.01967628300189972
1772555469957699600,3.463699462890625,-0.04310981556773186,0.014365747570991516,0.07013513147830963
1772555469967631600,3.473631591796875,-0.06194102764129639,0.05855531245470047,0.10150983184576035
1772555469977563600,3.483563720703125,-0.07383715361356735,0.08110620081424713,0.1205023005604744
1772555469987495700,3.49349560546875,-0.0848461240530014,0.08758807182312012,0.1221848875284195
1772555469997427700,3.503427734375,-0.07545284181833267,0.07909394800662994,0.11645516008138657
1772555470007358500,3.5133583984375,-0.05052752047777176,0.047128017991781235,0.10221071541309357
1772555470017290500,3.52329052734375,-0.02091738022863865,-0.0007255002856254578,0.07561139762401581
1772555470027222500,3.533222412109375,0.008892446756362915,-0.04803043231368065,0.04142946004867554
1772555470037154600,3.543154541015625,0.0362345390021801,-0.09194444119930267,0.0017906920984387398
1772555470047086600,3.553086669921875,0.05436773598194122,-0.12315988540649414,-0.032083652913570404
1772555470057018600,3.5630185546875,0.06428714096546173,-0.15302856266498566,-0.06389952450990677
1772555470066950700,3.57295068359375,0.06837829202413559,-0.17442306876182556,-0.0821285992860794
1772555470076881700,3.582881591796875,0.06116833910346031,-0.18044930696487427,-0.09249913692474365
1772555470086813700,3.592813720703125,0.0539194792509079,-0.1591181755065918,-0.09102081507444382
1772555470096745500,3.602745361328125,0.043610624969005585,-0.11339806020259857,-0.07948913425207138
1772555470106677500,3.612677490234375,0.03311511129140854,-0.045607831329107285,-0.059291720390319824
1772555470116609500,3.622609619140625,0.02300482615828514,0.010885382071137428,-0.034618135541677475
1772555470126541600,3.63254150390625,0.00948315765708685,0.045894231647253036,-0.009126358665525913
1772555470136472600,3.64247265625,-0.0038002743385732174,0.06795033067464828,0.015642045065760612
1772555470146404600,3.652404541015625,-0.014704320579767227,0.07710015028715134,0.04160839691758156
1772555470156336600,3.662336669921875,-0.017810996621847153,0.08399896323680878,0.06193888187408447
1772555470166268700,3.6722685546875,-0.021201999858021736,0.09869535267353058,0.07146341353654861
1772555470176200700,3.68220068359375,-0.0238630510866642,0.0981488972902298,0.06664220988750458
1772555470186132700,3.6921328125,-0.020028099417686462,0.0744321197271347,0.06065782159566879
1772555470196063500,3.7020634765625,-0.011669519357383251,0.03471023589372635,0.045491114258766174
1772555470205995500,3.71199560546875,0.004926768131554127,-0.025377336889505386,0.027330484241247177
1772555470215927600,3.721927490234375,0.022147387266159058,-0.07910731434822083,0.008322007954120636
1772555470225859600,3.731859619140625,0.04239193722605705,-0.11026602983474731,-0.020021483302116394
1772555470235791600,3.74179150390625,0.0576012022793293,-0.11318947374820709,-0.038479335606098175
1772555470245723400,3.751723388671875,0.058779116719961166,-0.10412326455116272,-0.05386308580636978
1772555470255655400,3.761655517578125,0.048183079808950424,-0.07554842531681061,-0.04871189594268799
1772555470265586700,3.771586669921875,0.030739909037947655,-0.02537660300731659,-0.035767339169979095
1772555470275518700,3.781518798828125,0.008343325927853584,0.020749401301145554,-0.011349781416356564
1772555470285450800,3.79145068359375,-0.009919567033648491,0.055045321583747864,0.016653623431921005
1772555470295382500,3.801382568359375,-0.022504819557070732,0.06984373927116394,0.04464032128453255
1772555470305314600,3.811314453125,-0.02520180121064186,0.06753531098365784,0.05946986749768257
1772555470315246600,3.82124658203125,-0.017062406986951828,0.04143248498439789,0.05735192447900772
1772555470325177600,3.831177490234375,-0.004836367443203926,-0.0052386121824383736,0.03594357520341873
1772555470335109600,3.841109619140625,0.009589781053364277,-0.05546637251973152,0.0021434202790260315
1772555470345041400,3.85104150390625,0.029047902673482895,-0.10058192163705826,-0.04138648137450218
1772555470354973400,3.860973388671875,0.04670560359954834,-0.12474758177995682,-0.08317984640598297
1772555470364905500,3.870905517578125,0.060154564678668976,-0.12667012214660645,-0.11284320056438446
1772555470374837800,3.880837646484375,0.07079668343067169,-0.11666880548000336,-0.12610450387001038
1772555470384768500,3.8907685546875,0.07600715756416321,-0.10227282345294952,-0.11985726654529572
1772555470394700500,3.900700439453125,0.06564643979072571,-0.09527729451656342,-0.10398491472005844
1772555470404632600,3.910632568359375,0.04623652249574661,-0.10025820136070251,-0.08189266175031662
1772555470414564600,3.920564697265625,0.021000120788812637,-0.11570057272911072,-0.05516254901885986
1772555470424496600,3.93049658203125,-0.011281918734312057,-0.12490818649530411,-0.031114209443330765
1772555470434428700,3.9404287109375,-0.0400460883975029,-0.13344836235046387,-0.01374891959130764
1772555470444359200,3.950359130859375,-0.06839171051979065,-0.12975962460041046,0.0018311049789190292
1772555470454291200,3.960291259765625,-0.08779479563236237,-0.11180129647254944,0.014119969680905342
1772555470464223200,3.97022314453125,-0.10969476401805878,-0.08409883081912994,0.023243427276611328
1772555470474155300,3.9801552734375,-0.13774842023849487,-0.059192121028900146,0.022996194660663605
1772555470484087300,3.99008740234375,-0.16699764132499695,-0.02611512690782547,0.019275225698947906
1772555470494019000,4.00001904296875,-0.18621012568473816,0.010442661121487617,0.017223402857780457
1772555470503951000,4.009951171875,-0.20262186229228973,0.04896368831396103,0.019815457984805107
1772555470513882000,4.019882080078125,-0.2103249728679657,0.08211091160774231,0.03144649416208267
1772555470523814100,4.029814208984375,-0.21516527235507965,0.10882614552974701,0.03895794227719307
1772555470533746200,4.03974609375,-0.21158769726753235,0.135294571518898,0.044649094343185425
1772555470543678000,4.049677978515625,-0.20725686848163605,0.15593698620796204,0.03939308226108551
1772555470553610000,4.05960986328125,-0.19834579527378082,0.17164716124534607,0.019322000443935394
1772555470563542000,4.0695419921875,-0.18871793150901794,0.1843925267457962,-0.005880025215446949
1772555470573473300,4.079473388671875,-0.17612206935882568,0.17920291423797607,-0.029972869902849197
1772555470583405000,4.089405029296875,-0.15978091955184937,0.1554507166147232,-0.043978434056043625
1772555470593337000,4.099337158203125,-0.1286569982767105,0.11308198422193527,-0.04784942418336868
1772555470603269000,4.10926904296875,-0.09095142036676407,0.07450875639915466,-0.04879005253314972
1772555470613201200,4.119201171875,-0.050319310277700424,0.03364381939172745,-0.04906590282917023
1772555470623133200,4.12913330078125,-0.011192413046956062,-0.002911793999373913,-0.05293893441557884
1772555470633064000,4.13906396484375,0.026030324399471283,-0.02119300328195095,-0.05901126563549042
1772555470642996000,4.148995849609375,0.0528520829975605,-0.030421655625104904,-0.0600549578666687
1772555470652928000,4.158927978515625,0.08077813684940338,-0.040030546486377716,-0.05742460489273071
1772555470662860000,4.168860107421875,0.09789401292800903,-0.050969213247299194,-0.0510905459523201
1772555470672792300,4.178792236328125,0.11479798704385757,-0.06261178851127625,-0.04840265214443207
1772555470682724400,4.188724365234375,0.13132929801940918,-0.06877593696117401,-0.0538935586810112
1772555470692655000,4.198655029296875,0.14521758258342743,-0.07088180631399155,-0.06383255124092102
1772555470702587100,4.208587158203125,0.15680313110351562,-0.056111909449100494,-0.08400893211364746
1772555470712519200,4.218519287109375,0.16608205437660217,-0.03308515250682831,-0.10026289522647858
1772555470722451200,4.228451171875,0.1722874641418457,-0.006184029392898083,-0.1051119789481163
1772555470732383200,4.23838330078125,0.16467924416065216,0.003085825592279434,-0.09721879661083221
1772555470742315000,4.24831494140625,0.15839630365371704,0.001629609614610672,-0.07991277426481247
1772555470752247000,4.2582470703125,0.14604882895946503,0.007370585575699806,-0.0638243556022644
1772555470762178300,4.26817822265625,0.1346036195755005,0.013130735605955124,-0.049316518008708954
1772555470772110300,4.2781103515625,0.12088839709758759,0.017448274418711662,-0.04016076773405075
1772555470782042000,4.2880419921875,0.11033614724874496,0.027949651703238487,-0.03348661959171295
1772555470791974100,4.29797412109375,0.1020621508359909,0.019985631108283997,-0.024705730378627777
1772555470801906200,4.30790625,0.08532977104187012,0.001818876713514328,-0.015630211681127548
1772555470811838200,4.317838134765625,0.06859814375638962,-0.01512923650443554,-0.00254084262996912
1772555470821769200,4.327769287109375,0.055040258914232254,-0.03214284032583237,0.012372326105833054
1772555470831701000,4.337700927734375,0.0397895947098732,-0.04476974159479141,0.025220118463039398
1772555470841633000,4.347633056640625,0.02921285293996334,-0.039729177951812744,0.0303962379693985
1772555470851565000,4.35756494140625,0.018103256821632385,-0.027179744094610214,0.03328365087509155
1772555470861497000,4.3674970703125,0.0023005916737020016,-0.01398138515651226,0.038589730858802795
1772555470871429000,4.37742919921875,-0.022703636437654495,-0.0021832454949617386,0.03718124330043793
1772555470881360100,4.387360107421875,-0.04431838542222977,0.002826159819960594,0.04657873511314392
1772555470891292200,4.397292236328125,-0.05945266783237457,0.007642082870006561,0.05690968036651611
1772555470901224200,4.40722412109375,-0.06910236924886703,0.0025969911366701126,0.07543196529150009
1772555470911156200,4.41715625,-0.07433158159255981,-0.0025698943063616753,0.08625571429729462
1772555470921088300,4.427088134765625,-0.07329241186380386,-0.00048224255442619324,0.08239173889160156
1772555470931020000,4.43702001953125,-0.0675816535949707,0.003195900470018387,0.07534658908843994
1772555470940951000,4.446950927734375,-0.06320954114198685,0.015949776396155357,0.07104985415935516
1772555470950883000,4.456883056640625,-0.05090796574950218,0.026392661035060883,0.0650278776884079
1772555470960815000,4.466815185546875,-0.042268671095371246,0.02181468904018402,0.06124912202358246
1772555470970747100,4.4767470703125,-0.03444001451134682,0.01334228366613388,0.06005030870437622
1772555470980679000,4.486678955078125,-0.022657126188278198,-0.004503559321165085,0.05035240948200226
1772555470990611200,4.496611083984375,-0.020054299384355545,-0.021350108087062836,0.03736114501953125
1772555471000542200,4.506542236328125,-0.01641748659312725,-0.021637195721268654,0.028351403772830963
1772555471010474200,4.51647412109375,-0.015611758455634117,-0.028043149039149284,0.018991414457559586
1772555471020406300,4.52640625,-0.006352213677018881,-0.03877115994691849,0.01333033386617899
1772555471030338000,4.536338134765625,-0.008535110391676426,-0.04840897023677826,0.007911895401775837
1772555471040270000,4.54627001953125,-0.009489054791629314,-0.05945150554180145,-0.000001953914761543274
1772555471050202000,4.5562021484375,-0.011240420863032341,-0.06679463386535645,0.0008021676912903786
1772555471060133000,4.566133056640625,-0.013024207204580307,-0.06420497596263885,-0.0007680319249629974
1772555471070065000,4.57606494140625,-0.013595117256045341,-0.047445379197597504,0.002908027730882168
1772555471079997200,4.5859970703125,-0.013574611395597458,-0.027777403593063354,0.004918980877846479
1772555471089929200,4.59592919921875,-0.008953929878771305,-0.016725976020097733,0.011172964237630367
1772555471099861200,4.605861328125,-0.010066598653793335,-0.018110286444425583,0.019258055835962296
1772555471109793300,4.615793212890625,-0.005234994925558567,-0.02435816265642643,0.02061975933611393
1772555471119724000,4.62572412109375,0.0066871787421405315,-0.03556927293539047,0.01694060117006302
1772555471129656000,4.635656005859375,0.018537156283855438,-0.050299450755119324,0.0007626106962561607
1772555471139588000,4.645588134765625,0.02179819718003273,-0.06517906486988068,-0.019357837736606598
1772555471149520100,4.65552001953125,0.021641097962856293,-0.07328401505947113,-0.02616148255765438
1772555471159452200,4.6654521484375,0.016461782157421112,-0.08420164883136749,-0.024191806092858315
1772555471169384200,4.67538427734375,0.00429433211684227,-0.091729074716568,-0.011428341269493103
1772555471179315200,4.685315185546875,-0.006167896091938019,-0.09445108473300934,0.009537925943732262
1772555471189247200,4.695247314453125,-0.020470358431339264,-0.09320904314517975,0.026757292449474335
1772555471199179300,4.70517919921875,-0.028961047530174255,-0.08185918629169464,0.04128909856081009
1772555471209111300,4.715111328125,-0.034789472818374634,-0.06692514568567276,0.04723883792757988
1772555471219043000,4.72504296875,-0.039243344217538834,-0.04725131019949913,0.0545249804854393
1772555471228975000,4.73497509765625,-0.04539461433887482,-0.03099813684821129,0.05002133920788765
1772555471238906000,4.744906005859375,-0.047798652201890945,-0.011195670813322067,0.034162744879722595
1772555471248838100,4.754838134765625,-0.04489101096987724,0.005248548462986946,0.011693389154970646
1772555471258770200,4.764770263671875,-0.043766092509031296,0.010577801614999771,-0.0075567374005913734
1772555471268702000,4.774701904296875,-0.04271581396460533,0.011573297902941704,-0.022426920011639595
1772555471278634000,4.784634033203125,-0.03319448232650757,0.013848703354597092,-0.02932344190776348
1772555471288566000,4.79456591796875,-0.024741463363170624,0.001857209950685501,-0.025990132242441177
1772555471298497300,4.804497314453125,-0.016265153884887695,-0.0023503173142671585,-0.016658147796988487
1772555471308429300,4.81442919921875,-0.004275384359061718,-0.003410870209336281,0.004570426885038614
1772555471318361000,4.824361083984375,0.0073658255860209465,-0.012366015464067459,0.028522897511720657
1772555471328293000,4.834293212890625,0.018029823899269104,-0.0376875214278698,0.046077627688646317
1772555471338225200,4.84422509765625,0.019664205610752106,-0.060301221907138824,0.0496598444879055
1772555471348157200,4.8541572265625,0.02607797086238861,-0.0768420547246933,0.03283276408910751
1772555471358088000,4.864087890625,0.03009241819381714,-0.09388601779937744,0.014068130403757095
1772555471368020000,4.87402001953125,0.03335009515285492,-0.0890217125415802,0.0011705802753567696
1772555471377952000,4.883951904296875,0.04296224191784859,-0.08430685102939606,0.012175294570624828
1772555471387884000,4.893884033203125,0.05657649040222168,-0.08128246665000916,0.031144164502620697
1772555471397816000,4.903816162109375,0.059315286576747894,-0.0752141922712326,0.045697011053562164
1772555471407748000,4.913748046875,0.05273977294564247,-0.07272423803806305,0.0498688779771328
1772555471417680100,4.92368017578125,0.03708411380648613,-0.06883256137371063,0.04410073906183243
1772555471427611100,4.933611083984375,0.02372974157333374,-0.06316473335027695,0.034360773861408234
1772555471437543200,4.943543212890625,0.013049665838479996,-0.050215113908052444,0.015729829668998718
1772555471447475700,4.953475830078125,0.007167710456997156,-0.029318194836378098,0.003029928542673588
1772555471457407700,4.96340771484375,0.00020594103261828423,-0.0007957387715578079,-0.0026556532829999924
1772555471467339800,4.97333984375,0.00046605756506323814,0.02266118675470352,-0.003947229124605656
1772555471477270500,4.9832705078125,0.00009241607040166855,0.0448615625500679,-0.006606661714613438
1772555471487202600,4.99320263671875,0.005575211253017187,0.06250552088022232,-0.00283797737210989
1772555471497134600,5.003134521484375,0.012604892253875732,0.058875635266304016,0.004809555597603321
1772555471507066600,5.013066650390625,0.019481658935546875,0.0374721959233284,0.004095066338777542
1772555471516998700,5.02299853515625,0.022356273606419563,0.00780964270234108,0.00369079876691103
1772555471526930700,5.0329306640625,0.017131272703409195,-0.013911227695643902,-0.006528163328766823
1772555471536861700,5.04286181640625,0.01000145822763443,-0.017799975350499153,-0.023327117785811424
1772555471546793700,5.052793701171875,0.0057397945784032345,-0.012963401153683662,-0.0330619253218174
1772555471556725800,5.062725830078125,0.0026004607789218426,-0.0017741303890943527,-0.045984115451574326
1772555471566657800,5.07265771484375,0.004011332523077726,0.01772521436214447,-0.05035579949617386
1772555471576589800,5.08258984375,0.008184505626559258,0.0419171042740345,-0.051575787365436554
1772555471586521600,5.092521484375,0.005544585641473532,0.06535983830690384,-0.050430744886398315
1772555471596452600,5.10245263671875,0.004567205440253019,0.07797310501337051,-0.043752603232860565
1772555471606384600,5.112384521484375,-0.0005788924172520638,0.07035913318395615,-0.03554942458868027
1772555471616316700,5.122316650390625,-0.00804533064365387,0.06531350314617157,-0.02340673841536045
1772555471626248700,5.132248779296875,-0.012089777737855911,0.06024940311908722,-0.011355905793607235
1772555471636180700,5.1421806640625,-0.01539236307144165,0.04935894161462784,-0.002383716404438019
1772555471646112800,5.15211279296875,-0.013622402213513851,0.04672658443450928,-0.0019380291923880577
1772555471656043800,5.162043701171875,-0.012252205982804298,0.052972495555877686,-0.010972537100315094
1772555471665975800,5.171975830078125,-0.008671198040246964,0.059865839779376984,-0.027009867131710052
1772555471675907600,5.181907470703125,-0.011411324143409729,0.06208478659391403,-0.04894552752375603
1772555471685839600,5.191839599609375,-0.010756164789199829,0.05260762944817543,-0.055381231009960175
1772555471695771600,5.201771728515625,-0.0049741752445697784,0.0348518006503582,-0.054006241261959076
1772555471705703700,5.21170361328125,-0.003287011059001088,0.02042355015873909,-0.04773517698049545
1772555471715635000,5.221635009765625,-0.009201359003782272,0.009202854707837105,-0.03265342861413956
1772555471725566700,5.231566650390625,-0.008596843108534813,-0.003285478800535202,-0.007377711124718189
1772555471735498800,5.241498779296875,-0.005527283530682325,-0.010505042038857937,0.014175251126289368
1772555471745430800,5.2514306640625,-0.0038080005906522274,-0.008842326700687408,0.030284259468317032
1772555471755362800,5.26136279296875,0.001985173672437668,0.008254900574684143,0.03272771090269089
1772555471765294800,5.271294921875,0.00575899425894022,0.027546320110559464,0.025324344635009766
1772555471775225600,5.2812255859375,0.010454414412379265,0.034055884927511215,0.014317233115434647
1772555471785157600,5.29115771484375,0.015361021272838116,0.031124338507652283,0.0035185967572033405
1772555471795089700,5.301089599609375,0.01649712398648262,0.021013647317886353,-0.0069742584601044655
1772555471805021700,5.311021728515625,0.017262741923332214,0.01003715954720974,-0.01230362243950367
1772555471814953700,5.32095361328125,0.01632770523428917,-0.0026597268879413605,-0.011298011988401413
1772555471824885500,5.330885498046875,0.02148723602294922,-0.0070196595042943954,-0.007792286574840546
1772555471834816800,5.340816650390625,0.030408825725317,-0.004709633998572826,-0.004009532742202282
1772555471844748800,5.350748779296875,0.035423438996076584,-0.005644744262099266,0.0016915928572416306
1772555471854680800,5.360680908203125,0.032394889742136,-0.004839404486119747,0.006923905573785305
1772555471864612900,5.37061279296875,0.03853033110499382,-0.0017591100186109543,0.006669588852673769
1772555471874544600,5.380544677734375,0.04219324141740799,0.0000339951366186142,0.016309965401887894
1772555471884476700,5.3904765625,0.0403796061873436,0.005289774388074875,0.016696836799383163
1772555471894407700,5.40040771484375,0.04217670485377312,0.007982229813933372,0.014361776411533356
1772555471904339700,5.410339599609375,0.03552093356847763,-0.002937672659754753,0.01048544142395258
1772555471914271700,5.420271728515625,0.032780539244413376,-0.013954104855656624,0.003420874010771513
1772555471924203500,5.43020361328125,0.03273994103074074,-0.017119143158197403,-0.0043151965364813805
1772555471934135600,5.440135498046875,0.032780952751636505,-0.013194709084928036,-0.004219588823616505
1772555471944067800,5.45006787109375,0.03022448904812336,-0.02079639956355095,0.0005514957010746002
1772555471953998800,5.459998779296875,0.029776813462376595,-0.0261048786342144,0.004030649550259113
1772555471963930600,5.4699306640625,0.029917573556303978,-0.01595478691160679,0.007653388194739819
1772555471973862700,5.479862548828125,0.02397419512271881,-0.009212728589773178,0.006423274055123329
1772555471983794700,5.489794677734375,0.02155020833015442,-0.005168952979147434,0.000966489315032959
1772555471993726700,5.499726806640625,0.020962446928024292,-0.007460069842636585,-0.00040104426443576813
1772555472003658800,5.50965869140625,0.01626887172460556,-0.015163562260568142,-0.009435051120817661
1772555472013589500,5.519589599609375,0.012523667886853218,-0.02312481589615345,-0.01171551551669836
1772555472023521500,5.529521484375,0.010309513658285141,-0.036141157150268555,-0.016628891229629517
1772555472033453800,5.539453857421875,0.00945783406496048,-0.038850389420986176,-0.015962567180395126
1772555472043385900,5.5493857421875,0.006152489222586155,-0.032990600913763046,-0.01599610224366188
1772555472053318000,5.55931787109375,0.001822988037019968,-0.020236454904079437,-0.020339183509349823
1772555472063250000,5.56925,-0.01060593593865633,-0.001976143568754196,-0.018029410392045975
1772555472073180700,5.5791806640625,-0.014761798083782196,0.007717497646808624,-0.012510541826486588
1772555472083112700,5.58911279296875,-0.02254725992679596,0.009442662820219994,0.0004018843173980713
1772555472093044700,5.599044677734375,-0.022404514253139496,0.014553269371390343,0.012713944539427757
1772555472102976800,5.608976806640625,-0.02297801524400711,0.019175702705979347,0.018815292045474052
1772555472112908500,5.618908447265625,-0.02333434671163559,0.014351651072502136,0.01706160046160221
1772555472122840600,5.628840576171875,-0.02448003739118576,0.006508048623800278,0.00990174151957035
1772555472132771800,5.638771728515625,-0.021841377019882202,0.0016789399087429047,-0.004060679115355015
1772555472142703900,5.648703857421875,-0.021015018224716187,-0.006630954332649708,-0.01291198842227459
1772555472152636000,5.658635986328125,-0.014206115156412125,-0.012477925047278404,-0.01958800107240677
1772555472162567700,5.668567626953125,-0.007303711026906967,-0.016870899125933647,-0.026607688516378403
1772555472172499700,5.678499755859375,-0.002144102705642581,-0.01755479909479618,-0.02425132319331169
1772555472182431700,5.688431640625,-0.005509807262569666,-0.01376319583505392,-0.02427242137491703
1772555472192362800,5.69836279296875,-0.00948936864733696,-0.017445813864469528,-0.022296356037259102
1772555472202294800,5.708294677734375,-0.01762142777442932,-0.016974007710814476,-0.020648740231990814
1772555472212226600,5.7182265625,-0.02381141483783722,-0.0151289701461792,-0.018290776759386063
1772555472222158600,5.72815869140625,-0.027624964714050293,-0.0159317459911108,-0.008233320899307728
1772555472232090600,5.738090576171875,-0.03085964173078537,-0.016973307356238365,-0.0004142792895436287
1772555472242022700,5.748022705078125,-0.030985873192548752,-0.01905297115445137,0.009146468713879585
1772555472251953700,5.75795361328125,-0.04143132269382477,-0.023358236998319626,0.013026162050664425
1772555472261885700,5.7678857421875,-0.04680558294057846,-0.021777324378490448,0.01440935768187046
1772555472271817700,5.777817626953125,-0.04353948310017586,-0.022130193188786507,0.014637857675552368
1772555472281749800,5.787749755859375,-0.0374855101108551,-0.017191756516695023,0.014160344377160072
1772555472291681800,5.797681884765625,-0.03236744925379753,-0.011767163872718811,0.007371946703642607
1772555472301613800,5.80761376953125,-0.024627989158034325,-0.00003925524652004242,-0.00006576627492904663
1772555472311544600,5.817544677734375,-0.019448673352599144,0.010006720200181007,-0.0078001199290156364
1772555472321476600,5.8274765625,-0.01491253450512886,0.015394981950521469,-0.01545183826237917
1772555472331408600,5.83740869140625,-0.010647749528288841,0.01094297505915165,-0.013966592960059643
1772555472341340700,5.847340576171875,-0.008097624406218529,-0.0009679468348622322,-0.012025480158627033
1772555472351272700,5.857272705078125,-0.010896074585616589,-0.012911957688629627,-0.005878637544810772
1772555472361204700,5.867204833984375,-0.007888472639024258,-0.01984713226556778,0.0021877847611904144
1772555472371135700,5.8771357421875,-0.0057318443432450294,-0.017612474039196968,0.0064059654250741005
1772555472381067800,5.88706787109375,-0.007802063599228859,-0.010256540030241013,0.0036274450831115246
1772555472390999800,5.896999755859375,-0.005514674820005894,-0.0068144043907523155,-0.009935768321156502
1772555472400931800,5.906931884765625,-0.010957447811961174,-0.012344248592853546,-0.028784919530153275
1772555472410863600,5.916863525390625,-0.016361268237233162,-0.012532534077763557,-0.04889950901269913
1772555472420795600,5.926795654296875,-0.017887061461806297,-0.013354177586734295,-0.06069288030266762
1772555472430726700,5.9367265625,-0.020208539441227913,-0.018153727054595947,-0.05870748683810234
1772555472440658700,5.94665869140625,-0.025402799248695374,-0.022303450852632523,-0.047196291387081146
1772555472450590200,5.956590087890625,-0.023685060441493988,-0.011353597044944763,-0.02482920140028
1772555472460522200,5.966522216796875,-0.025720922276377678,-0.0015609338879585266,-0.004066384397447109
1772555472470454300,5.976454345703125,-0.03175458312034607,0.007296739146113396,0.012021771632134914
1772555472480386300,5.98638623046875,-0.037631042301654816,0.011032942682504654,0.010324635542929173
1772555472490317000,5.996317138671875,-0.04600774869322777,0.00023888424038887024,0.005946665070950985
1772555472500249000,6.0062490234375,-0.051535770297050476,-0.013527367264032364,-0.004202720709145069
1772555472510181000,6.01618115234375,-0.04858924821019173,-0.020929623395204544,-0.009240888990461826
1772555472520113200,6.026113037109375,-0.043217673897743225,-0.01725609414279461,-0.01364791952073574
1772555472530045200,6.036045166015625,-0.035515014082193375,-0.016747696325182915,-0.009549580514431
1772555472539977200,6.045977294921875,-0.030228979885578156,-0.018037598580121994,-0.005983608774840832
1772555472549908200,6.055908203125,-0.02568216435611248,-0.012975195422768593,0.0027899090200662613
1772555472559840300,6.06584033203125,-0.020780690014362335,-0.008561531081795692,0.0077110095880925655
1772555472569772300,6.075772216796875,-0.020666172727942467,-0.004042413085699081,0.011838909238576889
1772555472579704300,6.085704345703125,-0.019572870805859566,-0.0033900076523423195,0.015995249152183533
1772555472589636400,6.09563623046875,-0.020405909046530724,-0.008928317576646805,0.004428074695169926
1772555472599568100,6.105568115234375,-0.021217763423919678,-0.01434833649545908,-0.008226209320127964
1772555472609499100,6.1154990234375,-0.017650458961725235,-0.011046016588807106,-0.01810813695192337
1772555472619431200,6.12543115234375,-0.00961906649172306,-0.017854753881692886,-0.02128765359520912
1772555472629363200,6.13536328125,-0.004735894501209259,-0.023040728643536568,-0.01562817022204399
1772555472639295000,6.145294921875,0.003005164209753275,-0.022532839328050613,-0.00992467999458313
1772555472649227300,6.155227294921875,0.0020901025272905827,-0.03299693018198013,0.004254788625985384
1772555472659159300,6.1651591796875,0.003227273002266884,-0.036117151379585266,0.012243526987731457
1772555472669090300,6.17509033203125,-0.0023608379997313023,-0.037620507180690765,0.011529799550771713
1772555472679022300,6.185022216796875,-0.0031084849033504725,-0.031859397888183594,0.006024695932865143
1772555472688954000,6.1949541015625,-0.0033532294910401106,-0.016082298010587692,-0.005058314651250839
1772555472698886100,6.20488623046875,-0.0070605194196105,-0.004596183076500893,-0.009954240173101425
1772555472708818200,6.214818115234375,-0.003343545366078615,0.010068779811263084,-0.01732267439365387
1772555472718749200,6.224749267578125,-0.0072352951392531395,0.02474626526236534,-0.014910005033016205
1772555472728681200,6.23468115234375,-0.00883026234805584,0.0371968112885952,-0.0018341513350605965
1772555472738613200,6.24461328125,-0.009367567487061024,0.0343070924282074,0.0072399405762553215
1772555472748545300,6.254545166015625,-0.007155279628932476,0.024260053411126137,0.01574421301484108
1772555472758477300,6.264477294921875,-0.009783068671822548,0.012192713096737862,0.028752092272043228
1772555472768409300,6.274409423828125,-0.0057478477247059345,-0.008687801659107208,0.028570998460054398
1772555472778340000,6.284340087890625,-0.0015891753137111664,-0.024785414338111877,0.02666671760380268
1772555472788272000,6.294272216796875,0.0010372344404459,-0.021084686741232872,0.023315129801630974
1772555472798204200,6.3042041015625,0.0033615916036069393,-0.013455020263791084,0.01455539371818304
1772555472808136200,6.31413623046875,0.0019453228451311588,0.0012847762554883957,0.00772065669298172
1772555472818068200,6.324068115234375,0.0012846891768276691,0.01679232530295849,0.010408038273453712
1772555472828000300,6.334000244140625,0.00356222502887249,0.042509935796260834,0.011762254871428013
1772555472837931300,6.34393115234375,0.0061329505406320095,0.05480226129293442,0.022931508719921112
1772555472847863300,6.35386328125,0.0058136372826993465,0.04839815944433212,0.03862391784787178
1772555472857795300,6.36379541015625,0.0042683738283813,0.03554803133010864,0.05234098061919212
1772555472867727400,6.373727294921875,0.00916086696088314,0.02247404307126999,0.05068103224039078
1772555472877659400,6.383659423828125,0.010053317993879318,0.009272867813706398,0.03918249532580376
1772555472887591200,6.393591064453125,0.010196063667535782,-0.0021803220734000206,0.024779587984085083
1772555472897522200,6.403522216796875,0.013401225209236145,-0.011458691209554672,0.016287580132484436
1772555472907454200,6.4134541015625,0.01897016167640686,-0.01577114872634411,0.012427328154444695
1772555472917386200,6.42338623046875,0.023193765431642532,-0.016637902706861496,0.01693507842719555
1772555472927318300,6.433318359375,0.025488611310720444,-0.01262744888663292,0.020864306017756462
1772555472937250000,6.44325,0.025792453438043594,-0.01002485491335392,0.03431067615747452
1772555472947182000,6.45318212890625,0.02527979388833046,-0.00012854859232902527,0.04071984067559242
1772555472957113300,6.46311328125,0.022175760939717293,0.012332635000348091,0.043019261211156845
1772555472967045400,6.47304541015625,0.02228681370615959,0.029798708856105804,0.03933237865567207
1772555472976977200,6.48297705078125,0.020144836977124214,0.03517790511250496,0.034199777990579605
1772555472986909200,6.4929091796875,0.019371453672647476,0.03443807736039162,0.024163387715816498
1772555472996841200,6.50284130859375,0.015598114579916,0.025120504200458527,0.01977921463549137
1772555473006773200,6.512773193359375,0.016219431534409523,0.011752232909202576,0.017166387289762497
1772555473016704300,6.522704345703125,0.013998551294207573,-0.0011197393760085106,0.016806544736027718
1772555473026636000,6.532635986328125,0.015112284570932388,-0.014326355420053005,0.017510950565338135
1772555473036568000,6.542568115234375,0.012532210908830166,-0.010595941916108131,0.015271392650902271
1772555473046500000,6.5525,0.017018839716911316,0.003413083031773567,0.014320643618702888
1772555473056432000,6.56243212890625,0.015456481836736202,-0.005052229389548302,0.015909388661384583
1772555473066364400,6.572364501953125,0.011240699328482151,-0.009357228875160217,0.019108911976218224
1772555473076295200,6.582295166015625,0.00813743844628334,-0.013525654561817646,0.0172263290733099
1772555473086227200,6.592227294921875,0.00553233502432704,-0.008123432286083698,0.014150378294289112
1772555473096159200,6.6021591796875,0.001416927669197321,0.0023722369223833084,0.007876312360167503
1772555473106091300,6.61209130859375,0.0011977492831647396,0.025111369788646698,-0.0010229069739580154
1772555473116023300,6.622023193359375,0.002802691888064146,0.030487507581710815,0.0009363358840346336
1772555473125955000,6.631955078125,-0.004345765337347984,0.021595746278762817,0.006664794869720936
1772555473135886000,6.641885986328125,-0.008863745257258415,0.011593438684940338,0.017285369336605072
1772555473145818000,6.651818115234375,-0.012557017616927624,0.0047507137060165405,0.02504289150238037
1772555473155750400,6.66175048828125,-0.016271326690912247,0.0032941699028015137,0.03100815787911415
1772555473165682400,6.671682373046875,-0.013996454887092113,0.010447686538100243,0.025876780971884727
1772555473175614200,6.6816142578125,-0.0020865078549832106,0.021737534552812576,0.016452793031930923
1772555473185546200,6.691546142578125,0.008064130321145058,0.026584219187498093,0.0020658643916249275
1772555473195477200,6.701477294921875,0.00874408334493637,0.03195270523428917,-0.01112023089081049
1772555473205409300,6.7114091796875,0.014691988006234169,0.029028020799160004,-0.023450132459402084
1772555473215341300,6.72134130859375,0.018450580537319183,0.022361259907484055,-0.0298183411359787
1772555473225273000,6.731273193359375,0.022325746715068817,0.013794936239719391,-0.024360191076993942
1772555473235205000,6.741205078125,0.021387513726949692,0.0013808775693178177,-0.018189914524555206
1772555473245137200,6.75113720703125,0.01950306072831154,-0.015667615458369255,-0.01083532813936472
1772555473255068400,6.761068359375,0.021244719624519348,-0.026300571858882904,-0.001285569742321968
1772555473265000200,6.771000244140625,0.018988756462931633,-0.014864691533148289,0.00594038562849164
1772555473274932200,6.78093212890625,0.01901230961084366,0.02553233876824379,0.022432446479797363
1772555473284864300,6.7908642578125,0.015748340636491776,0.062025368213653564,0.04099281504750252
1772555473294796300,6.80079638671875,0.011378264054656029,0.060114651918411255,0.051964741200208664
1772555473304728300,6.810728271484375,0.0007980582304298878,0.04122751206159592,0.04959160089492798
1772555473314659000,6.8206591796875,-0.009892620146274567,0.016324583441019058,0.032830532640218735
1772555473324591000,6.830591064453125,-0.010262799449265003,-0.007159705273807049,0.009145176038146019
1772555473334523100,6.840523193359375,-0.010558531619608402,-0.01829546131193638,-0.002602517604827881
1772555473344455200,6.850455078125,-0.007819203659892082,-0.02161296084523201,-0.006854521110653877
1772555473354387200,6.86038720703125,0.008758971467614174,-0.02199559286236763,0.0061658876948058605
1772555473364319200,6.8703193359375,0.021950408816337585,-0.025632139295339584,0.02512865886092186
1772555473374250200,6.880250244140625,0.02565416321158409,-0.021627705544233322,0.04050317034125328
1772555473384182300,6.890182373046875,0.029639851301908493,-0.010268790647387505,0.05554337427020073
1772555473394114300,6.9001142578125,0.022980932146310806,-0.007554743438959122,0.0578039325773716
1772555473404046300,6.91004638671875,0.008164701983332634,-0.011060262098908424,0.04686952754855156
1772555473413978000,6.91997802734375,-0.00801695603877306,-0.0236944742500782,0.031007865443825722
1772555473423910100,6.92991015625,-0.026052415370941162,-0.03398173302412033,0.024282850325107574
1772555473433841200,6.939841064453125,-0.031424857676029205,-0.03949103504419327,0.018347129225730896
1772555473443772700,6.949772705078125,-0.03249598294496536,-0.03860819712281227,0.016637379303574562
1772555473453705000,6.959705078125,-0.03330686688423157,-0.03048020787537098,0.014698666520416737
1772555473463637000,6.969636962890625,-0.02436450496315956,-0.021201753988862038,0.014242732897400856
1772555473473569000,6.979569091796875,-0.010385209694504738,-0.008003165014088154,-0.0036239074543118477
1772555473483501000,6.9895009765625,-0.0016143550164997578,0.0058364830911159515,-0.021975750103592873
1772555473493431800,6.999431884765625,0.005416246131062508,0.01825934648513794,-0.045685119926929474
1772555473503363800,7.00936376953125,0.009955070912837982,0.012213705107569695,-0.05165486037731171
1772555473513296000,7.0192958984375,0.010789559222757816,0.0009990055114030838,-0.040327779948711395
1772555473523228000,7.029227783203125,0.005742070265114307,-0.01635867916047573,-0.024395955726504326
1772555473533159700,7.03915966796875,-0.011055913753807545,-0.027543652802705765,-0.0024919668212532997
1772555473543091000,7.049091064453125,-0.019670706242322922,-0.019364284351468086,0.009768428280949593
1772555473553023000,7.05902294921875,-0.023259706795215607,-0.00868635717779398,0.008949018083512783
1772555473562955000,7.068955078125,-0.028765525668859482,0.012036232277750969,0.004228831268846989
1772555473572887000,7.078886962890625,-0.0345386266708374,0.015510492026805878,-0.002198411151766777
1772555473582818800,7.08881884765625,-0.037097394466400146,0.009522374719381332,0.0024328259751200676
1772555473592750800,7.098750732421875,-0.03512580320239067,0.0048303790390491486,0.01372448168694973
1772555473602681900,7.108681884765625,-0.03963267430663109,-0.006523209623992443,0.026759855449199677
1772555473612614000,7.11861376953125,-0.042622581124305725,-0.0128670334815979,0.040690843015909195
1772555473622546000,7.1285458984375,-0.04287638142704964,-0.014714734628796577,0.044365204870700836
1772555473632477700,7.138477783203125,-0.04184863716363907,-0.014974462799727917,0.038676243275403976
1772555473642409700,7.14840966796875,-0.04358315467834473,-0.008806316182017326,0.032297972589731216
1772555473652341800,7.158341796875,-0.04359858110547066,-0.0026230178773403168,0.023532260209321976
1772555473662273000,7.16827294921875,-0.04149601235985756,0.01017853058874607,0.011621804907917976
1772555473672204800,7.178204833984375,-0.04025682061910629,0.023259684443473816,0.005454276222735643
1772555473682136800,7.18813671875,-0.039413932710886,0.03158046305179596,0.005672921892255545
1772555473692068900,7.19806884765625,-0.03739365562796593,0.03924071788787842,0.01169491559267044
1772555473702001000,7.2080009765625,-0.033700115978717804,0.041766196489334106,0.021306795999407768
1772555473711933000,7.217932861328125,-0.03188103437423706,0.04059625416994095,0.03261329233646393
1772555473721863700,7.22786376953125,-0.026384003460407257,0.03362463414669037,0.038479167968034744
1772555473731795700,7.237795654296875,-0.020101487636566162,0.023215800523757935,0.039258264005184174
1772555473741727700,7.247727783203125,-0.01496957615017891,0.006937496364116669,0.04073605313897133
1772555473751659800,7.25765966796875,-0.009002835489809513,0.003023393452167511,0.03315126150846481
1772555473761591800,7.267591796875,-0.0050837271846830845,0.007383788004517555,0.02970779687166214
1772555473771523800,7.27752392578125,0.003265258390456438,0.01441655121743679,0.02809160016477108
1772555473781454800,7.287454833984375,0.0038610068149864674,0.023934155702590942,0.025710733607411385
1772555473791387000,7.297386962890625,0.0032611661590635777,0.0250578410923481,0.022384680807590485
1772555473801319000,7.30731884765625,0.008149398490786552,0.020868957042694092,0.017983540892601013
1772555473811251000,7.3172509765625,0.010670782066881657,0.013633573427796364,-0.0022520367056131363
1772555473821182700,7.3271826171875,0.020480267703533173,0.008628161624073982,-0.02219085954129696
1772555473831114800,7.33711474609375,0.029344748705625534,0.009691158309578896,-0.03392353281378746
1772555473841045800,7.347045654296875,0.03751266375184059,0.00857582688331604,-0.04379747062921524
1772555473850977800,7.356977783203125,0.039098791778087616,0.012257562950253487,-0.03871670365333557
1772555473860909800,7.366909912109375,0.03564627096056938,0.013702860102057457,-0.02360592782497406
1772555473870841900,7.376841796875,0.026802081614732742,0.010932205244898796,-0.014212987385690212
1772555473880774000,7.38677392578125,0.007530118804425001,-0.0018989043310284615,-0.005687943659722805
1772555473890706000,7.396705810546875,-0.0010962001979351044,-0.021083181723952293,-0.0024028774350881577
1772555473900637000,7.406636962890625,-0.013548875227570534,-0.03813886642456055,-0.0021474799141287804
1772555473910569000,7.41656884765625,-0.016870442777872086,-0.05006789416074753,-0.007483330555260181
1772555473920500700,7.426500732421875,-0.014572400599718094,-0.05818840488791466,-0.0163484588265419
1772555473930432800,7.436432861328125,-0.011053276248276234,-0.055339179933071136,-0.024640869349241257
1772555473940364800,7.44636474609375,-0.006364781409502029,-0.03622008115053177,-0.03014376014471054
1772555473950296800,7.456296875,-0.0025047699455171824,-0.00681254081428051,-0.029152337461709976
1772555473960227800,7.466227783203125,0.0008593350648880005,0.012332923710346222,-0.017458133399486542
1772555473970159900,7.476159912109375,-0.007434016093611717,0.007923588156700134,-0.001983621157705784
1772555473980092000,7.486091796875,-0.00895095244050026,-0.00479540228843689,0.007492438890039921
1772555473990024000,7.49602392578125,-0.017419464886188507,-0.011490598320960999,0.014767552725970745
1772555473999956000,7.5059560546875,-0.02405792661011219,-0.008183218538761139,0.009983982890844345
1772555474009888000,7.515887939453125,-0.018901199102401733,-0.00023951753973960876,0.00022515933960676193
1772555474019818800,7.52581884765625,-0.01105579361319542,0.003939514979720116,-0.0085371732711792
1772555474029750800,7.535750732421875,-0.0025207011494785547,-0.008310220204293728,-0.026872390881180763
1772555474039682800,7.545682861328125,0.007379866670817137,-0.05063876882195473,-0.04896864295005798
1772555474049614800,7.55561474609375,0.007986122742295265,-0.10840265452861786,-0.07622698694467545
1772555474059547000,7.565546875,0.009177354164421558,-0.16602973639965057,-0.09840313345193863
1772555474069478700,7.575478759765625,0.05613360553979874,-0.2026231586933136,-0.12272647023200989
1772555474079410000,7.585409912109375,-0.04114660620689392,-0.22773383557796478,-0.15088966488838196
1772555474089342000,7.595342041015625,0.06441172957420349,-0.23271477222442627,-0.15546557307243347
1772555474099274000,7.60527392578125,-0.0337635762989521,-0.22014731168746948,-0.14532026648521423
1772555474109205800,7.615205810546875,0.08969611674547195,-0.198309987783432,-0.11664899438619614
1772555474119137800,7.6251376953125,-0.025714896619319916,-0.17324644327163696,-0.0919756069779396
1772555474129069800,7.63506982421875,0.09002160280942917,-0.14289000630378723,-0.06534136086702347
1772555474139000800,7.645000732421875,-0.0498657263815403,-0.09649746119976044,-0.048544276505708694
1772555474148932900,7.654932861328125,0.07149390131235123,-0.06527648121118546,-0.032120946794748306
1772555474158864600,7.66486474609375,-0.07312480360269547,-0.030855920165777206,-0.019063200801610947
1772555474168796700,7.674796630859375,0.06836022436618805,-0.0008015977218747139,-0.003899616189301014
1772555474178728700,7.684728759765625,-0.07003360241651535,0.021952450275421143,0.007074205204844475
1772555474188660700,7.69466064453125,0.043786272406578064,-0.02329176291823387,0.07786046713590622
1772555474198592000,7.704592041015625,-0.09174998849630356,0.0783965140581131,0.14321070909500122
1772555474208523800,7.714523681640625,0.04305080324411392,0.20219723880290985,0.1726364940404892
1772555474218455800,7.724455810546875,-0.11881373077630997,0.2608738839626312,0.18315385282039642
1772555474228387800,7.734387939453125,0.004529024939984083,0.23445314168930054,0.1765272319316864
1772555474238319900,7.74431982421875,-0.14980623126029968,0.2047959268093109,0.1611967384815216
1772555474248252000,7.754251953125,-0.017632493749260902,0.14787361025810242,0.1303020566701889
1772555474258182700,7.7641826171875,-0.15469180047512054,0.13968731462955475,0.09023347496986389
1772555474268114700,7.77411474609375,-0.0018236073665320873,0.10305416584014893,0.036659710109233856
1772555474278046700,7.784046630859375,-0.10188096761703491,0.10264191031455994,-0.020819829776883125
1772555474287979000,7.79397900390625,0.06893666088581085,0.06726328283548355,-0.08987374603748322
1772555474297911000,7.8039111328125,-0.0026001110672950745,0.06271301209926605,-0.13349738717079163
1772555474307842800,7.8138427734375,0.16608159244060516,0.047875113785266876,-0.1432047337293625
1772555474317773800,7.82377392578125,0.07529471069574356,0.08118326961994171,-0.11033493280410767
1772555474327705900,7.833705810546875,0.19002756476402283,0.09271474182605743,-0.06931634992361069
