time,seconds_elapsed,z,y,x
1772556126932362500,0.074362548828125,-0.044348713010549545,0.8267406821250916,-0.15162448585033417
1772556126942293800,0.084293701171875,-0.08333364874124527,0.6191899180412292,-0.21240144968032837
1772556126952224500,0.094224609375,-0.10284610092639923,0.41928955912590027,-0.26460951566696167
1772556126962156500,0.104156494140625,-0.08256994932889938,0.26090437173843384,-0.2906678020954132
1772556126972087600,0.114087646484375,-0.02977757155895233,0.18400532007217407,-0.2800481617450714
1772556126982018600,0.1240185546875,0.023301970213651657,0.16435843706130981,-0.2492317408323288
1772556126991949600,0.133949462890625,0.06175641715526581,0.1439189612865448,-0.20717883110046387
1772556127001880600,0.143880615234375,0.09148621559143066,0.07950717955827713,-0.16462968289852142
1772556127011811600,0.1538115234375,0.09780003130435944,-0.0209704227745533,-0.12714196741580963
1772556127021742600,0.16374267578125,0.11731484532356262,-0.09787514805793762,-0.07955095916986465
1772556127031674600,0.173674560546875,0.14701442420482635,-0.07901011407375336,-0.049460165202617645
1772556127041605400,0.18360546875,0.17529065907001495,0.03863712400197983,-0.035118959844112396
1772556127051536600,0.19353662109375,0.2022884637117386,0.1804792284965515,-0.014023528434336185
1772556127061467600,0.203467529296875,0.23023268580436707,0.313858300447464,-0.0005693286657333374
1772556127071398400,0.2133984375,0.2532879114151001,0.395712673664093,-0.0010665412992238998
1772556127081329700,0.22332958984375,0.2916771173477173,0.39766740798950195,-0.001279165968298912
1772556127091260400,0.233260498046875,0.33475401997566223,0.29032737016677856,-0.009459332562983036
1772556127101192400,0.2431923828125,0.3852617144584656,0.04818063974380493,-0.03384025767445564
1772556127111123500,0.25312353515625,0.4359741508960724,-0.2887100279331207,-0.11200137436389923
1772556127121054700,0.2630546875,0.46423572301864624,-0.664586067199707,-0.2338912934064865
1772556127130985500,0.2729853515625,0.5042776465415955,-0.9897148609161377,-0.36133792996406555
1772556127140916500,0.28291650390625,0.5662770867347717,-1.2267770767211914,-0.4584430158138275
1772556127150847500,0.292847412109375,0.6042692065238953,-1.3624686002731323,-0.5319033861160278
1772556127160778500,0.302778564453125,0.6206178069114685,-1.3974939584732056,-0.5702252984046936
1772556127170710500,0.31271044921875,0.8113640546798706,-1.2212424278259277,-0.4891214072704315
1772556127180641500,0.3226416015625,1.0455936193466187,-1.3190371990203857,-0.21868474781513214
1772556127190572500,0.332572509765625,1.0717991590499878,-1.4689191579818726,0.04110528528690338
1772556127200503600,0.342503662109375,0.9282954335212708,-1.4200067520141602,0.16273336112499237
1772556127210434600,0.3524345703125,0.7052786350250244,-1.1859928369522095,0.15893729031085968
1772556127220365600,0.362365478515625,0.5312730073928833,-0.9504011869430542,0.11381230503320694
1772556127230297600,0.372297607421875,0.43684640526771545,-0.7689586877822876,0.029491031542420387
1772556127240228600,0.382228515625,0.3547425866127014,-0.575495183467865,-0.07147108763456345
1772556127250159600,0.39215966796875,0.2571808695793152,-0.4097224473953247,-0.1680828481912613
1772556127260090600,0.402090576171875,0.1910233497619629,-0.2800181210041046,-0.22400261461734772
1772556127270021400,0.412021484375,0.12150579690933228,-0.1480848640203476,-0.2563003599643707
1772556127279952600,0.42195263671875,0.038606397807598114,0.058740269392728806,-0.28026044368743896
1772556127289883600,0.431883544921875,-0.011037588119506836,0.38770776987075806,-0.275513619184494
1772556127299815700,0.441815673828125,-0.03100646287202835,0.7477721571922302,-0.20705264806747437
1772556127309746400,0.451746337890625,-0.011478301137685776,0.9317004680633545,-0.0836833268404007
1772556127319677700,0.461677734375,0.07987453788518906,0.9524843096733093,0.05635884404182434
1772556127329608400,0.4716083984375,0.20630569756031036,0.8213329911231995,0.1501242220401764
1772556127339539500,0.48153955078125,0.2865540385246277,0.5737482309341431,0.1368747502565384
1772556127349470700,0.491470703125,0.2755775451660156,0.22311782836914062,0.036791831254959106
1772556127359402800,0.50140283203125,0.2070228010416031,-0.14164409041404724,-0.11402811110019684
1772556127369333500,0.51133349609375,0.1029461994767189,-0.3900850713253021,-0.32703521847724915
1772556127379264500,0.521264404296875,-0.054426178336143494,-0.36387932300567627,-0.5727217197418213
1772556127389195800,0.53119580078125,-0.2321399748325348,-0.26522329449653625,-0.8207474946975708
1772556127399126800,0.541126708984375,-0.2853732705116272,-0.26139459013938904,-0.9718580842018127
1772556127409057500,0.5510576171875,-0.23665712773799896,-0.5726100206375122,-0.9807530641555786
1772556127418988800,0.56098876953125,-0.16138878464698792,-1.061121940612793,-0.9142600297927856
1772556127428920800,0.5709208984375,-0.0611087828874588,-1.5133554935455322,-0.8822075724601746
1772556127438851600,0.5808515625,0.1547509729862213,-1.873657464981079,-0.9140033721923828
1772556127448782600,0.590782470703125,0.48447322845458984,-2.096745729446411,-0.9990828037261963
1772556127458713900,0.6007138671875,0.7631462216377258,-1.955728530883789,-1.1015292406082153
1772556127468644600,0.61064453125,0.8234524130821228,-1.5152291059494019,-1.0690258741378784
1772556127478575600,0.62057568359375,0.6218371987342834,-1.0034713745117188,-0.8410519361495972
1772556127488507600,0.630507568359375,0.24594932794570923,-0.8371868133544922,-0.631481409072876
1772556127498438700,0.640438720703125,0.029534904286265373,-0.6247162222862244,-0.09423993527889252
1772556127508369700,0.65036962890625,-0.08052182197570801,-0.2599632740020752,0.4813762307167053
1772556127518300700,0.66030078125,-0.19097939133644104,-0.039615847170352936,1.0092905759811401
1772556127528231700,0.670231689453125,-0.26566508412361145,0.2906794846057892,1.4070051908493042
1772556127538162700,0.68016259765625,-0.2949317395687103,0.8353213667869568,1.5660700798034668
1772556127548093400,0.690093505859375,-0.24028286337852478,1.9359123706817627,1.3781204223632812
1772556127558025500,0.700025390625,-0.049205176532268524,3.3529179096221924,1.0266311168670654
1772556127567956700,0.709956787109375,0.08337310701608658,4.234866619110107,0.6696504950523376
1772556127577887700,0.7198876953125,0.030764034017920494,4.439236640930176,0.14040179550647736
1772556127587818500,0.729818603515625,-0.30543607473373413,4.005728721618652,-0.6480536460876465
1772556127597749800,0.739749755859375,-1.099997878074646,3.125377893447876,-1.5376365184783936
1772556127607680500,0.749680419921875,-2.151388645172119,2.424036979675293,-2.1690564155578613
1772556127617611500,0.759611572265625,-2.876554489135742,1.888363242149353,-2.4394781589508057
1772556127627543800,0.769543701171875,-3.042806625366211,0.9164775013923645,-2.3223729133605957
1772556127637474800,0.779474853515625,-2.848386526107788,0.3634427785873413,-1.9948476552963257
1772556127647405600,0.789405517578125,-2.2065305709838867,-0.2104625403881073,-1.4916735887527466
1772556127657336800,0.7993369140625,-1.2160296440124512,-0.7417866587638855,-0.7963777184486389
1772556127667267600,0.809267578125,-0.15649987757205963,-0.9211305379867554,0.03625265508890152
1772556127677198600,0.819198486328125,0.7646498680114746,-0.961412250995636,0.8060452342033386
1772556127687130600,0.829130615234375,1.4272783994674683,-0.885574221611023,1.4441654682159424
1772556127697062000,0.839061767578125,1.839659571647644,-0.7663740515708923,1.9368650913238525
1772556127706992600,0.84899267578125,2.0026814937591553,-0.7432575225830078,2.1286685466766357
1772556127716923600,0.858923583984375,1.670454740524292,-0.8810053467750549,1.6024953126907349
1772556127726854700,0.868854736328125,1.1948240995407104,-1.2671035528182983,0.8235356211662292
1772556127736785700,0.87878564453125,0.8604575991630554,-1.7346783876419067,0.3687729835510254
1772556127746716700,0.888716552734375,0.7238190174102783,-2.1088640689849854,0.0563945509493351
1772556127756648700,0.898648681640625,0.8427969217300415,-2.2099034786224365,-0.1976405680179596
1772556127766579700,0.908579833984375,1.1551474332809448,-2.0753657817840576,-0.2884141504764557
1772556127776510700,0.9185107421875,1.5418322086334229,-1.915871262550354,-0.22512897849082947
1772556127786441500,0.92844140625,1.8969991207122803,-1.9410349130630493,-0.098367840051651
1772556127796372700,0.938372802734375,1.980968952178955,-1.9122215509414673,-0.00031043868511915207
1772556127806303700,0.9483037109375,1.6146245002746582,-1.4856281280517578,0.08644762635231018
1772556127816234500,0.958234375,0.8536330461502075,-0.8700941205024719,0.18218772113323212
1772556127826166500,0.96816650390625,-0.051631879061460495,-0.3250124156475067,0.3267150819301605
1772556127836097800,0.978097900390625,-0.8703734278678894,0.0027584321796894073,0.5499404072761536
1772556127846028500,0.988028564453125,-1.540640115737915,0.05823340639472008,0.8160578608512878
1772556127855959600,0.99795947265625,-1.950556993484497,-0.07725745439529419,1.0684953927993774
1772556127865890800,1.007890869140625,-1.9540513753890991,-0.2370615005493164,1.3410072326660156
1772556127875821600,1.017821533203125,-1.538449764251709,-0.23567232489585876,1.5952879190444946
1772556127885753600,1.027753662109375,-0.9483662843704224,0.013653883710503578,1.7315490245819092
1772556127895684600,1.0376845703125,-0.4785674810409546,0.6424562931060791,1.5867018699645996
1772556127905615600,1.04761572265625,-0.3733843266963959,1.6227022409439087,1.141147494316101
1772556127915546600,1.057546630859375,-0.528255045413971,2.5691332817077637,0.5939191579818726
1772556127925477600,1.0674775390625,-0.5785666704177856,2.76503849029541,0.142960786819458
1772556127935408600,1.07740869140625,-0.3621112108230591,1.7880196571350098,-0.17380189895629883
1772556127945339600,1.087339599609375,0.050472110509872437,0.21198254823684692,-0.32064753770828247
1772556127955271700,1.097271728515625,0.35766860842704773,-0.9182696342468262,-0.30754444003105164
1772556127965202700,1.10720263671875,0.4911379814147949,-1.2855181694030762,-0.25749778747558594
1772556127975133700,1.1171337890625,0.6040908694267273,-1.1962324380874634,-0.20691993832588196
1772556127985064700,1.127064697265625,0.6378278136253357,-0.7119370102882385,-0.1733742207288742
1772556127994995700,1.13699560546875,0.5415872931480408,-0.15927021205425262,-0.060763996094465256
1772556128004926700,1.1469267578125,0.39363881945610046,0.18050546944141388,0.15908688306808472
1772556128014858800,1.156858642578125,0.27700069546699524,0.413836807012558,0.4275442063808441
1772556128024789500,1.16678955078125,0.21701674163341522,0.7362822890281677,0.6242069602012634
1772556128034720800,1.176720703125,0.2624492347240448,1.055883765220642,0.7210577726364136
1772556128044651800,1.18665185546875,0.6020467281341553,1.363883376121521,0.6417707204818726
1772556128054582500,1.19658251953125,1.0254309177398682,1.822458028793335,0.35008612275123596
1772556128064513800,1.206513671875,0.8857870697975159,2.6273512840270996,-0.19512873888015747
1772556128074444800,1.21644482421875,0.7738379240036011,2.926236867904663,-0.7540492415428162
1772556128084376600,1.22637646484375,0.7138696312904358,2.767503499984741,-1.2512779235839844
1772556128094307600,1.2363076171875,0.6347548365592957,2.317572593688965,-1.5868490934371948
1772556128104238800,1.24623876953125,0.5911216139793396,1.711061716079712,-1.669489860534668
1772556128114169600,1.256169677734375,0.5929282307624817,1.0979171991348267,-1.4488462209701538
1772556128124100600,1.2661005859375,0.6376946568489075,0.7758513689041138,-1.0022615194320679
1772556128134032000,1.276031982421875,0.6778479218482971,0.7105646729469299,-0.403414785861969
1772556128143963600,1.285963623046875,0.7106919288635254,0.8008729815483093,0.20051106810569763
1772556128153894700,1.295894775390625,0.7038216590881348,1.0105687379837036,0.6999515295028687
1772556128163825700,1.30582568359375,0.5838949680328369,1.182590126991272,1.018227219581604
1772556128173756700,1.315756591796875,0.34720006585121155,1.240925908088684,1.1495590209960938
1772556128183687700,1.325687744140625,0.10650967806577682,0.9984892010688782,1.134240746498108
1772556128193618700,1.33561865234375,-0.07436050474643707,0.503442645072937,1.0370922088623047
1772556128203549700,1.3455498046875,-0.18635761737823486,-0.1710468828678131,0.9260711669921875
1772556128213481700,1.355481689453125,-0.24100454151630402,-0.8508711457252502,0.8251676559448242
1772556128223412700,1.365412841796875,-0.26602548360824585,-1.4007116556167603,0.7163892388343811
1772556128233343500,1.375343505859375,-0.32245293259620667,-1.7950921058654785,0.5836665034294128
1772556128243274800,1.385274658203125,-0.3967388868331909,-2.0582005977630615,0.4404398202896118
1772556128253205800,1.395205810546875,-0.42025038599967957,-2.168968677520752,0.2887246310710907
1772556128263136500,1.405136474609375,-0.32034429907798767,-2.0880637168884277,0.1238136887550354
1772556128273067800,1.41506787109375,-0.03852790594100952,-1.884235143661499,-0.09631551802158356
1772556128282999800,1.424999755859375,0.4606834948062897,-1.4228397607803345,-0.40262138843536377
1772556128292930600,1.4349306640625,1.1232490539550781,-0.890399694442749,-0.8342859148979187
1772556128302861600,1.444861572265625,1.7700650691986084,-0.7785626649856567,-1.4217051267623901
1772556128312792800,1.454792724609375,2.2431914806365967,-1.105863094329834,-1.9725353717803955
1772556128322723600,1.4647236328125,2.4480202198028564,-1.5582704544067383,-2.2102692127227783
1772556128332654600,1.474654541015625,2.3455679416656494,-1.9854867458343506,-2.1278624534606934
1772556128342587000,1.4845869140625,1.7983871698379517,-2.329874277114868,-1.839962363243103
1772556128352517600,1.494517578125,0.8168911337852478,-2.500225305557251,-1.3619799613952637
1772556128362448600,1.50444873046875,-0.3613522946834564,-2.12962007522583,-0.5299666523933411
1772556128372380000,1.5143798828125,-1.3575023412704468,-1.0971771478652954,0.7696752548217773
1772556128382310700,1.524310546875,-1.9328795671463013,0.10622145235538483,2.3097188472747803
1772556128392241400,1.534241455078125,-1.934860110282898,1.1869221925735474,3.72310733795166
1772556128402172700,1.544172607421875,-1.4374953508377075,1.901321530342102,4.610133647918701
1772556128412104700,1.554104736328125,-0.72685307264328,2.207637310028076,4.64963436126709
1772556128422035700,1.56403564453125,-0.039612893015146255,2.131279230117798,3.8123974800109863
1772556128431966500,1.573966552734375,0.49409276247024536,1.6365915536880493,2.4710304737091064
1772556128441897700,1.583897705078125,0.7817607522010803,0.6945315599441528,1.144546389579773
1772556128451828500,1.593828369140625,0.7863146066665649,-0.29701387882232666,0.18886476755142212
1772556128461759500,1.603759521484375,0.6780086159706116,-0.8865360617637634,-0.3393644690513611
1772556128471690800,1.613690673828125,0.5494975447654724,-1.155379295349121,-0.43792328238487244
1772556128481622800,1.623622802734375,0.3763212263584137,-1.2614474296569824,-0.25105273723602295
1772556128491553500,1.633553466796875,0.2069678008556366,-1.0583653450012207,0.04732544720172882
1772556128501484500,1.643484619140625,0.0010204999707639217,-0.5403313040733337,0.3848313093185425
1772556128511415600,1.65341552734375,-0.26550939679145813,0.0826542004942894,0.756451427936554
1772556128521346600,1.6633466796875,-0.5047299861907959,0.6649777889251709,1.0812495946884155
1772556128531277600,1.673277587890625,-0.5798974633216858,1.1698405742645264,1.1911232471466064
1772556128541209600,1.683209716796875,-0.5410288572311401,1.3277931213378906,1.0657706260681152
1772556128551140600,1.693140625,-0.3852507174015045,1.088003396987915,0.7275621294975281
1772556128561071600,1.703071533203125,-0.125797301530838,0.6586264371871948,0.24364179372787476
1772556128571002400,1.71300244140625,0.13249175250530243,0.22217987477779388,-0.28551191091537476
1772556128580933600,1.72293359375,0.35503003001213074,-0.05458088964223862,-0.8036051392555237
1772556128590864600,1.73286474609375,0.5698506832122803,-0.18530702590942383,-1.2463651895523071
1772556128600795400,1.74279541015625,0.7337738275527954,-0.2595604956150055,-1.5546354055404663
1772556128610727400,1.7527275390625,0.8365156650543213,-0.3342028856277466,-1.6950292587280273
1772556128620658700,1.76265869140625,0.8859085440635681,-0.41114720702171326,-1.6397062540054321
1772556128630589400,1.77258935546875,0.8600226640701294,-0.4214369058609009,-1.4749422073364258
1772556128640520400,1.7825205078125,0.7768046855926514,-0.38110068440437317,-1.2920703887939453
1772556128650451700,1.79245166015625,0.6423673033714294,-0.3957626223564148,-1.162375569343567
1772556128660382500,1.802382568359375,0.5042150616645813,-0.48462003469467163,-1.069044589996338
1772556128670313500,1.8123134765625,0.3534899353981018,-0.6247751116752625,-0.9530535936355591
1772556128680245800,1.822245849609375,0.23871169984340668,-0.8553459644317627,-0.7969918251037598
1772556128690176500,1.832176513671875,0.2010844200849533,-1.1144760847091675,-0.5813950896263123
1772556128700107500,1.842107421875,0.2343161404132843,-1.3142321109771729,-0.32413777709007263
1772556128710038800,1.852038818359375,0.3060064911842346,-1.4172648191452026,-0.044373683631420135
1772556128719969500,1.861969482421875,0.3844808042049408,-1.3782055377960205,0.19243165850639343
1772556128729900500,1.871900634765625,0.4679591655731201,-1.2038730382919312,0.3315957486629486
1772556128739832600,1.88183251953125,0.542313277721405,-0.8863591551780701,0.33378058671951294
1772556128749763600,1.891763671875,0.6344694495201111,-0.48526400327682495,0.1865062564611435
1772556128759694600,1.901694580078125,0.7551684379577637,-0.17640255391597748,-0.12904824316501617
1772556128769625600,1.91162548828125,0.845344603061676,-0.06567714363336563,-0.6068943738937378
1772556128779556600,1.921556640625,0.8832365870475769,-0.2856374979019165,-1.1238701343536377
1772556128789487600,1.931487548828125,0.836159348487854,-0.7578073143959045,-1.4967931509017944
1772556128799418600,1.941418701171875,0.7456675171852112,-1.1585650444030762,-1.6227463483810425
1772556128809350400,1.951350341796875,0.6470961570739746,-1.3103408813476562,-1.5017273426055908
1772556128819281700,1.96128173828125,0.5157959461212158,-1.158585786819458,-1.1412698030471802
1772556128829212700,1.971212646484375,0.35160067677497864,-0.744225025177002,-0.6255084872245789
1772556128839143400,1.981143310546875,0.1291567087173462,-0.2503860294818878,-0.07064557820558548
1772556128849074700,1.99107470703125,-0.18201813101768494,0.16189616918563843,0.4440891742706299
1772556128859005700,2.001005615234375,-0.5653777718544006,0.4968283474445343,0.8542154431343079
1772556128868936400,2.0109365234375,-0.9398930072784424,0.7016295790672302,1.1711537837982178
1772556128878868500,2.020868408203125,-1.286612629890442,0.7667760848999023,1.4721218347549438
1772556128888799700,2.0307998046875,-1.5434753894805908,0.8081094026565552,1.8097411394119263
1772556128898730500,2.04073046875,-1.4726866483688354,0.9213526248931885,2.105841875076294
1772556128908661500,2.05066162109375,-1.1062027215957642,0.9731628894805908,2.229818820953369
1772556128918592800,2.0605927734375,-0.6196886897087097,0.8683339953422546,2.0375967025756836
1772556128928523500,2.0705234375,-0.08067742735147476,0.5084177851676941,1.4558019638061523
1772556128938454500,2.08045458984375,0.5000341534614563,-0.1852177232503891,0.5600056052207947
1772556128948386600,2.090386474609375,1.1165716648101807,-1.0309807062149048,-0.5271492004394531
1772556128958317600,2.100317626953125,1.6008660793304443,-1.8092542886734009,-1.5603582859039307
1772556128968248600,2.11024853515625,1.7440376281738281,-2.2014615535736084,-2.2724215984344482
1772556128978179600,2.1201796875,1.595510721206665,-1.9267898797988892,-2.5750043392181396
1772556128988110600,2.130110595703125,1.2104703187942505,-1.2045650482177734,-2.4398093223571777
1772556128998041600,2.14004150390625,0.7176424860954285,-0.45461249351501465,-1.9385963678359985
1772556129007973600,2.1499736328125,0.31466004252433777,0.33387118577957153,-1.3862595558166504
1772556129017904600,2.159904541015625,-0.052818648517131805,1.0781939029693604,-1.0779075622558594
1772556129027835600,2.169835693359375,-0.4658440947532654,1.6310757398605347,-1.0468395948410034
1772556129037766700,2.1797666015625,-0.8398967385292053,2.0661654472351074,-1.1418659687042236
1772556129047697700,2.18969775390625,-1.0031088590621948,2.4624745845794678,-1.2003735303878784
1772556129057628700,2.199628662109375,-0.9273144602775574,2.642695665359497,-1.1569545269012451
1772556129067559400,2.209559326171875,-0.7629386782646179,2.613646984100342,-1.1239674091339111
1772556129077491500,2.219491455078125,-0.5715681910514832,2.4848244190216064,-1.1588724851608276
1772556129087422700,2.229422607421875,-0.3552513122558594,2.1750762462615967,-1.175769329071045
1772556129097353700,2.239353759765625,-0.20488549768924713,1.700188398361206,-1.110392451286316
1772556129107284500,2.249284423828125,-0.09900953620672226,1.1424424648284912,-0.9420326352119446
1772556129117215700,2.2592158203125,0.02638833411037922,0.656926155090332,-0.6309511661529541
1772556129127146500,2.269146484375,0.2580919563770294,0.3312791883945465,-0.22948868572711945
1772556129137078500,2.27907861328125,0.5403862595558167,0.14169833064079285,0.1325177401304245
1772556129147009500,2.289009521484375,0.6897489428520203,0.06447804719209671,0.3709654211997986
1772556129156940800,2.29894091796875,0.59800785779953,0.022297833114862442,0.5436514616012573
1772556129166871600,2.30887158203125,0.2787674069404602,-0.07103551179170609,0.7213530540466309
1772556129176802600,2.318802490234375,-0.10749800503253937,-0.13549545407295227,0.9167600870132446
1772556129186733600,2.328733642578125,-0.467987984418869,-0.06393974274396896,1.1309912204742432
1772556129196664600,2.33866455078125,-0.7653189897537231,0.03571441397070885,1.3772974014282227
1772556129206596600,2.3485966796875,-0.9802630543708801,0.06851451843976974,1.6310919523239136
1772556129216527600,2.358527587890625,-1.112745761871338,0.0005919300019741058,1.846914529800415
1772556129226458600,2.368458740234375,-1.1669760942459106,-0.1630408763885498,1.9716377258300781
1772556129236389600,2.3783896484375,-1.173006534576416,-0.3727291524410248,1.969460368156433
1772556129246320400,2.3883203125,-1.1176931858062744,-0.5833625197410583,1.8411351442337036
1772556129256251600,2.398251708984375,-1.011853575706482,-0.7583258152008057,1.6237596273422241
1772556129266182700,2.4081826171875,-0.8614204525947571,-0.9045963883399963,1.3563376665115356
1772556129276114700,2.41811474609375,-0.6585610508918762,-1.0288112163543701,1.0180068016052246
1772556129286045400,2.42804541015625,-0.4071827530860901,-1.0872669219970703,0.5945085287094116
1772556129295976700,2.437976806640625,-0.1337091475725174,-1.060347318649292,0.08251503109931946
1772556129305907500,2.447907470703125,0.12983718514442444,-1.0233439207077026,-0.4730125665664673
1772556129315838500,2.45783837890625,0.35998889803886414,-1.0673308372497559,-1.0332729816436768
1772556129325769700,2.467769775390625,0.510034441947937,-1.1799699068069458,-1.586294174194336
1772556129335700500,2.477700439453125,0.5727555751800537,-1.3190902471542358,-2.089172840118408
1772556129345632500,2.487632568359375,0.5507557392120361,-1.4126794338226318,-2.489370107650757
1772556129355563500,2.4975634765625,0.4732985496520996,-1.3517234325408936,-2.8006744384765625
1772556129365494500,2.50749462890625,0.30964919924736023,-1.0718145370483398,-3.015916585922241
1772556129375425500,2.517425537109375,-0.10318633168935776,-0.5738937854766846,-3.0878021717071533
1772556129385356500,2.5273564453125,-0.8908451199531555,0.018863337114453316,-2.9787983894348145
1772556129395287600,2.53728759765625,-1.9442116022109985,0.5630545020103455,-2.6086385250091553
1772556129405218600,2.547218505859375,-2.856168746948242,1.0630686283111572,-1.8910496234893799
1772556129415150600,2.557150634765625,-3.146463394165039,1.4828286170959473,-0.7655644416809082
1772556129425081600,2.56708154296875,-2.752061605453491,1.751560926437378,0.6281859874725342
1772556129435012600,2.5770126953125,-2.0586042404174805,2.0008089542388916,1.8473119735717773
1772556129444943600,2.586943603515625,-1.375351071357727,2.107701063156128,2.4324917793273926
1772556129454874600,2.59687451171875,-0.7438831329345703,1.9243134260177612,2.2024986743927
1772556129464805600,2.6068056640625,-0.15759368240833282,1.3321466445922852,1.3000547885894775
1772556129474736400,2.616736328125,0.37571659684181213,0.31005313992500305,0.026178568601608276
1772556129484668400,2.62666845703125,0.8246974945068359,-0.8628131747245789,-1.2937493324279785
1772556129494599700,2.636599609375,1.1838825941085815,-1.5981636047363281,-2.3727245330810547
1772556129504530700,2.64653076171875,1.4365843534469604,-1.7280155420303345,-2.926032304763794
1772556129514461400,2.65646142578125,1.4000431299209595,-1.6021792888641357,-2.7547826766967773
1772556129524392700,2.666392822265625,1.0669306516647339,-1.3055801391601562,-2.0120604038238525
1772556129534323500,2.676323486328125,0.42642122507095337,-0.8695570230484009,-0.9751415848731995
1772556129544255500,2.68625537109375,-0.39966270327568054,-0.232282817363739,0.1655661165714264
1772556129554186500,2.6961865234375,-1.1409705877304077,0.6672161221504211,1.3354042768478394
1772556129564117800,2.70611767578125,-1.5985907316207886,1.7125027179718018,2.3952245712280273
1772556129574048500,2.716048583984375,-1.7714519500732422,2.6765403747558594,3.147825002670288
1772556129583979500,2.7259794921875,-1.6433771848678589,3.335693597793579,3.4062745571136475
1772556129593910500,2.73591064453125,-1.2518796920776367,3.5491702556610107,3.09040904045105
1772556129603841500,2.745841552734375,-0.7318293452262878,3.1547439098358154,2.2901065349578857
1772556129613773600,2.755773681640625,-0.17266832292079926,2.1463303565979004,1.2056784629821777
1772556129623704300,2.765704345703125,0.3217807412147522,0.797650933265686,0.12768642604351044
1772556129633635600,2.775635498046875,0.7048543691635132,-0.4174240231513977,-0.719332218170166
1772556129643566600,2.785566650390625,1.0412265062332153,-1.2170774936676025,-1.2466155290603638
1772556129653497300,2.795497314453125,1.331674575805664,-1.5221161842346191,-1.4627127647399902
1772556129663428600,2.8054287109375,1.5041078329086304,-1.3923064470291138,-1.4545594453811646
1772556129673359600,2.815359619140625,1.4567941427230835,-0.998132050037384,-1.302687168121338
1772556129683291400,2.82529150390625,1.2071796655654907,-0.5346041917800903,-1.0669734477996826
1772556129693222400,2.835222412109375,0.8885558247566223,-0.11855609714984894,-0.7937453985214233
1772556129703153700,2.845153564453125,0.5545322299003601,0.19123899936676025,-0.5179523229598999
1772556129713084400,2.85508447265625,0.2416509985923767,0.31384268403053284,-0.2105545848608017
1772556129723015400,2.865015380859375,-0.021804042160511017,0.21099548041820526,0.1623086929321289
1772556129732946700,2.87494677734375,-0.22739848494529724,-0.06074441969394684,0.6070336699485779
1772556129742878500,2.88487841796875,-0.3967297673225403,-0.39723899960517883,1.1216624975204468
1772556129752809500,2.8948095703125,-0.5153107643127441,-0.6885360479354858,1.6507561206817627
1772556129762740700,2.90474072265625,-0.5136194825172424,-0.8089656829833984,2.140554904937744
1772556129772671500,2.91467138671875,-0.2770698368549347,-0.7077844738960266,2.5751140117645264
1772556129782602500,2.9246025390625,0.3112071454524994,-0.5093542337417603,2.829603433609009
1772556129792533800,2.93453369140625,1.1886541843414307,-0.3469623923301697,2.665616273880005
1772556129802464500,2.944464599609375,2.0695724487304688,-0.23365887999534607,1.9478873014450073
1772556129812396500,2.954396484375,2.7250964641571045,-0.3573872447013855,0.7523114085197449
1772556129822327600,2.96432763671875,3.0519304275512695,-0.7218511700630188,-0.6928695440292358
1772556129832258600,2.974258544921875,3.018636703491211,-1.191801905632019,-2.1485416889190674
1772556129842189600,2.984189453125,2.663668155670166,-1.5843696594238281,-3.367393970489502
1772556129852120600,2.99412060546875,2.117151975631714,-1.742164134979248,-4.218713283538818
1772556129862051600,3.004051513671875,1.4732270240783691,-1.446877121925354,-4.657492637634277
1772556129871982600,3.013982666015625,0.7497934103012085,-0.6773026585578918,-4.615173816680908
1772556129881914600,3.02391455078125,-0.040568798780441284,0.2846910357475281,-4.077404499053955
1772556129891845400,3.033845458984375,-0.7516677379608154,1.2541894912719727,-3.1630947589874268
1772556129901776600,3.043776611328125,-1.3289636373519897,1.9628839492797852,-1.97469961643219
1772556129911707600,3.053707763671875,-1.6917409896850586,2.245800495147705,-0.6519541144371033
1772556129921638400,3.063638427734375,-1.743481159210205,2.30083966255188,0.5726056098937988
1772556129931569700,3.073569580078125,-1.5302860736846924,2.254544258117676,1.5626749992370605
1772556129941500700,3.083500732421875,-1.0108444690704346,2.076620578765869,2.0659096240997314
1772556129951432400,3.093432373046875,-0.29337525367736816,1.89957594871521,1.8218413591384888
1772556129961363500,3.103363525390625,0.42191609740257263,1.5696548223495483,0.958057165145874
1772556129971294700,3.113294677734375,1.0380719900131226,1.0215026140213013,-0.1766236126422882
1772556129981225500,3.1232255859375,1.4693164825439453,0.47028848528862,-1.2286573648452759
1772556129991156500,3.133156494140625,1.8029171228408813,0.026066582649946213,-1.9446378946304321
1772556130001087700,3.143087646484375,2.060304641723633,-0.35243409872055054,-2.2865798473358154
1772556130011019500,3.15301953125,2.20943284034729,-0.7301249504089355,-2.277700901031494
1772556130020950500,3.162950439453125,2.195315361022949,-0.8768986463546753,-1.9711958169937134
1772556130030881500,3.172881591796875,1.9877495765686035,-0.586280107498169,-1.4611064195632935
1772556130040812500,3.1828125,1.6660608053207397,0.006996538490056992,-0.9263340830802917
1772556130050743600,3.19274365234375,1.3669795989990234,0.7552752494812012,-0.5103847980499268
1772556130060674600,3.202674560546875,0.9839388728141785,1.3183671236038208,-0.19265571236610413
1772556130070605600,3.21260546875,0.4953041970729828,1.5391496419906616,0.07994705438613892
1772556130080537600,3.22253759765625,0.08030296117067337,1.4164018630981445,0.3813900947570801
1772556130090468600,3.232468505859375,-0.16224469244480133,1.1866637468338013,0.6618223190307617
1772556130100399600,3.242399658203125,-0.24615830183029175,0.9687969088554382,0.8481937050819397
1772556130110330600,3.25233056640625,-0.22675663232803345,0.8556951284408569,0.8810003995895386
1772556130120261600,3.26226171875,-0.16258440911769867,0.8326523303985596,0.7954524159431458
1772556130130192600,3.272192626953125,-0.12671935558319092,0.7674338817596436,0.6089629530906677
1772556130140124700,3.282124755859375,-0.10256091505289078,0.532884418964386,0.39981570839881897
1772556130150055700,3.2920556640625,-0.09639357030391693,0.13116759061813354,0.28735974431037903
1772556130159986400,3.301986328125,-0.11293133348226547,-0.24585479497909546,0.28591620922088623
1772556130169917700,3.311917724609375,-0.10989639163017273,-0.46660396456718445,0.3653316795825958
1772556130179848400,3.321848388671875,-0.11677861213684082,-0.5660350322723389,0.5639146566390991
1772556130189779500,3.331779541015625,-0.20363575220108032,-0.5071434378623962,0.8630994558334351
1772556130199710700,3.341710693359375,-0.3392302691936493,-0.36370304226875305,1.160667061805725
1772556130209642800,3.351642822265625,-0.48459145426750183,-0.3022838830947876,1.4008806943893433
1772556130219573500,3.361573486328125,-0.6346492767333984,-0.34594428539276123,1.5785614252090454
1772556130229504500,3.37150439453125,-0.8263161778450012,-0.42016124725341797,1.7159531116485596
1772556130239435500,3.381435546875,-1.0929163694381714,-0.4491380453109741,1.7878756523132324
1772556130249366500,3.391366455078125,-1.3754122257232666,-0.4458271861076355,1.8015695810317993
1772556130259297500,3.401297607421875,-1.5955055952072144,-0.4709181785583496,1.7927391529083252
1772556130269228500,3.411228515625,-1.680432677268982,-0.47731003165245056,1.7806074619293213
1772556130279160600,3.42116064453125,-1.55376136302948,-0.46855953335762024,1.745253086090088
1772556130289091600,3.431091552734375,-1.1692650318145752,-0.43069177865982056,1.5894664525985718
1772556130299022300,3.441022216796875,-0.6147142648696899,-0.4070547819137573,1.199440360069275
1772556130308953600,3.45095361328125,-0.058924805372953415,-0.5315240621566772,0.5237971544265747
1772556130318884600,3.460884521484375,0.40144413709640503,-0.8591300845146179,-0.3672752380371094
1772556130328815400,3.4708154296875,0.7464436292648315,-1.3033068180084229,-1.3064889907836914
1772556130338746600,3.48074658203125,0.9587757587432861,-1.8108208179473877,-2.1433489322662354
1772556130348678700,3.4906787109375,1.0532892942428589,-2.221457004547119,-2.7465498447418213
1772556130358609400,3.500609375,1.0134607553482056,-2.3944003582000732,-3.0429654121398926
1772556130368540400,3.51054052734375,0.8357734084129333,-2.2449400424957275,-2.9886832237243652
1772556130378471700,3.5204716796875,0.5857241153717041,-1.8177028894424438,-2.6419897079467773
1772556130388402200,3.530402099609375,0.2657906115055084,-1.15016770362854,-2.0927183628082275
1772556130398333200,3.540333251953125,-0.18276509642601013,-0.34788668155670166,-1.4371342658996582
1772556130408265200,3.55026513671875,-0.6966723799705505,0.45168694853782654,-0.8104677200317383
1772556130418196200,3.5601962890625,-1.193419098854065,1.1407999992370605,-0.3092811703681946
1772556130428127200,3.570127197265625,-1.733687400817871,1.5614057779312134,0.07367607951164246
1772556130438058200,3.580058349609375,-2.366391181945801,1.6077531576156616,0.4461119472980499
1772556130447989200,3.5899892578125,-2.7972965240478516,1.4983161687850952,0.8172886371612549
1772556130457920300,3.599920166015625,-2.75468373298645,1.4357939958572388,1.0645413398742676
1772556130467851300,3.609851318359375,-2.2689998149871826,1.4722214937210083,1.0407761335372925
1772556130477783300,3.619783203125,-1.4941695928573608,1.436935544013977,0.5906431674957275
1772556130487714300,3.62971435546875,-0.7487702965736389,0.9874792098999023,-0.26908305287361145
1772556130497645000,3.63964501953125,-0.4019133448600769,0.2439449429512024,-1.4057316780090332
1772556130507576300,3.649576416015625,-0.48693183064460754,-0.39248529076576233,-2.453106641769409
1772556130517507300,3.65950732421875,-0.8457959294319153,-0.8214489221572876,-2.9778823852539062
1772556130527438000,3.66943798828125,-1.2708494663238525,-0.8850473761558533,-2.743328332901001
1772556130537369300,3.679369384765625,-1.588121771812439,-0.6732982397079468,-1.7076691389083862
1772556130547301400,3.68930126953125,-1.7847734689712524,-0.1158778965473175,-0.3004809617996216
1772556130557232000,3.699232177734375,-2.032949686050415,0.7103087902069092,0.8796846270561218
1772556130567163100,3.7091630859375,-2.395064353942871,1.2825597524642944,1.6249881982803345
1772556130577094400,3.719094482421875,-2.687623977661133,1.4334421157836914,2.0029664039611816
1772556130587025200,3.729025146484375,-2.6947174072265625,1.376285433769226,2.001253128051758
1772556130596956200,3.7389560546875,-2.4761428833007812,1.1740696430206299,1.6411055326461792
1772556130606888200,3.74888818359375,-2.1350228786468506,0.8171908259391785,1.0425957441329956
1772556130616819200,3.758819091796875,-1.716198444366455,0.3661278486251831,0.37166041135787964
1772556130626750200,3.768750244140625,-1.2618626356124878,-0.13259540498256683,-0.25808876752853394
1772556130636681200,3.77868115234375,-0.8459614515304565,-0.6541358828544617,-0.757538914680481
1772556130646612200,3.7886123046875,-0.5718971490859985,-1.1383719444274902,-1.0976554155349731
1772556130656543200,3.798543212890625,-0.4688485860824585,-1.4939630031585693,-1.2730190753936768
1772556130666474000,3.808473876953125,-0.562211275100708,-1.5192816257476807,-1.3465205430984497
1772556130676406300,3.81840625,-0.8380290269851685,-1.342240571975708,-1.3021528720855713
1772556130686337300,3.828337158203125,-1.2340501546859741,-1.1040279865264893,-1.0714677572250366
1772556130696268300,3.838268310546875,-1.6446008682250977,-0.7547138929367065,-0.7108731269836426
1772556130706199300,3.84819921875,-1.970876693725586,-0.3316052556037903,-0.2928961217403412
1772556130716130300,3.85813037109375,-2.206761121749878,-0.01084287092089653,0.13806140422821045
1772556130726061000,3.86806103515625,-2.3956267833709717,0.17661410570144653,0.5813629627227783
1772556130735992300,3.877992431640625,-2.585212469100952,0.17339283227920532,1.0105375051498413
1772556130745924400,3.88792431640625,-2.8177638053894043,0.03016963228583336,1.451124668121338
1772556130755855400,3.89785546875,-3.066263437271118,-0.18073031306266785,1.944151759147644
1772556130765786000,3.9077861328125,-3.218818187713623,-0.36595237255096436,2.4406440258026123
1772556130775717400,3.91771728515625,-3.209798812866211,-0.4242206811904907,2.8390555381774902
1772556130785648000,3.927648193359375,-2.9720330238342285,-0.27502426505088806,3.0615763664245605
1772556130795579100,3.9375791015625,-2.487809419631958,0.24269495904445648,3.082716703414917
1772556130805510400,3.947510498046875,-1.9076581001281738,0.6067525148391724,2.875444173812866
1772556130815442400,3.9574423828125,-1.3019444942474365,0.7059015035629272,2.2402188777923584
1772556130825373200,3.967373291015625,-0.8065475821495056,0.524657130241394,1.353332757949829
1772556130835304200,3.97730419921875,-0.3055322766304016,0.3420441746711731,0.21576139330863953
1772556130845235200,3.987235107421875,0.16164423525333405,-0.13103950023651123,-1.1083358526229858
1772556130855166200,3.997166259765625,0.4385521411895752,-0.9799000024795532,-2.1559672355651855
1772556130865097200,4.00709716796875,0.7250701785087585,-1.9371181726455688,-2.84281325340271
1772556130875029200,4.017029296875,0.9325640201568604,-2.631223678588867,-3.2737045288085938
1772556130884960300,4.026960205078125,1.0204395055770874,-3.0715339183807373,-3.386863946914673
1772556130894891300,4.036891357421875,0.9785930514335632,-3.025756597518921,-3.227717876434326
1772556130904822000,4.046822021484375,0.7312018871307373,-2.405703067779541,-2.9851322174072266
1772556130914753300,4.056753173828125,0.2457435131072998,-1.326811671257019,-2.7782890796661377
1772556130924684300,4.066684326171875,-0.511539876461029,-0.08265867829322815,-2.5455780029296875
1772556130934615000,4.076614990234375,-1.652997612953186,0.790713369846344,-2.0830769538879395
1772556130944547000,4.086547119140625,-3.037109613418579,1.072628140449524,-1.2127904891967773
1772556130954478300,4.096478271484375,-4.174448013305664,0.9772092700004578,0.04132658988237381
1772556130964409000,4.1064091796875,-4.774946689605713,1.0455961227416992,1.426831841468811
1772556130974340000,4.116340087890625,-4.785447120666504,1.6026674509048462,2.6834733486175537
1772556130984271400,4.126271240234375,-4.2500715255737305,2.356541156768799,3.684034585952759
1772556130994202000,4.1362021484375,-3.3400380611419678,2.8197290897369385,4.2350029945373535
1772556131004133000,4.146133056640625,-2.2932376861572266,2.75765061378479,4.0558013916015625
1772556131014065200,4.156065185546875,-1.2523690462112427,2.1978650093078613,2.939784526824951
1772556131023996200,4.16599609375,-0.45733553171157837,1.2126280069351196,1.0126534700393677
1772556131033927200,4.17592724609375,-0.10215292125940323,0.00899188220500946,-1.2628705501556396
1772556131043858200,4.185858154296875,0.002144454512745142,-1.174013614654541,-3.2414486408233643
1772556131053789200,4.1957890625,0.09485350549221039,-2.1804749965667725,-4.452860355377197
1772556131063720200,4.20572021484375,0.2142169177532196,-2.5891377925872803,-4.698647499084473
1772556131073652200,4.21565234375,0.21148048341274261,-2.431122303009033,-3.944972038269043
1772556131083583200,4.225583251953125,-0.037988461554050446,-1.940308690071106,-2.3911750316619873
1772556131093514200,4.23551416015625,-0.44652435183525085,-1.1855168342590332,-0.5376693606376648
1772556131103445200,4.2454453125,-0.8884825706481934,-0.07095381617546082,1.1458660364151
1772556131113376300,4.255376220703125,-1.3114618062973022,1.1720595359802246,2.3488361835479736
1772556131123307300,4.265307373046875,-1.5977082252502441,2.081794261932373,3.0376055240631104
1772556131133238300,4.27523828125,-1.6185178756713867,2.347522497177124,3.2903740406036377
1772556131143170000,4.285170166015625,-1.3765270709991455,1.9225199222564697,3.068098306655884
1772556131153101300,4.295101318359375,-1.0115665197372437,0.9350978136062622,2.4255144596099854
1772556131163032300,4.3050322265625,-0.7037524580955505,-0.2801028788089752,1.4903701543807983
1772556131172963000,4.314963134765625,-0.606685221195221,-1.448556900024414,0.4647917151451111
1772556131182894300,4.324894287109375,-0.7248365879058838,-2.3024208545684814,-0.3722752332687378
1772556131192825300,4.334825439453125,-0.9114565253257751,-2.625127077102661,-0.8399957418441772
1772556131202756000,4.344756103515625,-0.9931012988090515,-2.431852340698242,-0.9669209122657776
1772556131212688100,4.354688232421875,-0.9353986382484436,-1.958441972732544,-0.844511091709137
1772556131222619400,4.364619384765625,-0.8697093725204468,-1.480670690536499,-0.5961366891860962
1772556131232550100,4.374550048828125,-0.8933550119400024,-1.2300790548324585,-0.3514955937862396
1772556131242481200,4.384481201171875,-1.0089428424835205,-1.3169636726379395,-0.18189884722232819
1772556131252412400,4.394412353515625,-1.1617580652236938,-1.6381109952926636,-0.09396322071552277
1772556131262343200,4.40434326171875,-1.326427698135376,-2.034271478652954,-0.012573019601404667
1772556131272275200,4.414275146484375,-1.4778445959091187,-2.3498668670654297,0.10951036214828491
1772556131282206200,4.424206298828125,-1.5980613231658936,-2.41040301322937,0.3165684640407562
1772556131292137200,4.43413720703125,-1.696541666984558,-2.1135811805725098,0.6737183332443237
1772556131302068200,4.444068115234375,-1.761494517326355,-1.5060768127441406,1.152197241783142
1772556131311999200,4.453999267578125,-1.7335838079452515,-0.7250897884368896,1.533549189567566
1772556131321930200,4.46393017578125,-1.5784344673156738,0.023999858647584915,1.5654919147491455
1772556131331861200,4.473861328125,-1.3315815925598145,0.5255945324897766,1.065603494644165
1772556131341793300,4.483793212890625,-1.133786678314209,0.6763771176338196,-0.03951619565486908
1772556131351724000,4.49372412109375,-1.1349995136260986,0.473076194524765,-1.5749711990356445
1772556131361655300,4.5036552734375,-1.334311842918396,-0.005866693332791328,-3.1530308723449707
1772556131371586300,4.51358642578125,-1.6515929698944092,-0.4929010272026062,-4.320805549621582
1772556131381517300,4.523517333984375,-2.069035291671753,-0.7624506950378418,-4.850043773651123
1772556131391448600,4.533448486328125,-2.540286064147949,-0.5898418426513672,-4.6898980140686035
1772556131401379300,4.54337939453125,-2.9308786392211914,0.00784260593354702,-3.88350510597229
1772556131411311400,4.553311279296875,-3.2237493991851807,0.7684586644172668,-2.5910801887512207
1772556131421242400,4.563242431640625,-3.418804168701172,1.4515166282653809,-1.1666905879974365
1772556131431173400,4.57317333984375,-3.4974846839904785,1.8827457427978516,0.03507329523563385
1772556131441104400,4.5831044921875,-3.4484007358551025,1.9463236331939697,0.7779373526573181
1772556131451035400,4.593035400390625,-3.2830772399902344,1.658932089805603,1.021530270576477
1772556131460966400,4.60296630859375,-3.0413928031921387,1.0255064964294434,0.9034777879714966
1772556131470898400,4.6128984375,-2.732477903366089,0.22594980895519257,0.6106725931167603
1772556131480829400,4.622829345703125,-2.294403553009033,-0.3153206408023834,0.24768052995204926
1772556131490760400,4.632760498046875,-1.702895998954773,-0.48296695947647095,-0.18067997694015503
1772556131500691500,4.64269140625,-1.2981319427490234,-0.4033472239971161,-0.5436720252037048
1772556131510622500,4.65262255859375,-1.0042338371276855,-0.21059450507164001,-0.7577844858169556
1772556131520553500,4.662553466796875,-0.605891764163971,0.03420485556125641,-0.7675883769989014
1772556131530484500,4.672484375,-0.17323541641235352,0.31105825304985046,-0.6333515644073486
1772556131540416500,4.68241650390625,0.19189567863941193,0.7631011009216309,-0.5622060298919678
1772556131550347300,4.69234716796875,0.4314354658126831,1.3918637037277222,-0.7425079345703125
1772556131560278500,4.702278564453125,0.5724935531616211,1.7995127439498901,-1.1398664712905884
1772556131570209500,4.71220947265625,0.6517447233200073,1.7096251249313354,-1.538418173789978
1772556131580140300,4.722140380859375,0.7648968696594238,1.0924354791641235,-1.6617933511734009
1772556131590071600,4.732071533203125,0.8605350852012634,0.12673857808113098,-1.3956552743911743
1772556131600002600,4.74200244140625,0.7682831883430481,-0.6616316437721252,-0.9317606091499329
1772556131609934300,4.751934326171875,0.48320701718330383,-1.1563727855682373,-0.4716385006904602
1772556131619865300,4.761865234375,0.12352687120437622,-1.476099967956543,0.13430947065353394
1772556131629796600,4.771796630859375,-0.2202693074941635,-1.488134741783142,0.8159899115562439
1772556131639727400,4.781727294921875,-0.4974774718284607,-1.120478630065918,1.3227461576461792
1772556131649658400,4.791658447265625,-0.7081758379936218,-0.7434112429618835,1.6526682376861572
1772556131659589600,4.801589599609375,-0.8183966279029846,-0.6278811693191528,1.883468747138977
1772556131669521400,4.811521484375,-0.8381545543670654,-0.825524091720581,2.039842128753662
1772556131679452400,4.821452392578125,-0.8687992691993713,-1.1495511531829834,2.056300401687622
1772556131689383400,4.831383544921875,-0.9078943133354187,-1.3975229263305664,1.8708317279815674
1772556131699314400,4.841314453125,-0.8995175957679749,-1.5515869855880737,1.6380034685134888
1772556131709245400,4.851245361328125,-0.8857513070106506,-1.5870506763458252,1.4898858070373535
1772556131719176400,4.861176513671875,-0.8462499976158142,-1.427538275718689,1.3566862344741821
1772556131729107500,4.871107421875,-0.7730571627616882,-1.2280333042144775,1.2174949645996094
1772556131739039500,4.88103955078125,-0.7038397789001465,-1.1276624202728271,1.0380442142486572
1772556131748970500,4.890970458984375,-0.7275758981704712,-1.1607277393341064,0.7874637246131897
1772556131758901200,4.9009013671875,-0.8998339176177979,-1.1887582540512085,0.4861653745174408
1772556131768832500,4.91083251953125,-1.1937775611877441,-1.0671372413635254,0.21639013290405273
1772556131778763500,4.920763427734375,-1.5033985376358032,-0.8250628113746643,0.0773901715874672
1772556131788694300,4.9306943359375,-1.74565589427948,-0.45793718099594116,0.11313559114933014
1772556131798626300,4.940626220703125,-1.877441167831421,-0.1521679311990738,0.31207960844039917
1772556131808557600,4.9505576171875,-1.8725333213806152,0.023749757558107376,0.5451565384864807
1772556131818488300,4.96048828125,-1.7152401208877563,0.16285011172294617,0.6656946539878845
1772556131828419300,4.97041943359375,-1.4172652959823608,0.28257861733436584,0.5696468949317932
1772556131838350600,4.9803505859375,-1.0384505987167358,0.3786543011665344,0.18295565247535706
1772556131848281300,4.99028125,-0.72770094871521,0.41973215341567993,-0.4820684492588043
1772556131858212400,5.00021240234375,-0.5363216996192932,0.33049285411834717,-1.3033151626586914
1772556131868144600,5.01014453125,-0.4202464520931244,0.09294749051332474,-2.104135036468506
1772556131878075400,5.020075439453125,-0.32712769508361816,-0.23309212923049927,-2.74774169921875
1772556131888006400,5.03000634765625,-0.2684282660484314,-0.560004472732544,-3.136753559112549
1772556131897937700,5.039937744140625,-0.3144724667072296,-0.7322249412536621,-3.2449800968170166
1772556131907868400,5.049868408203125,-0.4927162826061249,-0.5267935395240784,-3.0363821983337402
1772556131917799400,5.05979931640625,-0.7579295635223389,0.07800901681184769,-2.522315263748169
1772556131927731500,5.0697314453125,-1.0836260318756104,0.8849786520004272,-1.7997673749923706
1772556131937662500,5.079662353515625,-1.342861294746399,1.6124682426452637,-1.038598656654358
1772556131947593500,5.089593505859375,-1.4647470712661743,1.9723001718521118,-0.38924500346183777
1772556131957524500,5.0995244140625,-1.4866513013839722,1.8693612813949585,0.07539402693510056
1772556131967455500,5.10945556640625,-1.3696199655532837,1.513485312461853,0.25227847695350647
1772556131977386500,5.119386474609375,-1.1525236368179321,1.1023164987564087,0.15377108752727509
1772556131987317200,5.129317138671875,-0.9645992517471313,0.6909700036048889,-0.02309909276664257
1772556131997249300,5.139249267578125,-0.7093603014945984,0.45820707082748413,-0.25990793108940125
1772556132007180500,5.1491806640625,-0.4185592830181122,0.3496818542480469,-0.48518258333206177
1772556132017111600,5.159111572265625,-0.22159907221794128,0.12091366946697235,-0.6311211585998535
1772556132027042300,5.169042236328125,0.007986005395650864,-0.22328007221221924,-0.6182801127433777
1772556132036973600,5.1789736328125,0.3169230818748474,-0.4294734597206116,-0.43256062269210815
1772556132046904300,5.188904296875,0.5991730690002441,-0.33565860986709595,-0.13523301482200623
1772556132056835300,5.19883544921875,0.7003031373023987,-0.05531856045126915,0.25348225235939026
1772556132066767400,5.208767333984375,0.7020741701126099,0.12367808818817139,0.7358790040016174
1772556132076698600,5.21869873046875,0.7361000180244446,0.206217959523201,1.2131984233856201
1772556132086629400,5.22862939453125,0.7308464050292969,0.10648459941148758,1.5698364973068237
1772556132096560400,5.238560302734375,0.6622508764266968,0.014719521626830101,1.7016030550003052
1772556132106491400,5.248491455078125,0.5286267399787903,0.046738430857658386,1.6579582691192627
1772556132116422400,5.25842236328125,0.39472275972366333,0.24202188849449158,1.5201077461242676
1772556132126354400,5.2683544921875,0.29200172424316406,0.35123440623283386,1.4257922172546387
1772556132136285400,5.278285400390625,0.21962976455688477,0.2545371651649475,1.4249498844146729
1772556132146216400,5.288216552734375,0.17300443351268768,0.14554722607135773,1.4465886354446411
1772556132156147500,5.2981474609375,0.183588907122612,0.18647868931293488,1.3592581748962402
1772556132166078200,5.308078125,0.20232059061527252,0.24866342544555664,1.0923902988433838
1772556132176009500,5.318009521484375,0.23208913207054138,0.2890670597553253,0.7054250836372375
1772556132185940500,5.3279404296875,0.278245747089386,0.3849140405654907,0.32960447669029236
1772556132195872500,5.33787255859375,0.30505046248435974,0.5045837163925171,0.04282571002840996
1772556132205803500,5.347803466796875,0.3164835572242737,0.5236566066741943,-0.13051772117614746
1772556132215734500,5.357734619140625,0.3536085784435272,0.4383145272731781,-0.19457288086414337
1772556132225665300,5.367665283203125,0.40982457995414734,0.23119497299194336,-0.1499585062265396
1772556132235596500,5.377596435546875,0.40215787291526794,0.0018336959183216095,-0.009602461010217667
1772556132245527600,5.387527587890625,0.3587609827518463,-0.05611046031117439,0.17305579781532288
1772556132255459300,5.397459228515625,0.25694406032562256,0.04565025493502617,0.3826434016227722
1772556132265390300,5.407390380859375,0.1162172481417656,0.15178182721138,0.6331654191017151
1772556132275321600,5.417321533203125,-0.006965939886868,0.2135285586118698,0.8981803059577942
1772556132285252400,5.42725244140625,-0.06014696881175041,0.253478467464447,1.1433987617492676
1772556132295183400,5.437183349609375,-0.03960893675684929,0.2794632017612457,1.3347662687301636
1772556132305114600,5.447114501953125,0.03136646747589111,0.3315550684928894,1.3977969884872437
1772556132315045400,5.45704541015625,0.16882018744945526,0.4111936688423157,1.3131004571914673
1772556132324977400,5.466977294921875,0.31867557764053345,0.5303990840911865,1.0601189136505127
1772556132334908400,5.476908447265625,0.39758238196372986,0.6909480094909668,0.6219397187232971
1772556132344839400,5.48683935546875,0.40219035744667053,0.846386194229126,0.04721571132540703
1772556132354770400,5.4967705078125,0.4131609797477722,0.8698561191558838,-0.5436422824859619
1772556132364701400,5.506701416015625,0.4173349142074585,0.7813501358032227,-1.059048056602478
1772556132374632400,5.516632568359375,0.4115694463253021,0.6355932354927063,-1.4113842248916626
1772556132384564500,5.526564453125,0.43757081031799316,0.5502910017967224,-1.5283013582229614
1772556132394495200,5.5364951171875,0.5048134922981262,0.5761194229125977,-1.3946855068206787
1772556132404426200,5.54642626953125,0.6653763651847839,0.6691290736198425,-1.0470325946807861
1772556132414357200,5.556357177734375,0.8969485759735107,0.7054697871208191,-0.5434262156486511
1772556132424288300,5.566288330078125,1.1733888387680054,0.605653703212738,0.05992972105741501
1772556132434219300,5.57621923828125,1.4724704027175903,0.47001174092292786,0.6283431053161621
1772556132444150300,5.586150390625,1.7714756727218628,0.37600401043891907,0.9777977466583252
1772556132454082300,5.596082275390625,2.0472545623779297,0.2728680372238159,1.0370235443115234
1772556132464013300,5.606013427734375,2.2819082736968994,0.16353967785835266,0.8936663269996643
1772556132473944000,5.615944091796875,2.4456191062927246,0.017140643671154976,0.7274155616760254
1772556132483875300,5.625875244140625,2.5667643547058105,-0.22405891120433807,0.7010853290557861
1772556132493806300,5.635806396484375,2.661135196685791,-0.44187912344932556,0.8550213575363159
1772556132503737000,5.645737060546875,2.7919347286224365,-0.5222472548484802,1.0515697002410889
1772556132513669400,5.65566943359375,2.918445110321045,-0.4011714458465576,1.172961711883545
1772556132523600400,5.665600341796875,2.913944959640503,-0.11413979530334473,1.2476738691329956
1772556132533531100,5.67553125,2.8027946949005127,0.24142441153526306,1.295830488204956
1772556132543462400,5.68546240234375,2.6852972507476807,0.6073861718177795,1.2482842206954956
1772556132553393400,5.695393310546875,2.7003684043884277,0.7379401922225952,1.102467656135559
1772556132563324200,5.70532421875,2.8278398513793945,0.5173419117927551,0.935724675655365
1772556132573255400,5.71525537109375,2.965669631958008,0.10609368979930878,0.715829610824585
1772556132583187500,5.7251875,2.7816991806030273,-0.5432185530662537,0.4662292003631592
1772556132593118200,5.7351181640625,2.248735189437866,-1.151603102684021,0.25099971890449524
1772556132603049200,5.74504931640625,1.515223741531372,-1.2669758796691895,0.1686156541109085
1772556132612980500,5.75498046875,0.9573259949684143,-0.5913819670677185,0.27534422278404236
1772556132622911200,5.7649111328125,0.8640009164810181,0.5747228264808655,0.6414427757263184
1772556132632842200,5.77484228515625,1.0220885276794434,1.5550848245620728,1.1957520246505737
1772556132642773500,5.7847734375,1.2571312189102173,2.164811134338379,1.7312372922897339
1772556132652705300,5.794705322265625,1.4794199466705322,2.2034053802490234,1.9620643854141235
1772556132662636300,5.80463623046875,1.5644304752349854,1.7322053909301758,1.792098045349121
1772556132672567300,5.8145673828125,1.4402270317077637,1.070271611213684,1.473576307296753
1772556132682498300,5.824498291015625,1.148602843284607,0.4331836402416229,1.1305783987045288
1772556132692429300,5.83442919921875,0.9832615256309509,0.05596043914556503,0.8306147456169128
1772556132702360300,5.8443603515625,0.968860924243927,-0.16695471107959747,0.6972272396087646
1772556132712292000,5.8542919921875,1.0119919776916504,-0.3372252583503723,0.7655839323997498
1772556132722223400,5.864223388671875,1.0717880725860596,-0.5367433428764343,0.9259265065193176
1772556132732154400,5.874154296875,1.107847809791565,-0.682018518447876,1.0339809656143188
1772556132742085000,5.884085205078125,1.0061956644058228,-0.7206997871398926,1.0069866180419922
1772556132752016400,5.894016357421875,0.7063772678375244,-0.644679069519043,0.8278964757919312
1772556132761947400,5.903947509765625,0.1328563690185547,-0.6889697313308716,0.5219659209251404
1772556132771879200,5.913879150390625,-0.6238073110580444,-0.8682520985603333,0.10747793316841125
1772556132781810200,5.92381005859375,-1.1677167415618896,-0.9901891946792603,-0.3475698232650757
1772556132791741400,5.933741455078125,-1.4371330738067627,-1.1539547443389893,-0.7687810063362122
1772556132801672200,5.943672119140625,-1.5035245418548584,-1.2716107368469238,-1.0190242528915405
1772556132811603200,5.953603271484375,-1.4214632511138916,-1.197950839996338,-1.068820834159851
1772556132821534500,5.963534423828125,-1.228851079940796,-0.8808433413505554,-0.9586761593818665
1772556132831465200,5.97346533203125,-0.9688583016395569,-0.4688273072242737,-0.7395457029342651
1772556132841397200,5.983397216796875,-0.6601058840751648,-0.1550879031419754,-0.43515855073928833
1772556132851328300,5.993328369140625,-0.32442909479141235,-0.12253767251968384,-0.11355465650558472
1772556132861259300,6.00325927734375,-0.04679225757718086,-0.3512328267097473,0.11888925731182098
1772556132871190300,6.013190185546875,0.19931790232658386,-0.5670130848884583,0.20863938331604004
1772556132881121300,6.023121337890625,0.4674379527568817,-0.5943381190299988,0.18129433691501617
1772556132891052300,6.03305224609375,0.7247728109359741,-0.1957521140575409,0.09679676592350006
1772556132900983300,6.0429833984375,1.0348529815673828,0.7570788860321045,0.04009901359677315
1772556132910915300,6.052915283203125,1.3949190378189087,2.0603930950164795,0.03728325664997101
1772556132920846300,6.062846435546875,1.8087010383605957,3.34932804107666,0.022100873291492462
1772556132930777300,6.07277734375,2.277595281600952,4.365198612213135,0.0012382036074995995
1772556132940708400,6.082708251953125,2.595094919204712,4.819610118865967,0.038270432502031326
1772556132950639400,6.092639404296875,2.681436061859131,4.6238112449646,0.07878084480762482
1772556132960570400,6.1025703125,2.5473718643188477,4.104740142822266,0.02259175479412079
1772556132970502400,6.11250244140625,2.12599778175354,3.334426164627075,-0.11867163330316544
1772556132980433200,6.12243310546875,1.5159591436386108,2.037182569503784,-0.29152819514274597
1772556132990364400,6.132364501953125,0.8484076857566833,0.3467680811882019,-0.43193376064300537
1772556133000295400,6.14229541015625,0.4180343747138977,-1.1966110467910767,-0.31363391876220703
1772556133010226200,6.15222607421875,0.19414907693862915,-2.880290985107422,-0.0015867874026298523
1772556133020157400,6.162157470703125,-0.226601243019104,-4.595846176147461,0.16297699511051178
1772556133030088200,6.172088134765625,-0.5757866501808167,-3.858349323272705,-0.05442109704017639
1772556133040020200,6.182020263671875,-0.6983073353767395,-1.1720890998840332,-0.5205626487731934
1772556133049951200,6.191951171875,-0.9405381083488464,1.2801944017410278,-0.5783708095550537
1772556133059882500,6.201882568359375,-0.8490042090415955,2.6040499210357666,-0.07098417729139328
1772556133069813200,6.211813232421875,-0.3006092607975006,3.0048794746398926,0.7467974424362183
1772556133079744300,6.221744140625,0.3780621588230133,2.7733097076416016,1.5569746494293213
1772556133089675300,6.23167529296875,1.040126085281372,2.034998655319214,2.0981106758117676
1772556133099607300,6.241607177734375,1.4390785694122314,1.0389201641082764,2.2057998180389404
1772556133109538300,6.251538330078125,1.49560546875,0.1622280478477478,1.8344624042510986
1772556133119469300,6.26146923828125,1.265177845954895,-0.09004918485879898,1.062901258468628
1772556133129400300,6.271400390625,0.8422998189926147,0.46196871995925903,0.06932463496923447
1772556133139331300,6.281331298828125,0.3731820285320282,1.3803110122680664,-0.9045171141624451
1772556133149262000,6.291261962890625,-0.01390043180435896,2.071498155593872,-1.6291110515594482
1772556133159193300,6.301193359375,-0.26065903902053833,2.1394596099853516,-1.9889153242111206
1772556133169125400,6.31112548828125,-0.3416779935359955,1.6647850275039673,-1.996193289756775
1772556133179056400,6.321056396484375,-0.3145756721496582,0.8573834896087646,-1.7306079864501953
1772556133188987100,6.330987060546875,-0.18438945710659027,0.015302594751119614,-1.2866699695587158
1772556133198918400,6.34091845703125,0.024539383128285408,-0.6111118197441101,-0.7748780846595764
1772556133208849200,6.35084912109375,0.25387510657310486,-0.8477877378463745,-0.30056190490722656
1772556133218780200,6.3607802734375,0.4876231849193573,-0.7171092629432678,0.05905677378177643
1772556133228712400,6.37071240234375,0.6682858467102051,-0.3968033790588379,0.29043006896972656
1772556133238643500,6.3806435546875,0.7371641397476196,-0.06651778519153595,0.42077478766441345
1772556133248574200,6.39057421875,0.7351536750793457,0.1535613238811493,0.48617270588874817
1772556133258505500,6.40050537109375,0.7136936187744141,0.15881863236427307,0.4911346137523651
1772556133268436200,6.410436279296875,0.6910991072654724,-0.01855613850057125,0.44085413217544556
1772556133278367200,6.4203671875,0.66670161485672,-0.2905844748020172,0.3260132968425751
1772556133288298500,6.430298583984375,0.6280484795570374,-0.5884382128715515,0.183488130569458
1772556133298230500,6.44023046875,0.5642939805984497,-0.8655203580856323,0.06379177421331406
1772556133308161300,6.450161376953125,0.4459042251110077,-1.195604681968689,0.027956541627645493
1772556133318092300,6.46009228515625,0.2281053066253662,-1.5737284421920776,0.09783751517534256
1772556133328023300,6.470023193359375,-0.052230484783649445,-1.8951349258422852,0.29148155450820923
1772556133337954300,6.479954345703125,-0.30830782651901245,-2.039529800415039,0.5813547968864441
1772556133347885300,6.48988525390625,-0.49490058422088623,-1.955722451210022,0.9149245023727417
1772556133357817300,6.4998173828125,-0.5620211362838745,-1.6677314043045044,1.257595181465149
1772556133367748400,6.509748291015625,-0.44206488132476807,-1.2499699592590332,1.541521668434143
1772556133377679400,6.519679443359375,-0.14228668808937073,-0.7889766097068787,1.6976171731948853
1772556133387611000,6.52961083984375,0.21785445511341095,-0.43367576599121094,1.7176753282546997
1772556133397542000,6.5395419921875,0.5526435375213623,-0.3946533203125,2.069817304611206
1772556133407473000,6.549472900390625,0.7041957974433899,-0.2006838619709015,2.0448508262634277
1772556133417405000,6.559405029296875,0.6664807200431824,-0.044829435646533966,1.9829689264297485
1772556133427336000,6.5693359375,0.4459874927997589,0.021328013390302658,1.803859829902649
1772556133437267000,6.579266845703125,0.27891436219215393,0.07674311101436615,1.498764991760254
1772556133447198000,6.589197998046875,0.2747989892959595,0.1414635181427002,1.0691947937011719
1772556133457129000,6.59912890625,0.3969423174858093,0.3343350887298584,0.5772781372070312
1772556133467060000,6.60906005859375,0.5506804585456848,0.5782366991043091,0.24272972345352173
1772556133476991000,6.618990966796875,0.5392974615097046,0.7415096759796143,-0.11317063868045807
