time,seconds_elapsed,z,y,x
1772555855876338000,0.072337890625,-0.01092354507446289,-0.014765095998719334,0.015024504986731335
1772555855886269200,0.082269287109375,-0.024541736060380934,-0.011058852758770808,0.015676630486221983
1772555855896201200,0.092201171875,-0.018107319098711012,-0.011574830323737115,0.020125435721781104
1772555855906132000,0.102132080078125,-0.01631049880981445,-0.019014186544250695,0.017448252401780336
1772555855916064000,0.11206396484375,-0.01945288848876953,-0.01220337401824072,0.01938274586200714
1772555855925995000,0.1219951171875,-0.014813538250327109,-0.014604142416501417,0.022223275650711728
1772555855935926000,0.131926025390625,-0.013466799816489218,-0.010991413545748218,0.014309643848799168
1772555855945858000,0.141858154296875,-0.012120061382651329,-0.020551378649426622,0.010642892369022593
1772555855955789000,0.1517890625,-0.022295418438315392,-0.018969680682243778,0.0140855619024951
1772555855965721000,0.16172119140625,-0.021996143230795857,-0.009559517579106613,0.01987484936104156
1772555855975652000,0.171652099609375,-0.01705868682861328,-0.009898933000769465,0.018220177489193155
1772555855985583000,0.1815830078125,-0.023345219752192496,-0.010032350122090429,0.021368923843698574
1772555855995515100,0.19151513671875,-0.017807459369301795,-0.019568139765737576,0.02221653538267128
1772555856005446000,0.20144580078125,-0.011671733093261718,-0.012110873429197817,0.018797694249358027
1772555856015378000,0.2113779296875,-0.012567805150151252,-0.028546770450659096,0.013947066747257484
1772555856025309200,0.22130908203125,-0.03232347597777843,-0.003132863798784092,0.020212776078516615
1772555856035240200,0.231240234375,-0.020954525223374366,-0.009550174362026154,0.012158155770180746
1772555856045172000,0.241171875,-0.021105331870913506,-0.01393154951771721,0.026149335653800516
1772555856055103000,0.25110302734375,-0.017512860336899756,-0.018193609142675995,0.002738640316808596
1772555856065035000,0.261034912109375,-0.021103578305244446,-0.002335740338033065,0.014386627208301797
1772555856074966000,0.270966064453125,-0.010929390293359756,-0.013372353865532203,0.019341107810521497
1772555856084897000,0.28089697265625,-0.018408347871899603,-0.0033567904814612117,0.023970046252803877
1772555856094829000,0.2908291015625,-0.019907646518945693,-0.006750707236072048,0.01266479925122112
1772555856104760000,0.300760009765625,-0.013619944551587104,-0.027570326633937655,0.008199508671741932
1772555856114691000,0.310691162109375,-0.02095394070148468,-0.006001825097529217,0.016041920134657994
1772555856124623000,0.320623046875,-0.010183540362119674,-0.013704115703701973,0.013420832649758085
1772555856134554000,0.33055419921875,-0.03038870852291584,-0.00006873612096533179,0.016070242046844214
1772555856144486000,0.34048583984375,-0.01796878741085529,-0.01148258546302095,0.008085892229434103
1772555856154417200,0.350417236328125,-0.02335632566809654,-0.011890216415841131,0.01609565961589105
1772555856164348200,0.36034814453125,-0.0308346987247467,-0.015438492615101858,0.012595460342057049
1772555856174280200,0.3702802734375,-0.018863105902075766,-0.011611070680897681,0.020306253915093837
1772555856184211000,0.3802109375,-0.01647124232947826,-0.006773092597816139,0.012327347457781433
1772555856194143000,0.39014306640625,-0.01677110205888748,-0.01187099112556316,0.007975974714709445
1772555856204074200,0.40007421875,-0.017519874599575994,-0.01056494089514017,0.015297431043442338
1772555856214005000,0.4100048828125,-0.03143734079301357,-0.010057475430192425,0.019129757481627166
1772555856223937000,0.41993701171875,-0.0245563491076231,-0.013955049124313518,0.009005262963520362
1772555856233868000,0.429867919921875,-0.022311200529336928,-0.018244499079696833,0.009886922902567312
1772555856243800000,0.439800048828125,-0.01318272217810154,-0.009306529198726638,0.019231710885604842
1772555856253731000,0.44973095703125,-0.010037409889698028,-0.00768244426138699,0.01865802091718651
1772555856263662000,0.459662109375,-0.029786650976538657,-0.014784120359597726,0.01945549143780954
1772555856273594000,0.469593994140625,-0.017069208222627637,-0.0052013863016851245,0.02104278802871704
1772555856283524900,0.47952490234375,-0.016619710889458655,-0.003110715899057686,0.010307778663141653
1772555856293457200,0.48945703125,-0.017219430348277092,-0.0017882442567963151,0.008872357298852876
1772555856303388200,0.49938818359375,-0.016323358291387556,-0.0011911186138633637,0.017506028737314043
1772555856313319000,0.50931884765625,-0.009742810857295989,-0.014580113086942582,0.005531869498221203
1772555856323251000,0.5192509765625,-0.008099719825387,-0.007686554180923849,0.0135635564555414
1772555856333182200,0.52918212890625,-0.014085808497667312,-0.010728159499680623,0.014222751016635447
1772555856343114200,0.5391142578125,-0.014386837270855903,-0.0060867269020061935,0.01279529376309365
1772555856353045000,0.549044921875,-0.012741408151388167,-0.0007378036221023648,0.010593107543699442
1772555856362976000,0.55897607421875,-0.017829671201109884,-0.0036053127492778002,0.02119008754491806
1772555856372908000,0.568907958984375,-0.00899812996983528,-0.006872945376252755,0.016173236630437893
1772555856382839000,0.578839111328125,-0.019920506000518798,-0.009133949110796675,0.011370539923291652
1772555856392770000,0.58877001953125,-0.02171732628941536,-0.009550877614924683,0.013784222602052613
1772555856402702000,0.5987021484375,-0.016181319472193718,-0.0122712607558351,0.016339067317172884
1772555856412633000,0.608633056640625,-0.02246609883010387,-0.008634356425050645,0.011874699186300857
1772555856422564900,0.61856494140625,-0.017078560572862625,-0.011159746716823429,0.01476345203090459
1772555856432496000,0.62849609375,-0.022015432453155515,-0.016349625243805347,0.011709717882936819
1772555856442427100,0.63842724609375,-0.017677695509791373,-0.006471406237501651,0.014884849920868873
1772555856452359000,0.64835888671875,-0.016480010157823563,-0.00833924593599513,0.009984912517480552
1772555856462290200,0.658290283203125,-0.013486089038848877,-0.003884778144629672,0.006364776658406481
1772555856472222200,0.66822216796875,-0.012886954101920128,0.0036341826507356014,0.0033909393462352453
1772555856482153200,0.6781533203125,-0.025309797823429105,-0.0039044326931703833,0.009579902780009433
1772555856492084000,0.688083984375,-0.01992401313185692,-0.008242571495333686,0.00901290741385892
1772555856502016000,0.69801611328125,-0.019622984358668327,-0.0019608060784172265,0.011634031431376934
1772555856511947300,0.707947265625,-0.02037058785557747,-0.010634727328876032,0.0021120328510645776
1772555856521879000,0.717879150390625,-0.017975801673531532,-0.005822148548532277,0.00830852200416848
1772555856531810000,0.72781005859375,-0.016181319472193718,-0.0029819749528542158,0.015088692796742543
1772555856541741000,0.737740966796875,-0.012141104170680045,-0.004270051135169342,0.018271304888231678
1772555856551673000,0.747673095703125,-0.015433715975284576,0.001035526193352416,0.014351793356938286
1772555856561604000,0.75760400390625,-0.017377835780382156,-0.008165186277031899,0.014786376248765736
1772555856571536100,0.7675361328125,-0.019323124629259107,-0.001659503310592845,0.012243331569293513
1772555856581467100,0.777467041015625,-0.016030512824654577,-0.008666039338102564,0.003765544812288135
1772555856591398000,0.78739794921875,-0.019172902503609656,-0.0018790186796337365,0.005905863042920827
1772555856601330000,0.797329833984375,-0.010495090529322624,-0.0022270010002423076,0.0046647130085621024
1772555856611261200,0.80726123046875,-0.015432546931505203,-0.0051429523790255186,0.006069300843169912
1772555856621193200,0.817193115234375,-0.02052080998122692,-0.007673795164050534,0.004848782604886219
1772555856631124000,0.8271240234375,-0.017528057906031607,-0.0037282632755115627,0.006960157868824899
1772555856641055200,0.83705517578125,-0.016477672070264817,-0.003812489226553589,0.01858257192764431
1772555856650987300,0.8469873046875,-0.01692541583776474,-0.0025951401928905396,0.014538283239211885
1772555856660918000,0.85691796875,-0.014980711510777473,-0.005490459775598719,0.01072318193046376
1772555856670850000,0.86685009765625,-0.02799742947220802,-0.00224517597774975,0.008936316780000925
1772555856680781000,0.876781005859375,-0.015130349114537239,-0.005279255577176809,0.005981814355961978
1772555856690712000,0.886712158203125,-0.01737666673660278,-0.003250270500220358,0.005981421630317345
1772555856700644000,0.89664404296875,-0.02336333993077278,-0.011748250661883503,0.007402997132344171
1772555856710575000,0.9065751953125,-0.027253917628526685,-0.001069711590744555,0.009596534254401922
1772555856720505900,0.916505859375,-0.018425299006700514,-0.005477901688124984,0.011099650560040026
1772555856730438000,0.92643798828125,-0.018724574214220045,-0.002170841233059764,0.0054936289802193635
1772555856740369200,0.936369140625,-0.02785071447789669,-0.0036881778602954,0.0038214397179894147
1772555856750301200,0.94630126953125,-0.020815993535518645,0.0005291567069478333,0.008395862360903993
1772555856760232000,0.95623193359375,-0.018422376397252083,-0.0070058327746111895,0.010644381073210387
1772555856770163000,0.966162841796875,-0.015279402196407317,-0.0033972046902403233,0.0032194826363120227
1772555856780095000,0.976094970703125,-0.02156476607620716,-0.005281986390380189,0.013786323227593674
1772555856790026000,0.98602587890625,-0.013183306699991225,-0.009107536027906461,0.005088893237384036
1772555856799958000,0.9959580078125,-0.01153612401485443,-0.010938331651641056,0.003200814468460157
1772555856809889000,1.005888916015625,-0.017221768435835838,-0.004629203303763643,0.009870656754355877
1772555856819819300,1.0158193359375,-0.020213935989141462,0.0021608495620079335,0.009755222814297302
1772555856829751300,1.025751220703125,-0.01841594665646553,-0.004540894832648337,0.006292341609857976
1772555856839682000,1.03568212890625,-0.022606384083628653,-0.0098569752888754,0.0111615733477287
1772555856849614000,1.045614013671875,-0.026646599385142324,-0.006179245757358148,0.011326856045192107
1772555856859545300,1.05554541015625,-0.012729717713594435,-0.002829506071191281,0.0016715408082585781
1772555856869476000,1.06547607421875,-0.017218845826387403,-0.010629585362877695,0.010845968059916049
1772555856879408000,1.075408203125,-0.021259645649790763,-0.0030572960782330482,0.00045913281119428574
1772555856889339100,1.085339111328125,-0.0202121824234724,-0.0010259272479452193,0.004458961303392425
1772555856899271200,1.095271240234375,-0.010334347009658813,-0.0021632881142664697,0.0035183377187233415
1772555856909202200,1.1052021484375,-0.02155833633542061,-0.000026632278598845005,0.0010194792408496141
1772555856919133200,1.11513330078125,-0.017367898908257483,0.0015948131770826875,0.007785128317726776
1772555856929065200,1.125065185546875,-0.0205085350215435,-0.007796426029875874,0.005044423907995223
1772555856938996000,1.134995849609375,-0.025295184776186943,0.000183914332697168,0.007848530676448718
1772555856948928000,1.144927978515625,-0.01676642588376999,-0.01036625825157389,0.003954820306692272
1772555856958859300,1.154859375,-0.024998247656226158,-0.010433606133051216,0.012520367545541375
1772555856968790300,1.164790283203125,-0.01692015514075756,0.00038706308882683515,0.010314053140301257
1772555856978722000,1.17472216796875,-0.018420038309693337,-0.0025144122400321063,0.007701797415828332
1772555856988653000,1.184653076171875,-0.016773440146446227,0.00015551935527473686,0.002289955834392458
1772555856998584300,1.194584228515625,-0.02350713231563568,0.0026326500585302707,0.0015733319976367055
1772555857008516000,1.20451611328125,-0.02425648937821388,-0.005495510410051792,0.007934930318268016
1772555857018447000,1.214447021484375,-0.021714988201856612,-0.0035932021863758564,0.005446593234408647
1772555857028379100,1.224379150390625,-0.02066635593175888,-0.0023341694354545323,0.004744892972148955
1772555857038310400,1.234310302734375,-0.02201309436559677,0.0021990992131642995,0.01128597604553215
1772555857048241200,1.2442412109375,-0.024555764585733414,-0.005005133077222853,0.010585855819005518
1772555857058173200,1.254173095703125,-0.02081540901362896,-0.009572404460143298,0.005437085620546713
1772555857068104200,1.264104248046875,-0.01123860237300396,-0.003144873896986246,0.008533270670752971
1772555857078036200,1.2740361328125,-0.029046061742305753,-0.008351429564133286,0.011694209786551073
1772555857087967200,1.28396728515625,-0.02021978120803833,-0.0035389055827166884,0.004366341983340681
1772555857097898200,1.293898193359375,-0.01857669017612934,-0.000005370294861495495,0.007503690160997212
1772555857107830300,1.303830322265625,-0.021270167043805122,-0.005285027730837464,0.016280861723376436
1772555857117761000,1.313760986328125,-0.011094225466251372,-0.0025010778344236313,0.01228688758322969
1772555857127693000,1.323693115234375,-0.008546879070997238,-0.0033781437967438247,0.008472288597980514
1772555857137624300,1.333624267578125,-0.01213701251745224,-0.0009741696612443774,0.007171617795573547
1772555857147555000,1.34355517578125,-0.02410802081823349,-0.00151382036274299,0.013205755993817
1772555857157487000,1.353487060546875,-0.022308862441778182,-0.01616411260906607,0.0055532684792764485
1772555857167418400,1.36341845703125,-0.013628712379932403,-0.004135647633159533,0.008721431920304895
1772555857177350400,1.373350341796875,-0.020662264278531073,0.0035762875841930507,0.0032323421178851275
1772555857187281200,1.38328125,-0.014678513693809509,-0.0037372411664109676,-0.0028600382067728784
1772555857197212200,1.393212158203125,-0.025302783560752867,-0.0020413696344941854,0.007987217627931385
1772555857207144200,1.403144287109375,-0.015574585750699043,-0.007452617560885846,0.003787564847851172
1772555857217075200,1.4130751953125,-0.015722469788789748,-0.006886626841733232,0.004989387518819421
1772555857227006200,1.423006103515625,-0.0166220489770174,-0.0016214911214541643,-0.0017587807002943008
1772555857236938200,1.432938232421875,-0.018868951120972633,-0.0008672112885862588,0.0019830544428434222
1772555857246869000,1.442868896484375,-0.020513211196660993,-0.008403251082915812,0.009033283481607214
1772555857256801000,1.452801025390625,-0.019465747970342635,0.0008002013338264078,0.009797390588745474
1772555857266732300,1.462732177734375,-0.024555180063843725,-0.002533966323873028,0.0026520032129716126
1772555857276663300,1.472663330078125,-0.023507716837525366,-0.0009147493578959255,-0.000896720510860905
1772555857286595000,1.482594970703125,-0.020516133806109428,-0.0033582609193399545,-0.008752712974557653
1772555857296526000,1.492526123046875,-0.01961889270544052,-0.010723748186044395,0.00759056472685188
1772555857306458000,1.5024580078125,-0.017824995025992392,-0.002851215579500422,0.0064464361930266015
1772555857316389000,1.51238916015625,-0.021117022308707236,-0.0037714082974940537,-0.0025440493264701214
1772555857326320000,1.522320068359375,-0.025906010150909424,-0.002648861407814547,0.008153514105547219
1772555857336252200,1.532252197265625,-0.02500467739701271,-0.0010215433337725699,0.004214822949748486
1772555857346183400,1.542183349609375,-0.015579261925816535,-0.004975587322330102,0.012448270423710345
1772555857356115200,1.552115234375,-0.01767477290034294,-0.003434120900835842,0.0020062069895677268
1772555857366046200,1.562046142578125,-0.019321955585479736,-0.004174637069832533,-0.0029768421200104056
1772555857375977200,1.571977294921875,-0.030546529433131218,-0.0040492936571128665,0.0032942283729556947
1772555857385909000,1.581908935546875,-0.02395896773636341,-0.0037445659563411027,0.0037209932845085857
1772555857395840300,1.59184033203125,-0.022167992666363715,-0.0051966827271040525,0.007077117045689374
1772555857405771300,1.601771240234375,-0.018726327779889106,-0.004586770667834207,0.0010889186147134751
1772555857415703300,1.611703369140625,-0.01797989332675934,-0.0046565205689519645,0.0005088719707448035
1772555857425634000,1.621634033203125,-0.02112345204949379,-0.00945845922427252,-0.001366365582915023
1772555857435566000,1.631566162109375,-0.018431728747487067,-0.0014511395232286303,0.004095708348415792
1772555857445497300,1.641497314453125,-0.02262391974031925,0.0028756833004765212,0.015468632025038823
1772555857455428000,1.651427978515625,-0.023970073652267453,-0.0008873955600894987,0.013941431590914726
1772555857465360100,1.661360107421875,-0.028906945532560346,0.000979156363615766,0.0012139058344066143
1772555857475291100,1.671291015625,-0.017234627917408943,-0.0006718531132675707,0.003249019258050248
1772555857485223200,1.68122314453125,-0.008256371691823005,0.0011327486232854426,-0.0018348324780352412
1772555857495154200,1.691154296875,-0.01798456950187683,-0.002787758421851322,0.008608710527140647
1772555857505085200,1.701085205078125,-0.016038111609220505,0.00103609244893305,0.005476467782864347
1772555857515017200,1.711017333984375,-0.025316227564215657,0.0013584014721680431,0.0140308725731913
1772555857524948200,1.7209482421875,-0.02456687050163746,-0.005974389101332053,0.00432289556725882
1772555857534880300,1.73088037109375,-0.014987725773453711,0.0009193798672407865,-0.0012251487476285547
1772555857544811300,1.740811279296875,-0.0076554831892251965,-0.0002937953148037195,0.0012825140912085772
1772555857554742000,1.750741943359375,-0.023965981999039647,-0.003730345634743571,0.001163764816056937
1772555857564674000,1.760674072265625,-0.022469605961441992,-0.0019893289200030267,0.0023156382649205626
1772555857574605300,1.770605224609375,-0.017833178332448005,-0.006075474855629727,0.003768175160791725
1772555857584536000,1.7805361328125,-0.022919687816500663,-0.009946461936924606,0.011164240228850394
1772555857594468000,1.790468017578125,-0.01992693574130535,-0.00613719671391882,0.0053876935208681965
1772555857604399000,1.800399169921875,-0.01633621777296066,-0.0020415066318120807,0.004159229438146576
1772555857614331100,1.8103310546875,-0.022917934250831603,-0.00449984130305238,0.00829875866197981
1772555857624262100,1.82026220703125,-0.021420389169454573,0.004233308454509825,0.004270745254913345
1772555857634193200,1.830193115234375,-0.011543722799420356,-0.00010286671943031251,0.00376132529489696
1772555857644125200,1.840125244140625,-0.017232289829850197,-0.005089550824509933,0.004127263397304341
1772555857654056200,1.85005615234375,-0.01184767418205738,-0.0074240307872183615,0.002405289309751242
1772555857663988200,1.85998828125,-0.016786884149909018,-0.008670815977919846,-0.0007712857665959746
1772555857673919200,1.869919189453125,-0.016936521753668783,-0.001931753513868898,0.0020679288478568196
1772555857683850200,1.879850341796875,-0.018583119916915893,-0.0014592040986753999,0.012964375852840021
1772555857693782000,1.889781982421875,-0.03010638445019722,-0.006713900623330846,0.009127957761427387
1772555857703713300,1.89971337890625,-0.012148702955245972,-0.0016800985740497707,-0.004526902839913964
1772555857713645300,1.909645263671875,-0.0250181214004755,-0.00477490451792255,-0.0031781368457712233
1772555857723576300,1.919576416015625,-0.02756312970817089,-0.002166219856869429,0.0035426136434543874
1772555857733507000,1.929507080078125,-0.025467618733644483,-0.0026095979765057564,0.004984309484902769
1772555857743439000,1.939439208984375,-0.015741759011149405,-0.005477371965162456,0.009445800672098994
1772555857753370400,1.949370361328125,-0.018584873482584953,-0.006145361754065379,0.00928283779588528
1772555857763301000,1.959301025390625,-0.020528993287682533,-0.0036220355552155524,-0.0009957604385446757
1772555857773233200,1.969233154296875,-0.01918283937573433,-0.007928573642717674,0.011133287968160583
1772555857783164200,1.9791640625,-0.013348141872882842,-0.002479386592423543,0.007089994793571531
1772555857793096200,1.98909619140625,-0.023824527701735494,-0.0025676219983026384,0.015749522192496805
1772555857803027200,1.999027099609375,-0.02577157011628151,-0.008131119610648602,0.007949716895446182
1772555857812958200,2.008958251953125,-0.018736849173903464,-0.0034302301770076154,0.007865527477022259
1772555857822891300,2.018891357421875,-0.015293430721759795,-0.002586628092871979,0.0015034450992010534
1772555857832822000,2.028822021484375,-0.013198504269123076,0.002095383110363036,0.0029115857309196143
1772555857842754000,2.038754150390625,-0.022473113092780113,0.0010113598664756864,0.011853775129280984
1772555857852685300,2.048685302734375,-0.014090484672784804,-0.007037871880689635,0.004285659696254879
1772555857862616300,2.0586162109375,-0.013940262547135353,-0.00816415423057042,0.003113976435223594
1772555857872548000,2.068548095703125,-0.023665537747740745,-0.0009249602246563881,0.009590661636041477
1772555857882479000,2.07847900390625,-0.017529226949810982,-0.002040666381595656,-0.0002577650201972574
1772555857892411100,2.0884111328125,-0.02620937701165676,-0.00447054214333184,0.0013159323036205023
1772555857902342100,2.098342041015625,-0.016034019955992698,-0.00021323175872676073,0.0000860617151018232
1772555857912273200,2.108273193359375,-0.018576105654239655,0.006776006074110046,0.0024994247334543616
1772555857922205200,2.118205078125,-0.021566519641876218,0.0009959887674078345,0.0013535152344964444
1772555857932136200,2.12813623046875,-0.023211948761343956,-0.005222209894005209,0.008073352408269419
1772555857942068200,2.138068115234375,-0.02007072812616825,-0.002882259171735495,0.0077331058695446694
1772555857951999200,2.147999267578125,-0.019772037440538404,-0.00019765973025932907,0.0091520144904498
1772555857961930200,2.15793017578125,-0.02111760683059692,-0.0012486209547612815,0.0076602141632698476
1772555857971862000,2.167862060546875,-0.02366144609451294,0.005603811356425285,-0.0016899989135563372
1772555857981793300,2.177793212890625,-0.019323124629259107,0.004638089863117784,0.003978986633569002
1772555857991724300,2.187724365234375,-0.01662906323969364,0.0019002075981348753,0.020776620506355536
1772555858001656300,2.19765625,-0.02560673494338989,-0.002396923340205103,0.0069603770645335315
1772555858011587000,2.207587158203125,-0.012439210334420204,-0.0022059764785226435,0.0006454308972228318
1772555858021519000,2.21751904296875,-0.021266075390577316,0.0019776567485183475,0.007614931983128189
1772555858031450400,2.227450439453125,-0.02231470766067505,-0.009711794664524495,0.0017218644896987824
1772555858041381000,2.237381103515625,-0.023064064723253248,-0.005317971019214019,0.004467117210384458
1772555858051313200,2.247313232421875,-0.01483399651646614,0.0035229590949136763,0.0010950469614006578
1772555858061244200,2.257244140625,-0.02246609883010387,-0.0051550994745455676,0.005662482741102576
1772555858071176200,2.26717626953125,-0.01184065991938114,-0.0018189499223139137,0.005140888286102563
1772555858081107200,2.277107177734375,-0.018274492359161378,-0.0023947496494278312,0.00710993246990256
1772555858091038200,2.2870380859375,-0.019620061749219892,-0.007979399647656827,0.013938134522130712
1772555858100970200,2.29697021484375,-0.01288461601436138,-0.008785026075271889,0.008933942159824073
1772555858110901000,2.30690087890625,-0.01752455077469349,-0.003449893858702853,0.004098749688873068
1772555858120832300,2.316832275390625,-0.011988543957471847,0.002879510092223063,0.006911989611852913
1772555858130764300,2.326764404296875,-0.024112112471461295,-0.004178792655142024,0.00251730745001696
1772555858140695000,2.336695068359375,-0.021418635603785513,0.0010569982396438718,0.005523759257001802
1772555858150627000,2.346626953125,-0.023065233767032622,-0.0029807511101476846,0.005124722602590918
1772555858160558300,2.356558349609375,-0.018276245924830434,-0.0028526312184520065,0.0012646222414914518
1772555858170489000,2.366489013671875,-0.021119944918155668,-0.006527355942130089,0.00639535445976071
1772555858180421000,2.376421142578125,-0.016330372554063798,-0.001211905673565343,0.007137158403545617
1772555858190352100,2.38635205078125,-0.015283493849635123,0.0009012962212786077,-0.0009158179369755089
1772555858200284200,2.3962841796875,-0.02470832479894161,0.0014107892465312034,0.004199415318062528
1772555858210215200,2.406215087890625,-0.019618308183550835,-0.0037528679938055574,0.006359844754962251
1772555858220146200,2.416146240234375,-0.020215689554810522,0.005009736187104136,0.010621931779384612
1772555858230078200,2.426078125,-0.013480828341841698,-0.0015162315155379472,0.004530473903333768
1772555858240009200,2.43600927734375,-0.01991466078162193,-0.004369931313069537,0.0010710632976144551
1772555858249941000,2.44594091796875,-0.011235679763555526,-0.002430177155835554,0.0054053661748766895
1772555858259872300,2.455872314453125,-0.015724807876348494,-0.009142780871223657,0.013326121837319805
1772555858269803300,2.46580322265625,-0.021259061127901074,-0.01094761093663983,0.0038984596101101486
1772555858279735000,2.475735107421875,-0.02544774498939514,-0.010540098714828491,0.006360602806787938
1772555858289666000,2.485666015625,-0.01976151604652405,-0.002987436579260975,0.004323544021230191
1772555858299597300,2.495597412109375,-0.022602876952290532,-0.00035564503725618124,0.0036297804702538996
1772555858309529300,2.505529296875,-0.017813304588198662,-0.0020813180523924528,0.004684066163003445
1772555858319460000,2.515460205078125,-0.022903905725479123,-0.003276921045128256,0.0005114931860938668
1772555858329392000,2.52539208984375,-0.01901157446205616,-0.0009050408146344125,-0.002809084337670356
1772555858339323400,2.535323486328125,-0.02424655250608921,-0.0018727533356286583,0.0028916115219704804
1772555858349254100,2.545254150390625,-0.02439677463173866,-0.00030228001535870133,-0.0017961992343887687
1772555858359186200,2.555186279296875,-0.006889759513735771,0.0013214487289544194,0.001730266991863027
1772555858369117200,2.5651171875,-0.010030980148911475,0.00020491145495325327,0.009646593074360861
1772555858379049200,2.57504931640625,-0.020355974808335304,0.00197564745452255,0.004491886325459927
1772555858388980200,2.584980224609375,-0.02230418626666069,-0.002372674814937636,-0.0008375742021482438
1772555858398911200,2.5949111328125,-0.02006079125404358,0.0007529829249251634,0.006425758731178939
1772555858408843300,2.60484326171875,-0.017963526713848113,-0.0041594851664733135,0.0030882940046954898
1772555858418774000,2.61477392578125,-0.01976093152463436,-0.0029242260167840865,0.006047481737006455
1772555858428706000,2.6247060546875,-0.01871171473264694,0.001928465578239411,0.004683682570513338
1772555858438637300,2.63463720703125,-0.019309680625796317,-0.004699857387179509,0.005226694272877648
1772555858448568000,2.644568115234375,-0.014670330387353896,-0.003031841976568103,-0.003965259502315893
1772555858458500000,2.6545,-0.01856149260699749,-0.010564219375932589,0.0021965693293605
1772555858468431400,2.664431396484375,-0.016018822386860847,-0.004380480106547475,0.0007043123444542288
1772555858478362000,2.674362060546875,-0.02364917113482952,0.00193790926001966,0.005156752575514838
1772555858488294100,2.684294189453125,-0.025445406901836394,-0.002186084467964247,0.005690037468308582
1772555858498225200,2.69422509765625,-0.010780337211489677,-0.0017709917278960347,0.007012171183852479
1772555858508157200,2.7041572265625,-0.023650340178608894,-0.003195005782181397,0.007673959560832009
1772555858518088200,2.714088134765625,-0.024847441008687018,-0.006175300234602764,0.00028439729879610237
1772555858528019200,2.724019287109375,-0.011679331877827643,-0.004103243200900033,-0.0030944132182281463
1772555858537951200,2.733951171875,-0.020210428857803345,0.0025316739020869133,-0.0011831179704982788
1772555858547882000,2.743882080078125,-0.010337269619107246,0.005393146014120429,0.00006327449455857277
1772555858557814000,2.75381396484375,-0.007645546317100524,-0.005555478702671825,-0.0055293304812628775
1772555858567745300,2.763745361328125,-0.011835983744263649,-0.005055237562954426,0.0009070957744028419
1772555858577676300,2.77367626953125,-0.021411621341109275,-0.00030089177587069567,0.005126238706242293
1772555858587608000,2.783608154296875,-0.017820903372764586,0.0002604136350098997,0.006789130417164415
1772555858597539000,2.7935390625,-0.01153612401485443,0.000008977890899404883,0.006889037994528189
1772555858607470300,2.80347021484375,-0.010789689561724661,0.0037774635789450256,0.0032569559693336487
1772555858617402000,2.813402099609375,-0.021714403679966927,0.002440588951995596,-0.0027350692533887923
1772555858627333000,2.8233330078125,-0.030540099692344665,-0.004446330150682479,0.009166225678892805
1772555858637265200,2.83326513671875,-0.013029577443003653,0.001088790750550106,0.005341114432783797
1772555858647196400,2.843196533203125,-0.021859365108609197,0.002644093901151791,0.008106505759200081
1772555858657127200,2.853127197265625,-0.025301614516973495,0.0019209763915278017,0.006495408167596906
1772555858667059200,2.86305908203125,-0.010937573599815368,-0.007737919041980058,-0.0007259122549090534
1772555858676990200,2.872990234375,-0.021411621341109275,-0.007634504333278164,-0.005927216358203441
1772555858686922000,2.882921875,-0.017819734328985214,0.0009218092863447964,0.010118959826463833
1772555858696853200,2.892853271484375,-0.027547932139039038,-0.0015038926237728445,0.006087987277330831
1772555858706784300,2.9027841796875,-0.016176058775186537,-0.002965982799278572,-0.006797624250873923
1772555858716716300,2.91271630859375,-0.01453121417760849,-0.008377550386078654,0.0034487430812325326
1772555858726647000,2.92264697265625,-0.011837737309932707,-0.0022248912415467202,0.003812233498226851
1772555858736579000,2.9325791015625,-0.01811959405839443,-0.002775720924185589,-0.0033764176305383442
1772555858746510300,2.94251025390625,-0.01393207924067974,0.0010887816173955798,-0.0019426311009097842
1772555858756441000,2.952441162109375,-0.014082885888218879,-0.00621432620389387,-0.0005374770107213408
1772555858766373000,2.962373046875,-0.0263514158308506,0.000245124734332785,0.002502968397410586
1772555858776304000,2.97230419921875,-0.020516718327999114,-0.0005523549194447696,0.008878248183522373
1772555858786236200,2.982236083984375,-0.020367080724239348,0.0027951836764812466,0.0071498534883372485
1772555858796167200,2.992167236328125,-0.01602700569331646,-0.0037120062604546543,0.001500668620225042
1772555858806098200,3.00209814453125,-0.017825579547882078,-0.0008996887860819696,0.006729381320253014
1772555858816030200,3.0120302734375,-0.019020926812291145,-0.0022223522245883942,0.0031283794199116525
1772555858825961000,3.0219609375,-0.013034253618121147,-0.005029135007318109,0.00025422135624103245
1772555858835892000,3.03189208984375,-0.02500584644079208,-0.0025273265205323693,-0.003316029212810099
1772555858845824000,3.041823974609375,-0.022758359774947164,0.0017788736402522772,0.004116659804899245
1772555858855754800,3.051754638671875,-0.018866613033413887,-0.0014165066012647002,0.0011309585249982773
1772555858865686800,3.061686767578125,-0.017817980763316154,-0.005915918646054342,-0.00496419827863574
1772555858875618000,3.0716181640625,-0.009887187764048577,-0.006395573655469343,0.005542719685798511
1772555858885548800,3.081548828125,-0.01647007328569889,-0.004208265344798565,0.005812339540570974
1772555858895480800,3.091480712890625,-0.01931435680091381,-0.007598693234380334,0.000009069222444668412
1772555858905411800,3.101411865234375,-0.01377484285235405,-0.0033863362363539635,-0.004715950005454942
1772555858915344000,3.11134375,-0.02948796029090881,-0.0012918755745980888,0.000165072634909302
1772555858925275000,3.12127490234375,-0.015273556977510452,-0.005156706909742206,0.006725563661660999
1772555858935206000,3.131205810546875,-0.013928572109341621,-0.0005287639813032001,-0.002772049396065995
1772555858945138000,3.141137939453125,-0.024854455271363256,-0.00397721480159089,0.002766688234359026
1772555858955069000,3.15106884765625,-0.021412790384888646,-0.0029393413875252006,-0.0020116960154380648
1772555858965000000,3.161,-0.020063129341602325,0.004737887842627242,-0.005427614539302885
1772555858974932000,3.170931884765625,-0.008842062625288962,0.004166819089557975,0.001757182398252189
1772555858984863000,3.180863037109375,-0.011986790391802787,-0.0011822868534363807,0.006179318822594359
1772555858994794800,3.190794677734375,-0.012288403686881064,-0.004330010294634848,0.0025744809973519294
1772555859004726000,3.20072607421875,-0.02171732628941536,-0.005832669942546636,-0.005503401455562561
1772555859014657000,3.210656982421875,-0.015432546931505203,0.0003020334201864898,0.0019655735850799827
1772555859024588800,3.2205888671875,-0.014832827472686766,0.0013398337690159678,0.005407896058680489
1772555859034519800,3.230519775390625,-0.02935001312494278,-0.006904865751322358,-0.0011573807410430162
1772555859044451800,3.240451904296875,-0.021568857729434964,-0.006810995189100504,0.0003072849840391427
1772555859054383000,3.250383056640625,-0.026506898653507232,-0.0004279430884867906,0.002769409914407879
1772555859064313900,3.26031396484375,-0.023512977534532544,-0.0008599778302013874,0.004089178142929449
1772555859074246000,3.270245849609375,-0.009893032982945442,-0.003881024418119341,-0.0029021511822938917
1772555859084177000,3.280177001953125,-0.01857376756668091,0.0006730586896650493,0.0004493786021601408
1772555859094109200,3.290109130859375,-0.016777531799674034,0.0027385763847269117,-0.0009223298761527985
1772555859104040000,3.3000400390625,-0.011985621348023414,-0.003402995110210031,0.007201172683620825
1772555859113971000,3.309970947265625,-0.02051554928421974,-0.0009106485715135932,0.005752608709968626
1772555859123903000,3.319903076171875,-0.014383330139517782,-0.0017028218625113366,0.001812437983136624
1772555859133834000,3.329833984375,-0.018721651604771614,0.00036839492097496987,0.00772406404656358
1772555859143765000,3.339764892578125,-0.01632978803217411,-0.008732665700372308,0.002462325859768316
1772555859153697000,3.349697021484375,-0.018277999490499495,-0.0024578597472049296,0.0034523598104249683
1772555859163627800,3.359627685546875,-0.014535890352725981,-0.0023179398198612034,0.010814824002981185
1772555859173559800,3.369559814453125,-0.007650807014107704,-0.00036371874585747714,0.004374954548059031
1772555859183491000,3.379490966796875,-0.015731237617135047,-0.006621372634824365,0.006869008986651897
1772555859193421800,3.389421875,-0.021268413478136062,-0.002650971166510135,0.008449720573145896
1772555859203353900,3.399353759765625,-0.016480010157823563,-0.0017486702982336282,0.0038187180379405617
1772555859213284900,3.409284912109375,-0.014534136787056923,0.00010400836374610662,-0.00404948545335792
1772555859223217000,3.419216796875,-0.015731822139024732,-0.00022683102581650018,-0.00465838373247534
1772555859233148000,3.42914794921875,-0.015282909327745437,-0.004982939511723816,0.00949266288797371
1772555859243079000,3.439078857421875,-0.022765374037623406,-0.0047412397103384135,0.004056180055625736
1772555859253011000,3.449010986328125,-0.020371172377467155,0.003220112823974341,-0.001730056929308921
1772555859262942000,3.45894189453125,-0.017824410504102706,0.0010081906618550419,-0.0009359474095515906
1772555859272873000,3.468873046875,-0.025007600006461142,-0.002384630114212632,-0.014281723795412107
1772555859282805000,3.478804931640625,-0.0215630125105381,0.0017826821656897662,-0.0021866415903903542
1772555859292736000,3.488736083984375,-0.01587619904577732,-0.0004211114889010787,-0.0059784442219417535
1772555859302667800,3.498667724609375,-0.016775193712115288,0.0015505721765570342,0.0014635697465389967
1772555859312599000,3.50859912109375,-0.026350831308960914,0.00030530308950692416,0.007141861978126689
1772555859322530000,3.518530029296875,-0.027250995019078253,0.002156739642471075,0.0032397034404333678
1772555859332461800,3.5284619140625,-0.019471008667349816,0.0036576822573319077,0.002042136819474399
1772555859342392800,3.538392822265625,-0.018123685711622237,-0.0026719774219207465,0.010462001110473648
1772555859352324000,3.548323974609375,-0.02291501164138317,-0.0016581972694955766,0.008150061773136258
1772555859362256100,3.558256103515625,-0.02052080998122692,0.005480897362809628,-0.0008700973654165863
1772555859372187000,3.568186767578125,-0.023814006307721135,-0.005380779722891748,-0.0029360808513592927
1772555859382119000,3.578118896484375,-0.00720306324660778,-0.00033580782562494274,0.010805078927101567
1772555859392050000,3.5880498046875,-0.028749124622344968,-0.004029511244408786,0.004603091614972799
1772555859401981000,3.59798095703125,-0.025758126112818715,-0.005152889251150191,0.004985487661836668
1772555859411913000,3.607912841796875,-0.014684358912706374,-0.0026167766359634697,0.0061154232735279946
1772555859421844000,3.617843994140625,-0.019621815314888953,0.000631301907170564,0.0008893865877762436
1772555859431776000,3.62777587890625,-0.017678280031681058,0.009457618974056094,-0.0024137557439971712
1772555859441707000,3.63770703125,-0.016631401327252385,-0.0000896875774487853,0.006974369057267904
1772555859451638000,3.647637939453125,-0.026508067697286603,-0.006191584649123251,0.004436977800447494
1772555859461570000,3.657570068359375,-0.02052197902500629,-0.001445303437486291,0.0073051536479033525
1772555859471500800,3.667500732421875,-0.018127777364850044,-0.004288290044758469,-0.002713222747761756
1772555859481432800,3.677432861328125,-0.021270751565694808,-0.0034627624734304844,-0.002615936385747045
1772555859491364000,3.687364013671875,-0.019175240591168402,-0.001509180720243603,-0.002321145557099953
1772555859501294800,3.697294921875,-0.022166239100694655,0.0019780403410084545,0.003066821958404034
1772555859511227000,3.707226806640625,-0.02366261513829231,0.00495906544579193,0.005024997688317671
1772555859521158000,3.717157958984375,-0.015133856245875358,-0.0025330986741930244,0.0033273817238863557
1772555859531089000,3.7270888671875,-0.01887596538364887,0.00033527810266241427,0.006109532388858497
1772555859541021000,3.73702099609375,-0.021721417942643165,-0.00012119696056470274,0.008963615778880194
1772555859550952000,3.746951904296875,-0.019328969848155974,-0.002113959946669638,0.005883724276348948
1772555859560884000,3.756884033203125,-0.02292202590405941,0.004392828131467103,-0.005148267874959856
1772555859570814700,3.766814697265625,-0.014393851533532141,0.007656396504677832,0.0021489125290419906
1772555859580746000,3.77674609375,-0.013496610432863234,0.008311883005034179,0.0031199951840564606
1772555859590678000,3.786677978515625,-0.012300094124674796,0.005648289818968624,-0.008254051870573311
1772555859600608800,3.79660888671875,-0.023819851526618002,0.004051759608834982,0.00440408017784357
1772555859610540800,3.806540771484375,-0.02427051790356636,0.008102478038053959,0.01787621375657618
1772555859620472000,3.81647216796875,-0.016634908458590506,0.0012145086226053536,0.007392667534574866
1772555859630403000,3.826403076171875,-0.011393500673770905,0.003943476928770542,0.005104730127332732
1772555859640334800,3.8363349609375,-0.022763035950064656,0.00921347148725763,0.0014404080666601657
1772555859650265900,3.846265869140625,-0.017525135296583175,-0.006054696929082274,0.0007807111820671707
1772555859660197000,3.856197021484375,-0.020815993535518645,-0.0018446962849237023,0.004875250486703589
1772555859670129000,3.86612890625,-0.019618308183550835,0.00075191434584558,0.006803122409898788
1772555859680060000,3.876059814453125,-0.021862287718057632,-0.0019574359443970024,0.00017447978407144545
1772555859689992000,3.885991943359375,-0.02994330284297466,0.0008125402255915105,-0.004251054173754528
1772555859699923000,3.8959228515625,-0.02769815426468849,-0.005480422438774258,0.005769139719661325
1772555859709854000,3.90585400390625,-0.015129180070757866,-0.004710223517566919,0.004137373799365013
1772555859719786000,3.915785888671875,-0.017071546310186383,-0.0023480609634891152,0.004275412296876311
1772555859729717000,3.925717041015625,-0.022757190731167793,-0.004045567330066114,0.0045812359761912376
1772555859739649000,3.93564892578125,-0.023956045126914977,-0.00454895027494058,0.0011833188998978585
1772555859749580000,3.945580078125,-0.024555764585733414,-0.0016311813984066247,0.002237385396938771
1772555859759511000,3.955510986328125,-0.01647884111404419,0.0015547916939482093,0.007208132147369906
1772555859769443000,3.965443115234375,-0.01917407154738903,-0.002106525558885187,0.0016043025246355682
1772555859779373800,3.975373779296875,-0.017227613654732705,0.0020317432896234094,0.0021654344055801627
1772555859789305000,3.98530517578125,-0.015281155762076377,-0.004590725323744118,-0.0007247066785115748
1772555859799237000,3.995237060546875,-0.02440904959142208,-0.0038733525683172045,0.0034843989165034145
1772555859809168000,4.00516796875,-0.01587970617711544,-0.00716026528449729,0.00784504181141965
1772555859819100000,4.015099853515625,-0.02052080998122692,-0.0019832462390884757,-0.0013172931436449288
1772555859829030400,4.025030517578125,-0.016926000359654424,0.0012380173623561857,-0.007603241545334458
1772555859838961400,4.03496142578125,-0.01946983962357044,-0.00471367584997788,0.009069679102394729
1772555859848893400,4.0448935546875,-0.014233108013868331,0.0014179039739072323,0.0014766575569752603
1772555859858824200,4.05482421875,-0.019171148937940596,-0.008250763934943825,-0.0002128481662366539
1772555859868756200,4.064756103515625,-0.019320202019810676,-0.004889306411519646,-0.0036115872264374047
1772555859878687500,4.0746875,-0.020966215661168096,-0.01012019280232489,-0.001081100634438917
1772555859888618200,4.0846181640625,-0.0091454294860363,-0.002169416460953653,0.013888687623525037
1772555859898550300,4.09455029296875,-0.020516133806109428,-0.0003038052521646023,0.014885516641149297
1772555859908481300,4.104481201171875,-0.01707563796341419,-0.003389642438292503,-0.003784980165120214
1772555859918412300,4.114412353515625,-0.01752455077469349,0.0005287913807667791,0.0079687503894791
1772555859928344300,4.12434423828125,-0.012586509850621222,-0.007256236472260207,0.009650547730270773
1772555859938275300,4.134275390625,-0.017077976050972936,-0.0062581653456203635,-0.0009893124314490705
1772555859948207400,4.144207275390625,-0.017379004824161527,0.00020007088305428624,0.0038201976089738306
1772555859958138000,4.15413818359375,-0.004811199674010277,0.0032013350582681594,0.003722262792987749
1772555859968069400,4.1640693359375,-0.02351706918776035,-0.0021114939949475227,0.003689712230255827
1772555859978001400,4.17400146484375,-0.024415479332208632,-0.007059837117325514,0.0014060582724865526
1772555859987932200,4.18393212890625,-0.014690788653492926,0.004472761499881744,0.0074075363101437685
1772555859997864200,4.1938642578125,-0.02157353390455246,-0.002779419851768762,0.00647200902570039
1772555860007795500,4.20379541015625,-0.018732757520675658,-0.006103888099361211,0.003245247265230864
1772555860017726500,4.2137265625,-0.022773557344079015,-0.0055152197575196625,0.01227263986216858
1772555860027658200,4.223658203125,-0.016039280652999876,-0.0031255298756994307,0.0063695989639963955
1772555860037589200,4.23358935546875,-0.015589783319830894,-0.0030021957569755613,-0.006058605919219553
1772555860047520500,4.2435205078125,-0.007211831074953079,-0.0000728643068112433,0.007005951505620032
1772555860057452300,4.253452392578125,-0.034595512562990184,-0.0024842362974770364,0.0012402549852151422
1772555860067383300,4.26338330078125,-0.014542904615402221,0.002515015028230846,0.004355108203273266
1772555860077315300,4.2733154296875,-0.02352232988476753,-0.002850439261365682,0.0002740311684086919
1772555860087246300,4.283246337890625,-0.01274959145784378,-0.008648531080875545,0.006518113189749419
1772555860097177300,4.29317724609375,-0.01963233670890331,0.0022194113488309083,0.005525759417843073
1772555860107109400,4.303109375,-0.019931611916422842,-0.005003178582154214,-0.003832134641939774
1772555860117040400,4.313040283203125,-0.0191840084195137,0.0005312390661798417,0.0060855395919177675
1772555860126972200,4.32297216796875,-0.01694061340689659,-0.0009457746838219464,0.010358348939754068
1772555860136903200,4.332903076171875,-0.01723988861441612,0.001248319560661912,0.0046506114179734135
1772555860146834400,4.34283447265625,-0.010654665005207061,0.00015235928380861877,0.00492801272040233
1772555860156766500,4.352766357421875,-0.021281272959709167,-0.000339515886362642,0.011243698673229665
1772555860166697200,4.362697265625,-0.017093758141994476,-0.0037685222206637263,0.000144833564478904
1772555860176628200,4.372628173828125,-0.017841946160793303,-0.003273797506280243,0.0008607176157180219
1772555860186560500,4.382560546875,-0.020239070430397986,-0.0027357816394418476,0.0038674525504931805
1772555860196491300,4.3924912109375,-0.01679857458770275,0.00700330289080739,-0.004842617725580931
1772555860206423300,4.40242333984375,-0.017247487398982048,-0.0011719298562034963,0.002056375407380983
1772555860216354300,4.412354248046875,-0.01410685128569603,0.002092423968296498,0.0003772084150929004
1772555860226285300,4.422285400390625,-0.014704817178845404,0.0018164565711282193,-0.0020772994644008575
1772555860236217300,4.43221728515625,-0.017998598027229307,-0.002859243622329086,0.004475008255895227
1772555860246148400,4.4421484375,-0.01620470034778118,-0.005003233381081372,-0.00044687611781992013
1772555860256080400,4.452080322265625,-0.021440847435593605,0.0000032879356294870375,0.005105725641176105
1772555860266011100,4.46201123046875,-0.02577975342273712,0.0016250621848739682,0.011847601116821168
1772555860275942400,4.4719423828125,-0.026377719315886495,-0.0007204597616568207,0.011786235451558604
1772555860285874400,4.48187451171875,-0.020091770914196967,-0.0016866927116177975,0.017329704056028277
1772555860295805200,4.49180517578125,-0.015154899033904075,-0.0016385609872639178,0.010764756049867718
1772555860305736200,4.501736083984375,-0.02338555176258087,0.0034638584519736467,0.0067669916505925356
1772555860315668200,4.511668212890625,-0.02084112797677517,-0.0005805033016949892,0.00031456410819664596
1772555860325599500,4.521599609375,-0.018145897543430326,-0.003991462522652,0.0054104898745659736
1772555860335531300,4.53153125,-0.011712649625539778,0.00232899093683809,0.007126582210604101
1772555860345462300,4.541462158203125,-0.01350771634876728,-0.013061908810026944,0.004339033851306885
1772555860355393500,4.5513935546875,-0.018741525349020956,0.004890822515171021,-0.003776668994501233
1772555860365325300,4.5613251953125,-0.03160919022858143,-0.0005230374934151768,0.006744734153011814
1772555860375256300,4.57125634765625,-0.02307575516104698,-0.004346121179219335,0.008482472065277398
1772555860385188400,4.581188232421875,-0.015294015243649482,-0.010296828010864555,0.00585757605494
1772555860395119400,4.591119384765625,-0.030705519387125967,-0.00694004666255787,0.007199930574605241
1772555860405050400,4.60105029296875,-0.03010755349397659,0.003000149930361658,0.003716983829671517
1772555860414982400,4.610982421875,-0.018286767318844793,0.006044906187430024,-0.0008087682327721267
1772555860424913400,4.620913330078125,-0.02203004550039768,-0.006716941963788122,0.007337832074798643
1772555860434844200,4.63084423828125,-0.02232932070791721,-0.004506371508538723,0.004757177064986899
1772555860444776200,4.640776123046875,-0.017241057658195495,-0.005148870663158596,-0.0018520576074719428
1772555860454707500,4.65070751953125,-0.019784312400221823,0.002473057316336781,-0.004883223730605095
1772555860464639500,4.660639404296875,-0.018138883280754088,-0.002780881156492978,0.011502979797078296
1772555860474570200,4.6705703125,-0.022927871122956276,0.0011629793647676705,0.0042779604469891635
1772555860484501200,4.680501220703125,-0.018437573966383933,-0.0017360300123691558,-0.0009521770251449197
1772555860494433300,4.690433349609375,-0.020983166795969007,0.0020848799826577303,0.0019664412347599864
1772555860504364300,4.7003642578125,-0.017694646644592284,-0.0036842597370035945,0.00031527649424970146
1772555860514296300,4.71029638671875,-0.00812017809152603,-0.004331106273178011,0.002318396477587521
1772555860524227300,4.720227294921875,-0.010965046128630638,-0.0030543826019391418,0.006107760556880384
1772555860534158300,4.730158447265625,-0.017250994530320165,0.001817150690872222,0.00479005642128177
1772555860544090400,4.74009033203125,-0.020691490373015403,-0.0018142098151147363,0.006663202482555061
1772555860554021400,4.750021484375,-0.02368190436065197,0.0016523703169077633,0.012728959661768749
1772555860563952000,4.7599521484375,-0.018894085562229157,0.0037333413094282147,0.010753951528063044
1772555860573884200,4.76988427734375,-0.027872341787815093,-0.0032856158082373438,0.005765678254095837
1772555860583815400,4.7798154296875,-0.019643442624807356,-0.010018358129356055,-0.0027747893424239006
1772555860593747500,4.78974755859375,-0.02398819383084774,-0.0031021672664210197,0.002955963728763163
1772555860603678200,4.79967822265625,-0.015460019460320471,-0.0067673569767735895,-0.0008312723255250602
1772555860613609200,4.809609130859375,-0.021146832925081252,-0.003390281759109348,0.010799169776123016
1772555860623541200,4.819541259765625,-0.01635726056098938,-0.0031612222435884177,0.0034580223662313073
1772555860633472300,4.82947216796875,-0.016655951246619224,-0.0007817614948377013,0.006121953479014336
1772555860643404300,4.839404296875,-0.015760463711619377,0.004425159498490393,0.007768752571661025
1772555860653335300,4.849335205078125,-0.026236265018582342,-0.00743785838317126,0.0061091122637502845
1772555860663266300,4.859266357421875,-0.01935527333319187,-0.00045623760120943186,0.008152655589021741
1772555860673198300,4.8691982421875,-0.013969488641619681,-0.0016596768405288456,0.010340858948836103
1772555860683129300,4.87912939453125,-0.021002456018328664,0.0005892345974221825,0.004081643290445208
1772555860693060400,4.889060302734375,-0.02384264788031578,-0.009173066411633044,0.007366994237201288
1772555860702992100,4.8989921875,-0.014263503152132033,-0.00873098519993946,-0.00170689524943009
1772555860712923400,4.90892333984375,-0.014862638089060782,0.002634074830636382,-0.0006276486453600228
1772555860722855400,4.91885546875,-0.015459434938430786,0.0037330673147924244,0.001601197252096608
1772555860732786400,4.928786376953125,-0.026830723780393598,-0.003208568516653031,0.0026016064662951976
1772555860742717200,4.93871728515625,-0.027281390157341955,-0.009118669343274086,0.005569251499697565
1772555860752649200,4.948649169921875,-0.013366846573352813,-0.0028720117723569274,0.0013606664944905787
1772555860762580500,4.95858056640625,-0.01306932493150234,-0.0027776845524087545,0.0061966078841127455
1772555860772511200,4.96851123046875,-0.017709844213724135,0.006510934530291706,-0.0011251589718740433
1772555860782443300,4.978443359375,-0.00933013840317726,0.0049358124343678355,0.0019231592154596
1772555860792374300,4.988374267578125,-0.016814356678724288,0.0003403378702700138,0.002982258080644533
1772555860802306300,4.998306396484375,-0.015767477974295615,-0.00001594648780301213,0.006034887116914614
1772555860812237300,5.0082373046875,-0.011579963156580924,0.0032018282486125827,0.0079947433472611
1772555860822168300,5.018168212890625,-0.017262100446224213,-0.0009989661757834256,0.008045377555955201
1772555860832100600,5.0281005859375,-0.016666472640633583,-0.001287482527270913,0.01304999917652458
1772555860842031600,5.038031494140625,-0.03357669090926647,-0.0021913360318168997,0.005013626910932362
1772555860851963600,5.047963623046875,-0.028489596903324126,-0.0027425219074822963,0.009777251983014866
1772555860861895000,5.05789501953125,-0.014721768313646315,-0.0022209639851003883,0.01350356076345779
1772555860871825700,5.06782568359375,-0.02115735431909561,-0.0015636508538387716,0.003948006973415613
1772555860881757700,5.0777578125,-0.026994389909505843,0.006425484736543148,0.006204215801833197
1772555860891688700,5.087688720703125,-0.018014380118250847,0.004377027774136513,0.005937883882690221
1772555860901619700,5.09761962890625,-0.015916531056165695,0.004062098339758813,0.0029241712178569284
1772555860911551700,5.1075517578125,-0.021901450684666632,-0.002236526880413294,-0.00027602219609543677
1772555860921482800,5.117482666015625,-0.015767477974295615,-0.0077280552350915965,0.004082538339588791
1772555860931414800,5.127414794921875,-0.007239888125658035,-0.00692459336509928,0.0037235597009304907
1772555860941345800,5.137345703125,-0.01741466065943241,0.0033786278539337214,0.00820850482895039
1772555860951276800,5.14727685546875,-0.026241525715589523,-0.009708196201641112,-0.002181426559155807
1772555860961208800,5.157208740234375,-0.01247545069158077,-0.003383249230124056,0.006909678923757746
1772555860971139600,5.1671396484375,-0.02339607315659523,-0.004084054443240165,0.002284083216032013
1772555860981071600,5.177071533203125,-0.018607669836282727,0.0002570800336077809,-0.0023429463969543577
1772555860991003000,5.1870029296875,-0.01456687001287937,-0.002059709008783102,-0.001212919453717768
1772555861000933600,5.19693359375,-0.02638882523179054,-0.0022465916167013346,0.007548186889849603
1772555861010865700,5.20686572265625,-0.014119710767269134,-0.00006174012459814548,0.00035860417932271954
1772555861020796700,5.216796630859375,-0.023696517407894132,-0.005898337323591113,-0.0019054226293694226
1772555861030727700,5.226727783203125,-0.02279869178533554,-0.0012669146632775664,0.002650761103956029
1772555861040659700,5.23665966796875,-0.023846739533543587,-0.004385667738318443,0.008049103883001953
1772555861050590700,5.2465908203125,-0.011126958692073821,-0.003362900561839342,0.013817284621438011
1772555861060522800,5.256522705078125,-0.01591536201238632,0.007423263602238148,0.01307924353731796
1772555861070453800,5.266453857421875,-0.011727262672781943,-0.0030085706988349555,0.0027369780826847997
1772555861080384800,5.276384765625,-0.003045359045267105,0.0018036518884822724,0.0077002265132497996
1772555861090316800,5.28631689453125,-0.010975567522644995,-0.005727638665493577,0.0026233799066860226
1772555861100247600,5.29624755859375,-0.025794366469979284,-0.0003872640182264149,0.000009617211716249585
1772555861110179600,5.3061796875,-0.014124386942386626,0.00540205997293815,0.004544246700359508
1772555861120110800,5.31611083984375,-0.026396424016356466,-0.0008014525759965181,0.0018694106010720133
1772555861130041900,5.326041748046875,-0.027594693890213965,-0.003280957899428904,0.0035365583620034155
1772555861139973600,5.3359736328125,-0.017867665123939513,-0.0010378916803747416,0.003921657822607085
1772555861149904600,5.345904541015625,-0.027293665117025374,0.003893609905056655,-0.0006771686092019081
1772555861159836000,5.3558359375,-0.014126140508055687,0.004337627345509827,-0.0026514004247728735
1772555861169767700,5.365767578125,-0.01442483119368553,-0.00017833397528156636,0.0069093866628129035
1772555861179698700,5.37569873046875,-0.02295242104232311,0.008401059125829488,0.009683280956093221
1772555861189630700,5.385630615234375,-0.012774725899100304,0.008687894976884126,0.003627807708876207
1772555861199561700,5.395561767578125,-0.029231939703226087,-0.00011986352000385522,0.003210979669447988
1772555861209492700,5.40549267578125,-0.01935702689886093,0.0013982128927484154,0.004154799858201295
1772555861219424800,5.4154248046875,-0.0178594818174839,-0.0012117869425565004,0.003549089050013572
1772555861229355800,5.425355712890625,0.028381460353732107,-0.015368651382438838,0.0017281572331674397
1772555861239287600,5.43528759765625,-0.032521044376492496,0.0028095227290876206,0.005597619077656418
1772555861249218800,5.44521875,-0.009928104296326637,-0.01628704486899078,0.009818826102418824
1772555861259149800,5.45514990234375,-0.010529577320814132,0.02548880765214562,0.0064162328510079525
1772555861269081900,5.465081787109375,-0.0458446363300085,-0.010997450560890137,-0.014807592566730454
1772555861279012600,5.4750126953125,0.022839023795723914,0.013944646461308002,0.009346157956216484
1772555861288943900,5.48494384765625,-0.018760814571380614,-0.0161160539499484,0.0034105664953123778
1772555861298876000,5.4948759765625,-0.0228004453510046,-0.008177643899805843,0.007237714434880763
1772555861308806700,5.504806640625,-0.0121779290497303,0.014043850785773247,-0.010023901954153551
1772555861318738700,5.51473876953125,-0.0328261648029089,0.002638038619700819,-0.0089795257340651
1772555861328669700,5.524669677734375,0.006977437797188758,0.01115483307968825,0.005968251621490344
1772555861338600700,5.5346005859375,-0.029386838003993034,-0.013741561637260018,0.009404171753767877
1772555861348532700,5.54453271484375,-0.013375614401698111,-0.00522073032297194,0.015971695309504867
1772555861358463700,5.554463623046875,0.0014367548048496246,-0.005760572820715606,0.003956747402297333
1772555861368394500,5.56439453125,-0.04465221167504787,-0.0007573029070161283,0.0020890173016581684
1772555861378326500,5.574326416015625,0.0021820202142000195,0.00982860771091655,0.0004071468956302851
1772555861388257800,5.5842578125,-0.0308913973480463,-0.0006634871437214315,0.0001434179255273193
1772555861398189800,5.59418994140625,-0.01996668322980404,-0.006955225965380668,0.009090731023577972
1772555861408120600,5.60412060546875,-0.0072498249977827065,-0.010023929353617131,0.00836050791973248
1772555861418051800,5.6140517578125,-0.036729601982235904,0.00514087001979351,-0.004652291918406263
1772555861427984000,5.62398388671875,-0.008745616513490677,0.01311906409105286,-0.010923974332725628
1772555861437915000,5.633914794921875,-0.02879530185163021,-0.005219963137991726,0.02254936579992063
1772555861447846700,5.6438466796875,-0.02011807439923286,-0.016981164612993597,0.013348680728999897
1772555861457777700,5.653777587890625,-0.006500467935204505,-0.004327270348276943,-0.0012525208117440342
1772555861467709000,5.663708984375,-0.029093408015370366,0.012302103418670595,0.0003426759578287601
1772555861477640700,5.673640625,-0.0005120411753654479,0.003908533479552716,0.0000034340661019086834
1772555861487571700,5.68357177734375,-0.02909282349348068,-0.006289784326590597,0.012350426939269528
1772555861497502700,5.693502685546875,-0.01936754829287529,-0.013541070629097521,0.009922249944275244
1772555861507434800,5.703434814453125,-0.019667408022284505,0.006461030973959714,0.004267192457802593
1772555861517365800,5.71336572265625,-0.030890228304266926,0.0002386675940826535,-0.005768582597235217
1772555861527297800,5.7232978515625,-0.007099018350243568,0.01149635826004669,-0.0011933379704132676
1772555861537228800,5.733228759765625,-0.02715045725405216,-0.0024345884694717823,0.005750526350736617
1772555861547159600,5.74315966796875,-0.021464812833070755,-0.0071572696098126465,0.0014956636515446005
1772555861557091800,5.753091796875,-0.0014145429730415343,-0.001148366317525506,0.0034007300878874957
1772555861567022800,5.76302294921875,-0.029993571725487708,0.0032553302678279576,0.002158474941831082
1772555861576955000,5.772954833984375,-0.006200608205795288,0.004677051900327206,0.010111607637070119
1772555861586885600,5.7828857421875,-0.014729951620101928,-0.00004031374407932162,0.004314173404686153
1772555861596817000,5.79281689453125,-0.012335749959945679,-0.0036465763414278624,0.0037453605407848953
1772555861606749000,5.8027490234375,-0.012635609689354895,-0.005267254612129181,-0.007308085390506312
1772555861616679700,5.8126796875,-0.030444238102436065,0.0016039463316090403,-0.00020672895270399747
1772555861626610700,5.822610595703125,-0.0069493807464838025,0.0029878384380601346,-0.0037741299775429066
1772555861636542700,5.832542724609375,-0.01937105542421341,-0.0015678886375389992,0.007078532684640959
1772555861646473700,5.8424736328125,-0.027451486027240752,-0.0039904213430359955,0.007567320848582312
1772555861656405800,5.85240576171875,-0.010391630154848099,-0.0021258695801720023,0.00802184141674079
1772555861666336800,5.862336669921875,-0.02356032380759716,0.0025700879500247537,0.010197742417408152
1772555861676267500,5.872267578125,-0.01158931550681591,0.00020732260774821042,0.0003220167622901499
1772555861686199600,5.882199462890625,-0.018771920487284658,0.00014410291211679576,0.0010367043702863156
1772555861696130800,5.892130859375,-0.015331424644589423,0.0044788441807962955,0.00788290787008591
1772555861706061800,5.902061767578125,-0.014731705185770988,-0.0032970139850862323,0.009200959065556525
1772555861715993600,5.91199365234375,-0.029095746102929112,-0.0016821809332817792,0.005847520451806486
1772555861725924600,5.921924560546875,-0.014129647639393806,0.0023631672010757027,0.005696074483450502
1772555861735857000,5.93185693359375,-0.02535188339948654,-0.003212915898207575,0.011129461176414042
1772555861745787600,5.94178759765625,-0.022508768928050992,-0.0030687764534726735,0.0003180529732257128
1772555861755718700,5.95171875,-0.017271452796459197,0.0017201748561114071,0.0021273034854326395
1772555861765650700,5.961650634765625,-0.02430442017316818,-0.005602258720155805,0.01469215862667188
1772555861775582000,5.97158203125,-0.013378537011146545,-0.001815050065331161,0.008161295553203671
1772555861785513700,5.981513671875,-0.01337912153303623,0.0013817001493647693,0.0004900576724205166
1772555861795444700,5.99144482421875,-0.021909633991122245,-0.0003833550280891359,0.007321310198260471
1772555861805375700,6.001375732421875,-0.016221651482582092,0.005517137719970196,-0.004541360623529181
1772555861815307500,6.0113076171875,-0.020561141991615295,-0.00033421865673735737,0.006713955422258004
1772555861825239000,6.021239013671875,-0.010985504394769668,-0.01053226246824488,0.007776488353544846
1772555861835170000,6.031170166015625,-0.026698037311434743,-0.006754990685544908,0.005365152895497158
1772555861845101800,6.041101806640625,-0.02190904946923256,0.0028390410845167934,0.006045454176701605
1772555861855032800,6.05103271484375,-0.005600888746976852,0.0007625453377142548,0.01182528882031329
1772555861864964900,6.06096484375,-0.017871172255277634,-0.006642433689162135,0.0053817935030441725
1772555861874896100,6.070896240234375,-0.01861936027407646,-0.00017221476174890995,0.013383971238089725
1772555861884827000,6.080826904296875,-0.017424013009667394,-0.0009637852645479142,0.0027977135602850465
1772555861894759000,6.090759033203125,-0.016826631638407707,0.00017723799673840404,-0.0007093721120618283
1772555861904690000,6.10068994140625,-0.021018238109350204,-0.0017746997886337339,0.009433626177115365
1772555861914622000,6.1106220703125,-0.024010405662655828,-0.0036044724990613756,-0.000450520246475935
1772555861924553000,6.120552978515625,-0.017427520141005515,-0.0007517864816822111,-0.000053410687670111655
1772555861934484000,6.13048388671875,-0.0029150106638669965,-0.0015858261530287564,-0.0004957932934630661
1772555861944416000,6.140416015625,-0.020870938593149185,-0.0038815541410818694,-0.0018264573753345756
1772555861954347000,6.150346923828125,-0.02326397120952606,0.0033877427421510216,0.009853815217409282
1772555861964278000,6.160278076171875,-0.021916063731908797,-0.002519727735966444,0.006086325043207034
1772555861974210000,6.1702099609375,-0.024308511826395988,0.000960387731064111,0.0022364446820225567
1772555861984140800,6.180140869140625,-0.02116612214744091,0.003478782026469707,0.002533938924409449
1772555861994072800,6.19007275390625,-0.018472645279765127,0.0006028612639755011,0.0007105228895321488
1772555862004004000,6.200004150390625,-0.01622866574525833,-0.0027834932386875152,0.010963265163497998
1772555862013934800,6.209934814453125,-0.027151626297831535,-0.0007364427820779382,0.0024387257884722203
1772555862023867000,6.219866943359375,-0.022364976543188093,0.005781305081490427,0.006074808135349303
1772555862033798000,6.2297978515625,-0.021166706669330595,0.0042591187492012975,0.004340805683284998
1772555862043729000,6.23972900390625,-0.020417934128642082,-0.0014216485672630369,0.004013893550168722
1772555862053661000,6.249660888671875,-0.02355973928570747,0.0031157391340471802,0.0009487246927339583
1772555862063592000,6.259592041015625,-0.017870587733387944,0.003090933486353606,0.003767946831928566
1772555862073524000,6.26952392578125,-0.010535422539710997,-0.005330510840378702,0.0004921034990344196
1772555862083454700,6.279454833984375,-0.02983750438094139,0.0011025361481122671,0.011895486246002838
1772555862093386000,6.289385986328125,-0.022205986589193344,-0.0027898133816197514,0.013523160513071342
1772555862103318000,6.299318115234375,-0.02639583949446678,-0.003414594216458499,0.0035547242063563313
1772555862113248800,6.309248779296875,-0.025946926683187484,-0.0029772257125005126,0.006563240106264129
1772555862123180800,6.319180908203125,-0.016818448331952094,0.0013777180939912796,0.005862973749265074
1772555862133112000,6.329112060546875,-0.020257775130867958,0.005007489431090652,0.005933920093625784
1772555862143043000,6.33904296875,-0.022500001099705694,-0.004829374651517719,0.007821460006432607
1772555862152974800,6.348974853515625,-0.01741290709376335,-0.0006166157946921885,0.008765636388212442
1772555862162905900,6.35890576171875,-0.02804009957015514,0.006411711939517408,0.004634674063324928
1772555862172837000,6.368837158203125,-0.019510171633958816,0.0017845270629040897,-0.0006813059282023459
1772555862182769000,6.378768798828125,-0.00828793587386608,0.002786909038480371,0.0026428426589816807
1772555862192700000,6.388699951171875,-0.01606967579126358,-0.0038991263303905723,0.010097085921373218
1772555862202632000,6.3986318359375,-0.018166355809569358,0.0033810938056558367,0.01741408527069725
1772555862212563000,6.40856298828125,-0.017865911558270452,-0.0016027772878296673,0.006614705432020127
1772555862222494000,6.418493896484375,-0.01741758326888084,-0.003802424490265548,0.0055682011869270355
1772555862232426000,6.428426025390625,-0.014874328526854514,0.00252138997009024,0.0106682642722968
1772555862242357000,6.43835693359375,-0.012779986596107483,0.009849047710746526,0.010403274926869198
1772555862252289000,6.4482890625,-0.015322656816244125,-0.0030702194918878377,0.00965380826643668
1772555862262220000,6.458219970703125,-0.024749825853109357,-0.003258800866547972,0.010605473834928124
1772555862272151000,6.468151123046875,-0.012328735697269439,0.002316277585737407,0.008450058499863371
1772555862282083000,6.4780830078125,-0.011430325552821159,-0.0036551980393007394,0.008893975475616753
1772555862292013800,6.488013916015625,-0.018311901760101317,0.0020309943709522485,0.006912382337497547
1772555862301945000,6.497945068359375,-0.02145370691716671,0.005076280350983143,-0.0016082297810819
1772555862311877000,6.507877197265625,-0.022649054181575774,-0.002296129846852273,-0.001764169261464849
1772555862321808000,6.517807861328125,-0.022500585621595383,0.0033385698381811378,0.00040037009497173126
1772555862331740000,6.527739990234375,-0.026244448325037955,-0.0012651793639175592,0.008947486627986653
1772555862341671000,6.5376708984375,-0.030137364110350607,-0.005998966420162469,0.006431403020676225
1772555862351602000,6.547601806640625,-0.020561141991615295,0.006164495712798089,0.0070117784582078456
1772555862361534000,6.557533935546875,-0.02056348007917404,-0.0010496369170956313,0.0009428246749099343
1772555862371465000,6.56746484375,-0.01622398957014084,0.0005756261971779168,0.0014318868334870785
1772555862381397000,6.57739697265625,-0.012183774268627165,0.0021385646649636327,0.0026744342404883352
1772555862391327700,6.58732763671875,-0.028192075261473656,0.006651000588107854,0.0036039427760988473
1772555862401259000,6.597259033203125,-0.025498598393797874,-0.00014793883701786397,0.004592405824176967
1772555862411191000,6.60719091796875,-0.021457798570394513,0.0033412001866847275,0.00981332794339396
1772555862421121800,6.617121826171875,-0.024448797079920766,-0.002612100460845977,0.006132109546847641
1772555862431052800,6.627052734375,-0.014720014747977257,-0.00020777926547452805,0.006124446830200031
1772555862440985000,6.636985107421875,-0.021604513564705847,0.004524363822955638,0.0025938889507204294
1772555862450916000,6.646916015625,-0.01965688662827015,0.0006988689843565226,-0.0032275472117587922
1772555862460847900,6.656847900390625,-0.019655717584490775,-0.0008416019232943653,0.00540786865921691
1772555862470779000,6.66677880859375,-0.014418401452898978,-0.005918192801531404,0.001961518464470282
1772555862480710100,6.676710205078125,-0.011277180817723274,-0.002368318300228566,0.0010145564705599098
1772555862490642000,6.686641845703125,-0.014869652351737022,0.000288425019942224,-0.0019108020573854446
1772555862500573000,6.696572998046875,-0.026993220865726468,-0.0015306984323076903,0.0004294409258291125
1772555862510505000,6.7065048828125,-0.017865911558270452,-0.0029867241932079193,0.0029453601363580674
1772555862520436000,6.71643603515625,-0.021456629526615142,0.0018048757311888038,0.003170939920004457
1772555862530367000,6.726366943359375,-0.011880407407879828,0.001950951404683292,0.008927567217964678
1772555862540299000,6.736299072265625,-0.01936228759586811,0.003569547316152602,0.006457998766656965
1772555862550230000,6.74622998046875,-0.020408581778407094,-0.003385002795793116,0.006174587848549708
1772555862560160800,6.756160888671875,-0.02250292370915413,0.005929536179453134,0.002294020088156685
1772555862570092800,6.7660927734375,-0.02923661587834358,-0.0017094890653155744,0.008761316406121477
1772555862580024000,6.776024169921875,-0.026693945658206937,-0.002241422251239419,0.000032367899641394614
1772555862589956000,6.7859560546875,-0.018762568137049674,-0.002877235936746001,-0.0035455910518299785
1772555862599886800,6.795886962890625,-0.014872574961185454,-0.0007172631575725972,-0.0035458193806931376
1772555862609817900,6.80581787109375,-0.026395254972577095,0.00037374694952741264,-0.0028501561335753647
1772555862619750100,6.815750244140625,-0.015021628043055534,-0.00468079649368301,0.004400627845432609
1772555862629681000,6.825680908203125,-0.01936053403019905,-0.0033985381308011707,0.006098837464908137
1772555862639612000,6.83561181640625,-0.020704934376478194,-0.0054726044584997,0.005028157759783789
1772555862649544000,6.8455439453125,-0.022948329389095305,-0.003181753574963659,0.010746325344033539
1772555862659475000,6.855474853515625,-0.02219955684840679,-0.00320113412886858,0.006686702089151367
1772555862669407000,6.865406982421875,-0.027884032225608823,-0.0013321984518319368,0.011292122658528386
1772555862679338000,6.875337890625,-0.017708675169944763,-0.0007673859096132219,0.006565532528050243
1772555862689268700,6.885268798828125,-0.009179331755638122,-0.003723020844813436,0.004250971975363791
1772555862699200800,6.89520068359375,-0.026537293791770934,-0.001430635591316968,0.0017646167860366404
1772555862709132000,6.905132080078125,-0.022347440886497497,-0.008674542304966597,0.0023007146904245016
1772555862719064000,6.91506396484375,-0.023696517407894132,-0.005100373612623661,-0.002573174956254661
1772555862728994800,6.924994873046875,-0.018611176967620848,0.005017316705361008,0.010059850050369277
1772555862738925800,6.93492578125,-0.015316811597347258,-0.005707929318025708,-0.0010765340571757406
1772555862748857900,6.94485791015625,-0.018459201276302337,0.0007624174735508858,-0.002217155459662899
1772555862758788900,6.954788818359375,-0.014418985974788665,-0.002499561730772257,0.0008709832814056426
1772555862768720000,6.964719970703125,-0.016064999616146085,0.003050711073819548,0.0017675211291760206
1772555862778652000,6.97465185546875,-0.020105799439549446,-0.002176302859466523,0.0021060323685407637
1772555862788583200,6.984583251953125,-0.02250117014348507,0.005191011038143187,0.00964276628261432
1772555862798515000,6.994514892578125,-0.02833528312444687,0.0004842946519143879,0.007056704445322975
1772555862808446000,7.004446044921875,-0.018906360521912573,-0.0033475933948531743,-0.002400156476907432
1772555862818377000,7.014376953125,-0.023393735069036484,0.0023991335636004804,0.007282585623068735
1772555862828308500,7.02430859375,-0.03177344087958336,0.0044670076125301415,0.0031231552555225786
1772555862838239700,7.03423974609375,-0.019202713119983672,-0.0026701142583973702,0.007531217488739639
1772555862848170800,7.044170654296875,-0.012771218767762183,-0.0036192499430850148,0.006025772228697314
1772555862858102800,7.054102783203125,-0.02369710192978382,-0.004468121857382357,0.01180557947284542
1772555862868033500,7.064033447265625,-0.010530746364593505,0.0018678944974206387,0.0039606107266619795
1772555862877965600,7.073965576171875,-0.023399580287933347,0.008010635036136955,-0.0032169436193536967
1772555862887896800,7.083896728515625,-0.021455460482835767,-0.0018427600561641156,0.00015774784497916698
1772555862897827600,7.09382763671875,-0.013825696256756781,-0.0031112638883292673,0.004729457940999418
1772555862907759600,7.103759521484375,-0.01577156962752342,0.0051429706453345716,-0.0016713124793954193
1772555862917691000,7.11369091796875,-0.01547404798567295,-0.001118628766387701,-0.005299293718207627
1772555862927623000,7.123622802734375,-0.026247955456376076,-0.0003644311319105327,0.002663017797330394
1772555862937553700,7.1335537109375,-0.021459552136063573,-0.001732285419013351,0.00731337348697707
1772555862947484700,7.143484619140625,-0.014278116199374198,-0.0018348324780352412,0.014559590888721868
1772555862957416700,7.153416748046875,-0.026398177582025527,-0.006235149796213955,0.006970003409404307
1772555862967347700,7.16334765625,-0.025199907708168028,-0.0023015184080228206,0.007357103030849248
1772555862977278700,7.17327880859375,-0.01532499490380287,0.007183445230685174,0.009016843803459778
1772555862987210800,7.183210693359375,-0.018917466437816617,-0.0027819040697999297,0.0036609427934978156
1772555862997141500,7.1931416015625,-0.01996434514224529,-0.003723093910049647,0.004250570116564632
1772555863007073500,7.203073486328125,-0.02101180836856365,-0.003665427172370255,0.0019040709224995224
1772555863017004800,7.2130048828125,-0.01772095012962818,0.0013448935366235672,0.014499997055437416
1772555863026935600,7.222935546875,-0.020415011519193647,0.005408727175742387,0.010435752424364909
1772555863036867600,7.23286767578125,-0.022958850783109663,0.004919226625747978,0.014696168081508948
1772555863046798600,7.242798583984375,-0.023855507361888885,0.005920768351107835,0.006599325199797749
1772555863056730600,7.252730712890625,-0.020715455770492552,0.00200494661424309,0.008599120714887977
1772555863066661600,7.26266162109375,-0.015178864431381224,-0.004328768185619265,0.007473952609859407
1772555863076592600,7.272592529296875,-0.02026595843732357,-0.0023250636803917586,0.006663321213563903
1772555863086524700,7.282524658203125,-0.024155951613187787,0.0016739793605171143,0.008219181486591697
1772555863096455700,7.29245556640625,-0.019366379249095917,0.00010932385968044399,0.005791744277114048
1772555863106386700,7.30238671875,-0.010088263294100761,0.00007781447656452655,0.0006615052491892128
1772555863116318700,7.312318603515625,-0.022058102551102635,-0.0008575118784792721,0.0016682346063200384
1772555863126249700,7.322249755859375,-0.022956512695550917,0.0033371815986931322,0.004265301894815638
1772555863136181500,7.332181396484375,-0.019812953972816467,0.002065170635189861,0.00428468244872056
1772555863146112800,7.34211279296875,-0.015174188256263732,-0.00107082583559677,0.010708030027104541
1772555863156043800,7.352043701171875,-0.012329320219159126,-0.002785557331610471,0.015418107414199038
1772555863165975800,7.361975830078125,-0.018913374784588814,0.006676957013271749,-0.0019900869718287137
1772555863175906600,7.371906494140625,-0.023102643167972562,0.0063429027533158655,0.0009677764530759305
1772555863185837800,7.381837890625,-0.01936228759586811,-0.0009818506442010402,-0.0013431765035726128
1772555863195769900,7.391769775390625,-0.017268530187010765,-0.005016202460508793,0.01641931121284142
1772555863205700600,7.40170068359375,-0.014124386942386626,-0.0005190737043507397,0.016001852985750884
1772555863215632600,7.411632568359375,-0.00888531724512577,-0.002111165201384574,0.009435434541711583
1772555863225563600,7.421563720703125,-0.021904957816004753,0.0017353541589342056,0.00722557647251524
1772555863235494700,7.43149462890625,-0.016519173124432563,0.001975154264178127,0.008134900736622512
1772555863245426700,7.4414267578125,-0.014424246671795845,0.000046250294521450996,0.009136579459300263
1772555863255357700,7.451357666015625,-0.009486205747723579,0.004724964428972453,0.00460822444781661
1772555863265289700,7.461289794921875,-0.0195107561558485,-0.001958203129377216,0.008972621069243177
1772555863275220700,7.471220703125,-0.01906067430078983,-0.00752265058979392,0.006490932921878993
1772555863285151700,7.48115185546875,-0.019659224715828896,-0.0018234160348773,0.0038807869561016555
1772555863295083800,7.491083740234375,-0.019511340677738187,0.005696202347613871,-0.002069645880907774
1772555863305014500,7.5010146484375,-0.02085807911157608,-0.007324315006099641,0.0062887705464381724
1772555863314945800,7.51094580078125,-0.020557634860277174,-0.004832516456674784,0.0029466661774553357
1772555863324877800,7.5208779296875,-0.018163433200120926,-0.002543930595461279,0.0030184619051869957
1772555863334808600,7.53080859375,-0.01412204885482788,0.003532393643539399,0.0012406203113961964
1772555863344740600,7.54074072265625,-0.023100889602303505,0.006104326490778475,0.002848859225632623
1772555863354671600,7.550671630859375,-0.024296821388602254,0.0018579576252959668,0.0051036889477167275
1772555863364603000,7.560602783203125,-0.013074001106619835,0.0014211553769186138,0.004198666399391367
1772555863374534700,7.57053466796875,-0.02115384718775749,-0.0017870843461714684,0.0008987754706293344
1772555863384465700,7.580465576171875,-0.0172626849681139,-0.004915609896555543,-0.0005169913451187312
1772555863394396700,7.590396728515625,-0.02159866834580898,0.006280833835154771,0.010183129370165989
1772555863404328700,7.60032861328125,-0.021897943553328515,-0.0013486563962884245,0.003612126082554459
1772555863414259700,7.610259765625,-0.01815758798122406,-0.005260331680998206,0.0038148638467304405
1772555863424191700,7.620191650390625,-0.020400398471951485,-0.004915098439902067,0.008604856335930526
1772555863434122800,7.630122802734375,-0.02009995422065258,-0.008444112816266716,0.005972736000362783
1772555863444053800,7.6400537109375,-0.027732641056179997,0.00015990326944738625,-0.0011009469792246818
1772555863453985800,7.64998583984375,-0.016060323441028593,0.0027269042132422325,-0.00029900121288374066
1772555863463916800,7.659916748046875,-0.011872808623313903,-0.0029818288223817943,0.00199350277162157
1772555863473847600,7.66984765625,-0.013518237742781639,-0.0010816029579378665,0.0021335596962831914
1772555863483779600,7.679779541015625,-0.02025368347764015,-0.004705821337085217,0.000043300285609439015
1772555863493710800,7.6897109375,-0.021450784307718275,-0.005399959347397089,-0.0036470421323087066
1772555863503643000,7.699642822265625,-0.013969488641619681,-0.004468724645581096,0.003421179220872
1772555863513573600,7.70957373046875,-0.03013151889145374,0.007991765938885509,0.0016924465989694
1772555863523504600,7.719504638671875,-0.011726678150892258,0.010575170028209686,-0.0022177582478616386
1772555863533436700,7.729436767578125,-0.014123217898607253,0.004429433814808726,0.009435361476475373
1772555863543367700,7.73936767578125,-0.02325052720606327,-0.006333550403080881,0.00848927626539953
1772555863553299700,7.7492998046875,-0.012326982131600378,0.0020626316182315346,0.00502637679465115
1772555863563230700,7.759230712890625,-0.024148352828621863,-0.005631210820004343,0.010664793673576787
1772555863573161700,7.76916162109375,-0.022205986589193344,0.000508497511409223,0.002040191457560286
1772555863583093800,7.77909375,-0.026844752305746077,0.0008527261055074632,0.0053869537353515625
1772555863593024800,7.789024658203125,-0.025198738664388654,-0.002604099817480892,0.011720549804205074
1772555863602955500,7.79895556640625,-0.021757073777914047,-0.008283387562911956,0.0028990915755275634
1772555863612887600,7.808887451171875,-0.022357962280511855,-0.0024683080759830773,0.006816995671624317
1772555863622818800,7.81881884765625,-0.016076105532050133,0.0005850698789581656,0.0010716569526586681
1772555863632750800,7.828750732421875,-0.016375380739569664,-0.000056789954844862216,0.0011650434576906262
1772555863642681600,7.838681640625,-0.01922024877667427,0.000613108663354069,0.00241941829980351
1772555863652612600,7.848612548828125,-0.02131634427309036,0.0031157939329743384,0.003251558275008574
1772555863662544600,7.858544677734375,-0.0225128605812788,0.0018979060431942342,-0.0030703564892057326
1772555863672475600,7.8684755859375,-0.01069265892803669,0.0032261772385798393,-0.0045145365486852825
1772555863682406700,7.87840673828125,-0.012341595178842544,0.004251958356052637,0.0003539097378961742
1772555863692338700,7.888338623046875,-0.017879355561733246,0.00043336818227544425,0.005778556001977995
1772555863702269700,7.898269775390625,-0.019525953724980352,0.00015709025785326955,0.0077539203287102275
1772555863712201500,7.908201416015625,-0.027456162202358244,0.002211063645593822,0.01027052452582866
1772555863722132700,7.9181328125,-0.024163550397753714,-0.0016970131762325763,0.006172523755626752
1772555863732063700,7.928063720703125,-0.024310265392065048,-0.002733352220337838,0.005664245439926162
1772555863741995500,7.93799560546875,-0.02026712748110294,0.0032349085343070325,0.0051660592599771914
1772555863751926800,7.9479267578125,-0.020863924330472947,-0.0055195123401470475,0.005709874679939821
1772555863761858800,7.95785888671875,-0.01921849521100521,-0.005480221509374677,0.006737190167373046
1772555863771789800,7.967789794921875,-0.011586977419257164,-0.0005228730966337025,0.006116893711406737
1772555863781720600,7.977720458984375,-0.011585223853588103,0.0012087912678718567,0.009351436919532715
1772555863791652600,7.987652587890625,-0.01682604711651802,0.000352740694116801,0.004777617064816877
1772555863801583900,7.997583984375,-0.018622282883524893,-0.0036765330882743,0.0016395108353346585
1772555863811514600,8.0075146484375,-0.01488192731142044,-0.004670877887867391,-0.004247227382007986
1772555863821446700,8.01744677734375,-0.02460895607769489,0.004590159068163484,-0.0030733247644267976
1772555863831377700,8.027377685546876,-0.02236556106507778,0.0021121333157643673,0.004013391226669773
1772555863841309700,8.037309814453126,-0.013840893825888633,-0.0009035612436011433,0.004772164571564644
1772555863851240700,8.04724072265625,-0.02207154655456543,-0.0021161701700650156,0.002337996227201074
1772555863861171700,8.057171630859376,-0.020123335096240043,-0.00695011139884591,0.004119308419711888
1772555863871103700,8.067103759765626,-0.014286884027719497,-0.00154797836067155,0.005554126995801926
1772555863881034500,8.077034423828126,-0.025659341913461683,0.001875822075549513,-0.000431084893643856
1772555863890965800,8.0869658203125,-0.02027414174377918,0.0025109416413120924,-0.0048761729353107505
1772555863900897800,8.096897705078124,-0.01772913343608379,0.0019926168556325136,0.001249899596394971
1772555863910828500,8.10682861328125,-0.03164601510763168,-0.00025943638747558,0.009111116224480792
1772555863920760600,8.116760498046874,-0.024763854378461837,-0.004031392674241215,0.009298966946778819
1772555863930691800,8.12669189453125,-0.019825813454389572,0.005392159633431583,0.005147847749851644
1772555863940622800,8.136622802734376,-0.02701192556619644,-0.005090071414317936,0.01571003956547938
1772555863950554600,8.1465546875,-0.015487491989135741,0.0009438567213714122,0.007405874076019972
1772555863960485600,8.156485595703124,-0.022368483674526214,0.00396236429233104,0.0066583984432742
1772555863970417700,8.166417724609374,-0.022068623945116994,0.005227086998522281,0.0004500635887496173
1772555863980348700,8.1763486328125,-0.023116087171435356,0.007165946106612682,0.00271824598275125
1772555863990279700,8.18627978515625,-0.012791092512011527,0.0005599537040106952,-0.0019262462216895072
1772555864000211700,8.196211669921874,-0.021170213800668716,0.004153740412276238,-0.0031585736287757754
1772555864010142700,8.206142822265624,-0.027605215284228324,-0.004763871667254716,0.0020427213413640854
1772555864020073700,8.21607373046875,-0.017881693649291992,0.007392704067192972,0.002465577262779698
1772555864030005800,8.226005859375,-0.018480244064331054,0.003797583918366581,0.0036400735354050993
1772555864039936800,8.235936767578124,-0.018628712624311445,0.00021629136549308894,0.0003882321326062083
1772555864049868500,8.24586865234375,-0.021475334227085113,0.0029144444082863626,0.0024051431792788207
1772555864059799600,8.255799560546874,-0.009654548051953316,-0.002447776744607836,0.0048707021757494655
1772555864069730800,8.265730712890624,-0.015939327409863473,0.004158160859066993,-0.0007159479833208024
1772555864079662800,8.275662841796875,-0.025815993779897687,0.004352167327515781,0.007045306268474087
1772555864089593600,8.285593505859374,-0.017284896799921987,-0.001386010998301208,0.0046870983703061935
1772555864099524900,8.29552490234375,-0.01518997034728527,0.002080002878140658,-0.001368959398800507
1772555864109457000,8.305456787109375,-0.02042845552265644,-0.0008613112707622349,0.004961796258995309
1772555864119387600,8.3153876953125,-0.017736147698760033,0.006247388223279267,0.0013388108557090162
1772555864129319700,8.325319580078125,-0.021174889975786208,0.001034074021782726,-0.002051964093744755
1772555864139250700,8.335250732421875,-0.018331190982460974,0.002176777783501893,-0.006509875084366649
1772555864149181700,8.345181640625,-0.01982932058572769,0.0033553017772734164,0.006649192223511636
1772555864159113700,8.35511376953125,-0.0250660521954298,0.002895557044725865,0.000035135245462879536
1772555864169044700,8.365044677734375,-0.01848375119566917,0.0007321867320686579,0.00722838035095483
1772555864178976800,8.374976806640625,-0.01953355250954628,-0.0025693024987354872,0.004985277599282563
1772555864188907500,8.384907470703125,-0.01220189444720745,-0.0017754852399230001,0.008445437123673035
1772555864198838800,8.3948388671875,-0.025521979269385337,0.0052896491070277985,0.0029976657123304902
1772555864208770800,8.404770751953125,-0.018939093747735024,0.003646046618465334,0.0023490473441779612
1772555864218701600,8.41470166015625,-0.02656885797381401,-0.000539915562979877,0.001112034628819674
1772555864228632600,8.424632568359375,-0.015497428861260413,-0.0012336517144925891,0.005364814968779683
1772555864238564600,8.434564697265625,-0.013853168785572051,-0.0009700506085529923,0.004017199752107263
1772555864248495600,8.44449560546875,-0.02088672068417072,0.005063968858681619,0.007768058451917022
1772555864258427600,8.454427734375,-0.008766074779629707,-0.005422134646587073,0.007762468961346894
1772555864268358700,8.464358642578125,-0.019390929168462752,0.0022166166035458446,0.001094170178566128
1772555864278290000,8.4742900390625,-0.01909165396094322,0.01308450423432514,0.0010550437445752323
1772555864288221700,8.4842216796875,-0.018642741149663924,-0.0008583338623866438,-0.002010645702667534
1772555864298152700,8.494152587890625,-0.018194997382164,-0.0008820252652280032,0.004572102821664884
1772555864308083700,8.504083740234375,-0.01505319222509861,0.0016676957502029836,0.007764953179378062
1772555864318015500,8.514015380859375,-0.021038696375489233,0.00004893544195219874,0.010885733814723788
1772555864327946800,8.52394677734375,-0.01879413231909275,-0.002596628897078335,0.001818000074243173
1772555864337878800,8.533878662109375,-0.021786299872398374,0.009401870198827236,0.0063476337273605165
1772555864347809800,8.543809814453125,-0.025526070922613144,-0.003752466135006398,0.004360697693843394
1772555864357740500,8.553740478515625,-0.01849427258968353,0.00003505304707214236,0.010574421109538525
1772555864367672600,8.563672607421875,-0.020439561438560485,-0.0020627229497767983,0.009798970624478534
1772555864377603800,8.573603759765625,-0.016997896552085875,-0.002983143996633589,-0.004248917015595361
1772555864387534600,8.58353466796875,-0.0225344878911972,0.001597516590822488,0.001468008459638804
1772555864397466600,8.593466552734375,-0.019390344646573066,0.0022482903834432364,0.003044874988077208
1772555864407397600,8.603397705078125,-0.01744330223202705,0.0038633608972653746,0.00458017653026618
1772555864417329700,8.61332958984375,-0.023130115696787832,0.003424932947382331,0.007468545782379806
1772555864427260700,8.6232607421875,-0.015050854137539862,0.0027050759739242493,0.0008061470174230634
1772555864437191700,8.633191650390625,-0.016989128723740577,0.004485200856346637,0.002821879887161776
1772555864447123700,8.643123779296875,-0.03688566932678222,0.00428134884731844,-0.0005776720237918197
1772555864457054700,8.6530546875,-0.014886018964648246,0.004397833100147545,0.004152895595482551
1772555864466986800,8.66298681640625,-0.018175708159804342,0.0034552550204098222,0.014661096768127754
1772555864476917800,8.672917724609375,-0.019967267751693725,-0.002293956156075001,0.0011250904732150956
1772555864486848500,8.6828486328125,-0.02459901920557022,0.009459792664833367,0.0016809251245344056
1772555864496780500,8.692780517578125,-0.024146014741063117,-0.001090389052592218,-0.0013949888892006129
1772555864506711800,8.7027119140625,-0.006487023931741714,0.001073127390537411,0.01670342995042447
1772555864516642800,8.712642822265625,-0.0054430678367614746,-0.0009154708771035075,0.021247402656148186
1772555864526574600,8.72257470703125,-0.010838789400458335,-0.005215652289055288,0.005179074005177245
1772555864536505600,8.732505615234375,0.007549684727191925,-0.0017619499049149453,0.027825917963357642
1772555864546437600,8.742437744140625,-0.028071663752198217,0.008679638605192302,0.019529141195910052
1772555864556368600,8.75236865234375,-0.07056114443540573,0.01878320906627923,-0.008515552350971848
1772555864566299600,8.762299560546875,-0.04557108008563518,0.001048230411298573,-0.014677801307756453
