time,seconds_elapsed,z,y,x
1772555805300948700,0.06994873046875,0.49998131973743437,-0.003296703457832336,0.15850589680485427
1772555805310880000,0.0798798828125,0.5682692585438489,0.03254208716452121,0.1327777639715001
1772555805320811000,0.08981103515625,0.6070867727160454,0.06969196038544177,0.14385759558621794
1772555805330742800,0.09974267578125,0.622024229606986,0.12139759770333766,0.16355123402830213
1772555805340674000,0.109674072265625,0.6154080263376236,0.2000382959589362,0.2319234535846859
1772555805350606000,0.119606201171875,0.6146656835377216,0.2666021874517202,0.2963302401088178
1772555805360537000,0.129537109375,0.589476297223568,0.321098040010035,0.35316765082459894
1772555805370468900,0.13946875,0.5481318949222564,0.3686909813120961,0.3464577413897961
1772555805380399900,0.14939990234375,0.5095844298630953,0.414665381501615,0.3336964960267767
1772555805390331100,0.1593310546875,0.5234866984874009,0.4561033073052764,0.30793073459677395
1772555805400263200,0.16926318359375,0.5088491013258696,0.4421694744989276,0.21770751590132711
1772555805410194000,0.17919384765625,0.44601182914078236,0.4076178010776639,0.14061675050146877
1772555805420126000,0.1891259765625,0.3072849109739065,0.373055314001441,0.042941608364880084
1772555805430057000,0.199056884765625,0.20360592531263827,0.34510786115080117,-0.005027290110103786
1772555805439988700,0.20898876953125,0.15801497148275376,0.28075901535898445,-0.028110662322025744
1772555805449920000,0.218919921875,0.1312257487565279,0.18777765706181526,-0.005558437844738364
1772555805459852000,0.22885205078125,0.12040449501276015,0.1080222755625844,-0.00499234666088596
1772555805469783000,0.238782958984375,0.10672083757519721,0.07372428464144468,0.058767136669345195
1772555805479713800,0.2487138671875,0.01613455772101879,0.08239303652644157,0.05859070239020511
1772555805489646000,0.25864599609375,-0.08452946403324603,0.12200842307806015,-0.03843299010032788
1772555805499577000,0.2685771484375,-0.15444237369298933,0.1625026382908225,-0.10056317346198483
1772555805509508900,0.2785087890625,-0.19989771844446658,0.1584650533378124,-0.04794129808200523
1772555805519440000,0.28843994140625,-0.29179683446288107,0.12857289616018533,0.06320707361185923
1772555805529372000,0.298371826171875,-0.4573579835414886,0.07206015082150698,0.16707076819026842
1772555805539303200,0.30830322265625,-0.7381523624747991,-0.03099427320063114,0.22770996407549826
1772555805549234000,0.31823388671875,-0.9538438623785972,-0.13321195413768291,0.28764903060104696
1772555805559166000,0.328166015625,-1.0072294156074524,-0.19890052410066125,0.41707726494893427
1772555805569097000,0.338096923828125,-1.0211959816396237,-0.2350868129864335,0.5186660368653014
1772555805579028700,0.34802880859375,-1.029589715975523,-0.25199673899412156,0.5405304800078272
1772555805588960000,0.3579599609375,-1.0581588078558444,-0.2595028768405318,0.4808077961793169
1772555805598892000,0.36789208984375,-1.0445102217316626,-0.2781421108588576,0.35400662239938974
1772555805608823000,0.377822998046875,-0.8468781101316213,-0.29078415028899907,0.2396910919114947
1772555805618754800,0.3877548828125,-0.5181026673614979,-0.32273265547454355,0.10889666551062836
1772555805628685800,0.397685791015625,-0.1379915896296501,-0.4643368826434016,-0.08965703618004918
1772555805638617000,0.4076171875,0.22764964872300625,-0.7344678287431597,-0.24506052825646474
1772555805648548900,0.417548828125,0.4819382980465889,-0.9578282558396458,-0.303423230577074
1772555805658479900,0.42747998046875,0.5998088906675577,-1.0461591579824685,-0.2714947817988694
1772555805668412000,0.437411865234375,0.5521715257018804,-1.0097188943356274,-0.1545199141749181
1772555805678343200,0.44734326171875,0.29706571477651594,-0.7779466127246618,-0.04716432236013934
1772555805688275000,0.45727490234375,-0.04568330828845501,-0.3903638839378953,-0.003947239788435399
1772555805698206000,0.4672060546875,-0.3555523905366659,-0.006763210524618625,-0.07023231433983891
1772555805708137000,0.477136962890625,-0.5625228238463401,0.34590368770360946,-0.20416971494155003
1772555805718068700,0.48706884765625,-0.6399567766606807,0.6346306132018565,-0.3379813337391242
1772555805728000000,0.497,-0.5718751740813255,0.8380129588916897,-0.4074343342695385
1772555805737932000,0.50693212890625,-0.3275362563639879,0.9588622750625013,-0.3856593595087528
1772555805747863000,0.516863037109375,-0.0075982000440359115,0.9599179215952753,-0.2886674869285896
1772555805757794800,0.526794921875,0.300980257871747,0.8475994101434946,-0.15382789505645633
1772555805767725800,0.536725830078125,0.5452051938205957,0.7179319967448711,-0.020648674144595862
1772555805777657900,0.546657958984375,0.7293494628161191,0.6123448393747211,0.09393299646619707
1772555805787588900,0.5565888671875,0.8440507777512073,0.5528887340605259,0.12259100873898714
1772555805797520000,0.566519775390625,0.8734574894994497,0.5074500481829047,0.06647577481791377
1772555805807451600,0.57645166015625,0.8935276331037283,0.4837772039115429,0.03573576863929629
1772555805817383000,0.5863828125,0.9283826733857393,0.49467152289152144,0.005065832022204995
1772555805827315000,0.59631494140625,0.892211289808154,0.4908294605106115,-0.022559476201981305
1772555805837246000,0.606245849609375,0.7766185789912938,0.4517161782622337,-0.06663133070580661
1772555805847177700,0.616177734375,0.6096896486908197,0.40004181286543605,-0.14519182159835473
1772555805857108700,0.626108642578125,0.33358196626901626,0.32826486289948226,-0.2695145677670836
1772555805867040800,0.636040771484375,0.03683832305371761,0.276323078738153,-0.388352982506901
1772555805876971800,0.6459716796875,-0.2245446684449911,0.1895265465557575,-0.46757776426076886
1772555805886902800,0.65590283203125,-0.43994332288205623,0.08202566451877355,-0.49451651499290017
1772555805896834800,0.665834716796875,-0.6151473295748233,-0.030209260302782058,-0.5195340153388679
1772555805906765800,0.675765869140625,-0.7503846520602703,-0.1305675771087408,-0.5220286086335778
1772555805916697900,0.68569775390625,-0.8560966048538684,-0.2588835758984089,-0.4886994992772117
1772555805926628900,0.69562890625,-0.8834989910423755,-0.41117067125365137,-0.3984096816189587
1772555805936561000,0.705560791015625,-0.7247112816214561,-0.5728302828490733,-0.20955288755092769
1772555805946491600,0.71549169921875,-0.502467875856161,-0.6845099118754268,0.006595233546569943
1772555805956423000,0.7254228515625,-0.30900048272013664,-0.7414733235910534,0.16804138505440205
1772555805966355000,0.73535498046875,-0.19227847561240194,-0.7770563858866691,0.28732553426772356
1772555805976286000,0.745285888671875,-0.18404723836183548,-0.8146566332235932,0.39048458770811556
1772555805986217700,0.7552177734375,-0.2581044082194567,-0.8515735744714736,0.47695086502283807
1772555805996148700,0.765148681640625,-0.30616321346759795,-0.8543146898731588,0.518690184925869
1772555806006080800,0.775080810546875,-0.32951486296057697,-0.8208125255048274,0.541707707093656
1772555806016011800,0.78501171875,-0.3366594740182161,-0.7483560688421129,0.5435086555683986
1772555806025943800,0.79494384765625,-0.32056466378569604,-0.6103431441634893,0.5247735964927822
1772555806035874800,0.804874755859375,-0.29570436329543587,-0.4927002228185534,0.5007919785331935
1772555806045805800,0.814805908203125,-0.2592962483525276,-0.36863209073171016,0.5036232929689809
1772555806055737900,0.82473779296875,-0.22447452581822872,-0.23466055039837955,0.5359259818870574
1772555806065668900,0.8346689453125,-0.2330266655862331,-0.1291878131881356,0.6075144235435873
1772555806075601000,0.844600830078125,-0.2561409991919994,-0.04163754002898931,0.693011417434737
1772555806085531600,0.85453173828125,-0.2553302673310041,0.021633447398245333,0.7439495775114744
1772555806095463700,0.864463623046875,-0.270353064417839,0.05886354624852538,0.7655008265189827
1772555806105395000,0.87439501953125,-0.2551297763228416,0.11073971782773732,0.8338970480054616
1772555806115326000,0.884325927734375,-0.2588730545043945,0.21257570597082376,0.9296110461369156
1772555806125257700,0.8942578125,-0.25306875213980673,0.30269188409522174,0.9782735163666307
1772555806135188700,0.904188720703125,-0.22898235863149166,0.33856370020434257,0.9897682854577898
1772555806145120800,0.914120849609375,-0.13877367991805076,0.31224852473065257,1.050356317411363
1772555806155052000,0.924052001953125,-0.04157295036017895,0.2549026895686984,1.119337499178946
1772555806164983800,0.93398388671875,0.0035977322310209274,0.21423165648430584,1.1900175938189028
1772555806174914800,0.943914794921875,-0.020202245551347732,0.20307780978530643,1.2428048888936638
1772555806184846800,0.953846923828125,-0.1100455980837345,0.2108741627499461,1.2446532932393253
1772555806194777600,0.963777587890625,-0.2097965966463089,0.21418051081895828,1.1824256773851811
1772555806204708900,0.973708984375,-0.2747293798059225,0.26766134111583234,1.033600266791135
1772555806214641000,0.983640869140625,-0.29694471874535083,0.38329876785725353,0.7951571291141212
1772555806224572000,0.993572021484375,-0.30465456247031686,0.5059016496971249,0.5222526631804183
1772555806234503700,1.003503662109375,-0.2701011354833841,0.5726490810632705,0.23065953459609298
1772555806244435000,1.01343505859375,-0.15524901390075682,0.5702411431387067,0.0003213774414733052
1772555806254367000,1.023366943359375,-0.012152794608473776,0.479692564946413,-0.14552671610852702
1772555806264297700,1.033297607421875,0.21297522668242452,0.3189171888396144,-0.23198533983975647
1772555806274228700,1.043228759765625,0.43375089798271654,0.15660773503333328,-0.29655986587991934
1772555806284160800,1.053160888671875,0.5792506712853909,0.02650339152216911,-0.29540061284219843
1772555806294092000,1.063092041015625,0.6199643744677305,-0.0520338463589549,-0.3149059073716402
1772555806304023800,1.07302392578125,0.5842693762302398,-0.05569003077894449,-0.38402993167601523
1772555806313954800,1.082954833984375,0.5552525405824185,0.021774609434604644,-0.38908312341235574
1772555806323886800,1.092886962890625,0.5917015720576048,0.10567249756604433,-0.40609168748892843
1772555806333817600,1.102817626953125,0.686682287478447,0.1734092322304845,-0.44411498254351317
1772555806343750000,1.11275,0.8392892624378204,0.26566198399215935,-0.4643552220176905
1772555806353681000,1.122680908203125,1.0041010544538498,0.33874037194550033,-0.456027282926999
1772555806363612000,1.13261181640625,1.1932242809057234,0.3927382118538022,-0.4190781929751858
1772555806373543700,1.142543701171875,1.4632172798395155,0.5064171980038285,-0.28098210179144517
1772555806383475000,1.152474853515625,1.6204782180845736,0.45480771453678603,-0.3528845960995182
1772555806393407000,1.162406982421875,1.8794488877445459,0.4430395353317261,-0.3780902759613469
1772555806403337700,1.172337646484375,2.1601894906640053,0.4305632078573107,-0.2551321144104004
1772555806413269800,1.182269775390625,2.474907181987166,0.5138900181025267,-0.031023544960888102
1772555806423200800,1.19220068359375,2.7577760291069744,0.4807774375736713,0.13217609001761302
1772555806433132000,1.202132080078125,2.823703084000945,0.3445905592784285,0.12234497982235625
1772555806443063800,1.212063720703125,2.7648119190931317,0.39310996777564283,0.04897926282761618
1772555806452994800,1.221994873046875,2.5869430771052837,0.52101738576442,-0.03870574262710288
1772555806462926800,1.2319267578125,2.2387071470618247,0.5944114155381918,-0.19157429113211108
1772555806472857600,1.241857666015625,1.7834300614476204,0.6050207800969482,-0.368026562586613
1772555806482789600,1.25178955078125,1.2252134103626011,0.5685207490868867,-0.5115337372999638
1772555806492721000,1.261720947265625,0.6752139680027961,0.5619711813129484,-0.5446165802776813
1772555806502652000,1.27165185546875,0.18874620983302592,0.5392509615913034,-0.5114812764603645
1772555806512583700,1.281583740234375,-0.18352058413922787,0.5844666523680091,-0.3963135130573064
1772555806522515000,1.291514892578125,-0.6453454839617013,0.404299762570858,-0.5319811167187989
1772555806532447000,1.301447021484375,-0.9875801277637482,0.3529376779936254,-0.6961855904914438
1772555806542377700,1.311377685546875,-1.3712246403187514,0.4175108340606093,-0.7053270744547248
1772555806552309800,1.321309814453125,-1.7159160296231508,0.45522330960035323,-0.6080802407328039
1772555806562240800,1.33124072265625,-1.845977410775423,0.4793872983895242,-0.5459514821432531
1772555806572172800,1.3411728515625,-1.7222317886412142,0.3648250996641815,-0.4561056453928351
1772555806582103800,1.351103759765625,-1.4839584545731543,0.10958733292222023,-0.3638322527019307
1772555806592034800,1.361034912109375,-1.2925620224922896,-0.12145502697899938,-0.2231631692250259
1772555806601966800,1.370966796875,-0.781521548601985,-0.35490678610950704,-0.21592812167126685
1772555806611897900,1.38089794921875,-0.3949538420766592,-0.45357437334954737,-0.19866655094800517
1772555806621829600,1.39082958984375,-0.18878654184341429,-0.5085786138214171,-0.1307951022543013
1772555806631761000,1.400760986328125,-0.13917232384681702,-0.6245563784331083,-0.1707489269800484
1772555806641693000,1.41069287109375,-0.16491759047806262,-0.7165707913942635,-0.154042304992117
1772555806651623700,1.420623779296875,-0.18914602280557155,-0.7617042107149958,-0.06668967329692095
1772555806661554700,1.4305546875,-0.15826280876398086,-0.7920315444394945,0.015707418350130318
1772555806671487000,1.440487060546875,-0.0953191535949707,-0.8541887254059314,0.1620719917885959
1772555806681418000,1.45041796875,0.03325637291371822,-1.0353434571966529,0.5585064643444493
1772555806691349800,1.460349853515625,0.10428221225142478,-1.1681747414536774,0.5223825731704012
1772555806701280800,1.47028076171875,0.17916414249539375,-1.0575006362080572,0.45008554485309865
1772555806711212800,1.480212890625,0.24085516725480555,-0.7980715552560984,0.44063294911403206
1772555806721143800,1.490143798828125,0.21996727752685546,-0.7156028231449425,0.3380723730234429
1772555806731075800,1.500075927734375,0.20162907228171825,-0.7582670758731663,0.27772720991503447
1772555806741006800,1.5100068359375,0.203138307800889,-0.6555056434482336,0.11504114134870469
1772555806750937900,1.519937744140625,0.31854689422249793,-0.39037162885293364,-0.11903576394282281
1772555806760869600,1.52986962890625,0.42473406331241126,-0.2738116804391146,-0.27876564958468075
1772555806770800600,1.539800537109375,0.46563072184622284,-0.2474728318288922,-0.3865050896178931
1772555806780732700,1.549732666015625,0.44998131729364393,-0.2562023739904165,-0.5190832758966833
1772555806790663700,1.55966357421875,0.315555311191082,-0.2544774498939514,-0.653361909417808
1772555806800595700,1.569595703125,0.08841536555588245,-0.2481485391333699,-0.6812252641815691
1772555806810526700,1.579526611328125,-0.1920499275535345,-0.24090105222314595,-0.6749803784426301
1772555806820457700,1.589457763671875,-0.41519291250705714,-0.12702888158857822,-0.6541678920384496
1772555806830389800,1.5993896484375,-0.4709451948672533,-0.042980917461961504,-0.6685445732414722
1772555806840320500,1.609320556640625,-0.401776381573081,0.08353563069030642,-0.7445473242089152
1772555806850252500,1.61925244140625,-0.19399404735863207,0.24003771339207886,-0.8405744799427688
1772555806860183800,1.629183837890625,0.3682061204046011,0.36116102419868107,-0.6615946079730988
1772555806870115800,1.63911572265625,0.7134796935111284,0.22111220977827906,-0.33269765771515664
1772555806880046600,1.649046630859375,0.8714683615088462,0.017891192129999397,-0.45204818669557567
1772555806889977600,1.6589775390625,0.9800509013026952,0.05545388393551111,-0.4520733211368322
1772555806899909600,1.66890966796875,1.0532955857336521,0.08619462076649069,-0.34354908740147944
1772555806909841000,1.6788408203125,1.1134113240003585,0.017942483925819395,-0.31669900133349
1772555806919772700,1.688772705078125,1.188747427752614,-0.12747531018182634,-0.2627297299325466
1772555806929703700,1.69870361328125,1.1845949842482804,-0.3538622454926371,-0.07973821116872132
1772555806939635700,1.7086357421875,0.9110364017874002,-0.5289066777095198,0.2604022368330508
1772555806949566700,1.718566650390625,0.2408317863792181,-0.7192036241158842,0.62641113945432
1772555806959498800,1.728498779296875,-0.29362872606515883,-0.9561058159612119,0.44613297130241986
1772555806969429800,1.7384296875,-0.6683838297218084,-1.0462496127448975,0.14786452967263758
1772555806979360800,1.74836083984375,-1.2784569247722626,-0.9164335115905851,0.30847488794345407
1772555806989292500,1.75829248046875,-1.9393606278717517,-0.8365450782962143,0.6155886436015368
1772555806999223800,1.768223876953125,-2.383185176101327,-0.9389804205719381,0.7443306127183139
1772555807009155800,1.77815576171875,-2.6772078699201343,-1.0803660365540533,0.7895045101799071
1772555807019086600,1.788086669921875,-2.8760084407776594,-1.1365900280792265,0.8410401246931404
1772555807029018600,1.7980185546875,-2.9871786589771507,-1.12306937918365,0.8238451711989939
1772555807038949600,1.80794970703125,-3.0058979724943637,-1.1211804236318916,0.6813630652170628
1772555807048881000,1.817880859375,-2.9392911186426876,-1.1225254085000604,0.49863122030273077
1772555807058812700,1.827812744140625,-2.8392946208864447,-1.1151502035569398,0.3723356579573825
1772555807068743700,1.83774365234375,-2.59703893918395,-1.1055718625463544,0.3304404168402776
1772555807078675700,1.84767578125,-2.2087533228248355,-1.1281835073269904,0.32319099370129406
1772555807088606700,1.857606689453125,-1.6845827337265014,-1.1919708467785268,0.317488836536929
1772555807098538800,1.867538818359375,-1.0962456696659326,-1.2717020436845718,0.3114374275434762
1772555807108469800,1.8774697265625,-0.5364449642598629,-1.3433343244828282,0.27437344250772144
1772555807118400800,1.88740087890625,-0.04610884022414684,-1.396298291298747,0.19159995529633014
1772555807128332500,1.89733251953125,0.3441460303813219,-1.4035989697009323,0.09129303988404572
1772555807138263800,1.907263916015625,0.639739919039607,-1.3881076783195136,-0.035427214146777984
1772555807148195800,1.91719580078125,0.8557862237304449,-1.357152421955019,-0.15567056378107516
1772555807158126600,1.927126708984375,1.002761330282688,-1.3066013614997267,-0.2424438612183556
1772555807168058600,1.93705859375,1.079832879525423,-1.2288541049525141,-0.30461105212215334
1772555807177989600,1.94698974609375,1.048153546670079,-1.141807105140388,-0.4153040812639519
1772555807187921700,1.956921630859375,0.9072638975113629,-1.012903296525404,-0.5546875271108002
1772555807197852700,1.966852783203125,0.7366787827908993,-0.8365539191897958,-0.60516285544876
1772555807207783700,1.97678369140625,0.5521025521188974,-0.7207404052291065,-0.6122158061675727
1772555807217715700,1.9867158203125,0.37100890286564825,-0.6797749192427843,-0.5978228679494932
1772555807227646500,1.996646484375,0.2656482477277517,-0.6836243612125515,-0.5508533923080191
1772555807237578800,2.006578857421875,0.1815840631186962,-0.7520379722252488,-0.43601661442499606
1772555807247509800,2.016509765625,0.09894494287669658,-0.8084119666803627,-0.25352073369100686
1772555807257441800,2.02644189453125,0.09596855741441249,-0.7957666393145918,-0.08398275340329855
1772555807267372500,2.03637255859375,0.030743513309955596,-0.7164799713056534,-0.04210270985532552
1772555807277303800,2.0463037109375,-0.25127777706980703,-0.5812425757549703,-0.13010333886416628
1772555807287235800,2.05623583984375,-0.6809761847913265,-0.36493710867129264,-0.23782876863833516
1772555807297166600,2.06616650390625,-1.1724632324278355,-0.0964728536747396,-0.3597894070519134
1772555807307098600,2.0760986328125,-1.6658207501113413,0.16188962095901369,-0.44054395565632726
1772555807317029600,2.086029541015625,-2.115074922174215,0.3607494111904874,-0.45376054357141254
1772555807326961700,2.095961669921875,-2.404572247523069,0.4780204304831102,-0.4560649115236476
1772555807336892700,2.105892578125,-2.446401218470931,0.5265394736541434,-0.3990753059208393
1772555807346823700,2.11582373046875,-2.200423885896802,0.5012472845526412,-0.29313708835700525
1772555807356755700,2.125755615234375,-1.6604980937838554,0.42417018235195425,-0.12790103391376323
1772555807366686700,2.135686767578125,-0.9764467393308878,0.2843251103427261,0.060950033666379744
1772555807376618500,2.145618408203125,-0.24651801532208917,0.14118096025548874,0.19601649309694766
1772555807386549800,2.1555498046875,0.47505087662041184,0.006400733887776732,0.20915617985092103
1772555807396481800,2.165481689453125,1.1011503928422928,-0.06413695660680532,0.16026525289388371
1772555807406412500,2.17541259765625,1.597198464784026,-0.053180678306519985,0.1443599373514764
1772555807416343800,2.18534375,1.924988403648138,-0.004247209115698933,0.12134837913359514
1772555807426275800,2.19527587890625,2.0817466530680657,0.09303564576767384,0.06248202900663018
1772555807436206800,2.205206787109375,2.1233605199605226,0.19927154937013983,0.008058020125108305
1772555807446138600,2.215138671875,2.0417180095404386,0.2614437087099999,-0.04201250625464599
1772555807456069600,2.225069580078125,1.8303490490108727,0.286661663531512,-0.003500829461496323
1772555807466001700,2.235001708984375,1.4133014485478401,0.29371647741384804,0.11797935022506863
1772555807475932700,2.2449326171875,0.9285480930805206,0.35873423544317484,0.22589838460888712
1772555807485864700,2.25486474609375,0.49497430523037905,0.5114660788912326,0.26171496339943257
1772555807495795700,2.264795654296875,0.08119125952124595,0.6858839767076075,0.23346876506423575
1772555807505726700,2.274726806640625,-0.2623772632330656,0.8027989491041749,0.2292514578964561
1772555807515658500,2.284658447265625,-0.45021571057140825,0.8722590734951198,0.2628760065354407
1772555807525589800,2.29458984375,-0.5143441916108131,0.915925781264156,0.3215163750199601
1772555807535521800,2.304521728515625,-0.5435609337449073,0.9508603165231645,0.35672315134909
1772555807545452500,2.31445263671875,-0.5237450571626424,0.9728588709067553,0.36010683897063134
1772555807555384600,2.324384521484375,-0.4769809679001569,0.9908827495057135,0.34684078589063133
1772555807565315800,2.33431591796875,-0.43015141218602654,0.992168697663024,0.36114100432395935
1772555807575246800,2.344246826171875,-0.4124339691877365,0.9990715358540415,0.40674934768006205
1772555807585178600,2.3541787109375,-0.4445873492956161,0.9751922822903841,0.4379716574829072
1772555807595109600,2.364109619140625,-0.4659118768751621,0.9184344030842184,0.4541815819950774
1772555807605041700,2.374041748046875,-0.47198798191845415,0.8087364493943751,0.47891109571252016
1772555807614972700,2.38397265625,-0.46188335201144215,0.6736655695170164,0.523897726973705
1772555807624904700,2.39390478515625,-0.473088636636734,0.5393190583914518,0.5627483396979048
1772555807634835700,2.403835693359375,-0.4999667066901922,0.4286811935029924,0.5745751902876421
1772555807644766700,2.4137666015625,-0.525513820400834,0.3596088993858546,0.5716208705266937
1772555807654698500,2.423698486328125,-0.5422615415841341,0.2987415390342474,0.543241273336485
1772555807664629800,2.433629638671875,-0.5262900654703379,0.24118790634050963,0.527335738598369
1772555807674561800,2.443561767578125,-0.39789106457233425,0.18564181407690047,0.5134001156937331
1772555807684492500,2.453492431640625,-0.14806231726706026,0.11206694784350693,0.48661987999156114
1772555807694424600,2.463424560546875,0.16363573397397993,0.021332783951237798,0.46787871996872127
1772555807704355800,2.47335595703125,0.5015063373476266,-0.06354629723727703,0.4800350947737694
1772555807714287900,2.483287841796875,0.7551029127538204,-0.13386428056657312,0.5353400717578828
1772555807724218600,2.493218505859375,0.9544383211404085,-0.21855010420531032,0.5740385261276737
1772555807734149600,2.503149658203125,1.0870219142466784,-0.30925562652498484,0.5960925004929304
1772555807744081700,2.51308154296875,1.1623977654874325,-0.37645577009469267,0.6327033714663237
1772555807754012700,2.5230126953125,1.1398311288923024,-0.4296668435394764,0.6699029290478676
1772555807763944700,2.53294482421875,1.0660194582283495,-0.47369463970586656,0.6719542355544865
1772555807773876000,2.5428759765625,0.9326847544938325,-0.48157143749557435,0.6386981549017131
1772555807783808000,2.55280810546875,0.8016735252708196,-0.45471769816577434,0.587495644800365
1772555807793738800,2.56273876953125,0.6852800194650888,-0.4331050743598491,0.5325075152130797
1772555807803670000,2.572669921875,0.5490215372383594,-0.4136116346649825,0.5192849724812433
1772555807813602000,2.58260205078125,0.45629240013659,-0.3863661195386201,0.5372585456650704
1772555807823533000,2.592532958984375,0.396013580262661,-0.365640069308877,0.5394558365136385
1772555807833464800,2.60246484375,0.3091851916372776,-0.36390959225445985,0.5037030802069231
1772555807843395800,2.612395751953125,0.18217559927105903,-0.3669786244362592,0.44100960040669884
1772555807853328000,2.622327880859375,0.022245149555802344,-0.3598186696790159,0.3776499848479405
1772555807863259000,2.6322587890625,-0.18091010937988758,-0.34952699276730415,0.3440900624103844
1772555807873190000,2.64218994140625,-0.3696504739940166,-0.3693155429512262,0.3248700328294188
1772555807883122000,2.652121826171875,-0.5254360789895057,-0.3992821536045521,0.3458655111176893
1772555807893053000,2.662052978515625,-0.6507324376970529,-0.4590416257794946,0.3888121609838679
1772555807902985000,2.67198486328125,-0.6939286053448915,-0.5181053707752377,0.4404449522612616
1772555807912916000,2.681916015625,-0.6816478004425763,-0.570910859093815,0.4713840246759355
1772555807922848000,2.691847900390625,-0.6394336295694112,-0.5867570283275098,0.4814039719741791
1772555807932778800,2.70177880859375,-0.5625795224696397,-0.5647528479207307,0.43231724845040587
1772555807942710800,2.711710693359375,-0.5240075074911117,-0.5660490252111107,0.3260814179131761
1772555807952642000,2.72164208984375,-0.5402595541119575,-0.5944548893537372,0.2396501571129076
1772555807962573000,2.731572998046875,-0.5468716657280922,-0.6090672790087759,0.20665924846865236
1772555807972504800,2.7415048828125,-0.568271012109518,-0.6682121994819492,0.21274156405702233
1772555807982435800,2.751435791015625,-0.6072077687472105,-0.7473789674382656,0.262629356564302
1772555807992367900,2.761367919921875,-0.6998071419894695,-0.7958041948460042,0.3358926908968016
1772555808002299100,2.771299072265625,-0.8969260433703661,-0.7591295379213988,0.42467860679812725
1772555808012231000,2.78123095703125,-1.0748434006750582,-0.6984373880062252,0.5608252261482178
1772555808022162000,2.791161865234375,-1.166404663041234,-0.6844087165232747,0.6350992536269128
1772555808032093000,2.801093017578125,-1.1121107627958058,-0.7091951480597257,0.6316304084725678
1772555808042025000,2.81102490234375,-0.933217253935337,-0.7482998816754669,0.5827397555101662
1772555808051956000,2.8209560546875,-0.65862699033916,-0.7776696224141866,0.5331526447162032
1772555808061888000,2.830887939453125,-0.3361941945940256,-0.7617481959871948,0.5468701678907498
1772555808071819000,2.840819091796875,-0.04984218153357506,-0.6616175504572689,0.6492888147599994
1772555808081750800,2.850750732421875,0.02961713962852955,-0.533537990771979,0.8471828652318567
1772555808091682000,2.86068212890625,-0.20113222867548464,-0.35168241723552346,1.0148089840162544
1772555808101613000,2.870613037109375,-0.8264642676562071,-0.06384615696668625,1.0822540422577411
1772555808111544800,2.880544921875,-1.6715362051486968,0.3876455648899078,1.0814788201015442
1772555808121475800,2.890475830078125,-2.414118074503541,0.9627218000348656,0.9135533530443907
1772555808131408000,2.900407958984375,-2.823682625734806,1.4478642278850078,0.6595012889556586
1772555808141339100,2.910339111328125,-2.8339813169091936,1.7414669427260756,0.4361979258086532
1772555808151271000,2.92027099609375,-2.4252333427578208,1.8278885041162372,0.28575704284198583
1772555808161202000,2.930201904296875,-1.6570844859480858,1.7318617867738006,0.19670527907870708
1772555808171133000,2.9401328125,-0.6670587185978889,1.530632819725573,0.19677852697800843
1772555808181065000,2.95006494140625,0.35806700370609756,1.264399465586245,0.1928338079402223
1772555808190996000,2.959995849609375,1.2720073102414606,0.9714525843054056,0.12724241474140435
1772555808200928000,2.969927978515625,1.9971300952732562,0.6575194674886763,-0.011173282051831483
1772555808210859000,2.97985888671875,2.5194208619743583,0.3785388599790632,-0.17689849911835043
1772555808220790800,2.989790771484375,2.8524831882834434,0.18674933692738413,-0.3696701285425573
1772555808230722000,2.99972216796875,2.9915128887891766,0.08410393209755421,-0.5421369288237765
1772555808240654000,3.009654052734375,2.9134219333708287,0.08269669564813376,-0.7129865031667053
1772555808250584800,3.019584716796875,2.621763630595803,0.18699337481632827,-0.8469671035893261
1772555808260515800,3.029515869140625,2.1338877591937777,0.3661657006181776,-0.9220549316689371
1772555808270447900,3.03944775390625,1.5692898826390504,0.5347649022184312,-0.9966332027912139
1772555808280379100,3.049379150390625,1.0340402656435965,0.6823943810261786,-1.051455949216336
1772555808290311000,3.059310791015625,0.5709469533205032,0.7839885232374072,-1.0671239123389125
1772555808300242000,3.069241943359375,0.19793489393889901,0.838797679528594,-1.0764650105275213
1772555808310174000,3.079174072265625,-0.06110124217271804,0.8642930630519986,-1.0871430564083158
1772555808320105000,3.08910498046875,-0.30531390316188334,0.8752338515222072,-1.1085519743356853
1772555808330036000,3.099035888671875,-0.5540624540150165,0.8921021303452551,-1.1803059087522327
1772555808339968000,3.108968017578125,-0.8544669578254223,0.9468976965025067,-1.2949772669404744
1772555808349899000,3.11889892578125,-1.1053156958281993,0.9907933907218277,-1.4092327378042042
1772555808359830800,3.128830810546875,-1.3022726846456527,1.0071402760192751,-1.4948622720338403
1772555808369762000,3.138761962890625,-1.3873673813462257,0.9681281160578131,-1.5233552299380302
1772555808379694000,3.148694091796875,-1.3121844223290682,0.8534275317750871,-1.4776174149833619
1772555808389624800,3.158624755859375,-1.0627034655481575,0.6857466140635311,-1.388991913808137
1772555808399555800,3.168555908203125,-0.6871990048289298,0.4995116563990712,-1.283449472362548
1772555808409488000,3.17848779296875,-0.23586101222932337,0.31269875271618364,-1.1986348347123712
1772555808419419100,3.188419189453125,0.19935820474028587,0.15945391824468969,-1.1158359207987785
1772555808429351000,3.198350830078125,0.6131506027996539,0.061455316307395695,-1.0507564226448536
1772555808439282000,3.208281982421875,0.919971987915039,-0.014947686024010181,-0.9870842340055852
1772555808449214000,3.2182138671875,1.1587965261250734,-0.06395210155919194,-0.9046030077390372
1772555808459145000,3.22814501953125,1.2669482732862234,-0.10264598935171962,-0.7880525578059255
1772555808469076000,3.238075927734375,1.269794894888997,-0.11263941396921873,-0.649262657405436
1772555808479008000,3.248008056640625,1.185246726155281,-0.12366919589713216,-0.5052271845016628
1772555808488939000,3.25793896484375,0.9487550148069858,-0.13815686319395898,-0.402850075219199
1772555808498870800,3.267870849609375,0.6508323909401893,-0.08981514935120939,-0.24986707002166658
1772555808508802000,3.277802001953125,0.44709085654914377,-0.038341567223519085,-0.10176065788455307
1772555808518734000,3.287734130859375,0.3197778973221779,-0.036828240051120516,0.00361221284752246
1772555808528665000,3.2976650390625,0.30727263601422306,-0.0434318760998547,0.07904427408780902
1772555808538596900,3.307596923828125,0.3260696909427643,-0.051081806331127876,0.13473899930818006
1772555808548527900,3.31752783203125,0.31652035683095453,-0.05572568661421537,0.1829384916686453
1772555808558459100,3.327459228515625,0.2902186253607273,-0.06655015522837639,0.24517765183011067
1772555808568391000,3.337390869140625,0.19820260496437547,-0.06982377007156611,0.3180079285075888
1772555808578322000,3.347322021484375,0.06960662018954754,-0.0996869934156537,0.387449823122099
1772555808588254000,3.35725390625,-0.03782499600350857,-0.1393342364102602,0.41947245298977937
1772555808598185000,3.36718505859375,-0.12905892611145972,-0.15738587979897856,0.4282297234084457
1772555808608117000,3.377116943359375,-0.21030629973411558,-0.15613975219540296,0.3940635787060484
1772555808618048000,3.387048095703125,-0.2652975345939398,-0.1562633785750717,0.32035587987322356
1772555808627979000,3.39697900390625,-0.29445114836394787,-0.13437201089300216,0.22232607908006757
1772555808637910800,3.406910888671875,-0.2975695726454258,-0.1212979367211461,0.12296046310588717
1772555808647842000,3.416842041015625,-0.25807459760308266,-0.14873320226594805,0.0013724391306750476
1772555808657774000,3.426774169921875,-0.1680424445003271,-0.18689371383413672,-0.12015484936693682
1772555808667705000,3.436705078125,-0.041158524340391155,-0.23096973305642604,-0.18584173882948232
1772555808677636900,3.446636962890625,0.07803659488260746,-0.28751616146899756,-0.26707588764438406
1772555808687568000,3.45656787109375,0.12343348744511604,-0.33917920175418254,-0.34656825255956497
1772555808697499100,3.4664990234375,0.11094517727196215,-0.3750773213483393,-0.39231805021297184
1772555808707431000,3.476430908203125,0.11591595142185687,-0.4168187601432204,-0.43203222096394744
1772555808717362000,3.48636181640625,0.1837847880333662,-0.4245897594708949,-0.4672647893214598
1772555808727294000,3.4962939453125,0.2990828998178243,-0.43954197553955016,-0.4760525644762441
1772555808737225000,3.506224853515625,0.4379173700124025,-0.4642457702938467,-0.4348315328262746
1772555808747156700,3.51615673828125,0.5469909081935882,-0.528500215800479,-0.3331123759958893
1772555808757088000,3.526087890625,0.6256026726156473,-0.5929457999650388,-0.20146988139832392
1772555808767020000,3.53602001953125,0.6319798064321279,-0.6461896797008813,-0.08004919508034362
1772555808776950500,3.545950439453125,0.49847792943716046,-0.6547518294062465,0.04025012252489105
1772555808786881800,3.5558818359375,0.2535077280789614,-0.6385451562970876,0.11545031580463982
1772555808796813800,3.565813720703125,-0.007917348995804787,-0.6117704004876315,0.15599855362642556
1772555808806744800,3.575744873046875,-0.21597148588895795,-0.5804734910786151,0.19601077574221415
1772555808816676600,3.585676513671875,-0.3530295940607786,-0.5930163809832185,0.224032755133789
1772555808826607600,3.595607666015625,-0.42455870674550533,-0.6674224373437464,0.2797373624273576
1772555808836539600,3.60553955078125,-0.4774573532402515,-0.7733652032185345,0.36869956647735086
1772555808846470700,3.615470703125,-0.532820928543806,-0.9073511374033987,0.4492581175856292
1772555808856401700,3.625401611328125,-0.593349923786521,-1.0314946728140115,0.48372985763847826
1772555808866333700,3.635333740234375,-0.6802262432068586,-1.134724599533528,0.420018506032601
1772555808876264700,3.6452646484375,-0.7909487176388502,-1.1980304390784353,0.30686610103994605
1772555808886196700,3.65519677734375,-0.9002379443973302,-1.2093665835417806,0.20405271923206744
1772555808896127700,3.665127685546875,-0.9969014983385801,-1.2141591515805572,0.1090758214698173
1772555808906059800,3.675059814453125,-1.0369804107487202,-1.2408654452636838,0.005344228838477284
1772555808915990500,3.684990478515625,-1.0478390738934278,-1.3091545531138777,-0.061603154679713765
1772555808925922600,3.694922607421875,-1.0042974538087843,-1.3643657143346966,-0.10693059873520395
1772555808935853800,3.704853759765625,-0.8628115923225879,-1.3778884821221231,-0.15885659167235716
1772555808945784800,3.714784912109375,-0.6636503714591264,-1.3650494588151574,-0.23526216955333948
1772555808955716600,3.724716552734375,-0.49680970396399493,-1.3288181617438792,-0.3359667790463194
1772555808965647600,3.734647705078125,-0.3667623513370752,-1.2577423457846044,-0.50223457855694
1772555808975579600,3.74457958984375,-0.30485622252225875,-1.1558927675075827,-0.7231650020275264
1772555808985510700,3.7545107421875,-0.3540478311926126,-1.0058249556370078,-0.8546675218988209
1772555808995442700,3.764442626953125,-0.5347632947832346,-0.8169008319538086,-0.9220884686123579
1772555809005373700,3.774373779296875,-0.7642214542329311,-0.599005319199711,-0.9298951968405396
1772555809015304700,3.7843046875,-1.0059890601575374,-0.35330015463046727,-0.8751541373495012
1772555809025236500,3.794236572265625,-1.1857879934251307,-0.06936645475812256,-0.778539317920804
1772555809035167700,3.804167724609375,-1.2780518511027097,0.20469686235450207,-0.693905224469304
1772555809045099800,3.814099853515625,-1.2662415863215923,0.48067032393738623,-0.6320500221241265
1772555809055030500,3.824030517578125,-1.1516022307068108,0.7224848377436399,-0.5584930568736046
1772555809064962600,3.833962646484375,-0.9340589654564857,0.891696618284285,-0.48143319806866347
1772555809074893800,3.843893798828125,-0.6097720662772655,0.9916329102858901,-0.43859322344735263
1772555809084825900,3.853825927734375,-0.24841771146357058,1.0150788139335811,-0.4093826918583363
1772555809094756600,3.863756591796875,0.15002806438207625,1.0289305214144289,-0.3632640974251553
1772555809104687600,3.8736875,0.5046013807535171,1.036465008572489,-0.2990913388526067
1772555809114619600,3.88361962890625,0.83136373013556,0.989570424798131,-0.25982100287899373
1772555809124551000,3.893551025390625,1.1292027673721312,0.9685742523901164,-0.22988465949976816
1772555809134482700,3.903482666015625,1.3156558978319168,0.977348948867619,-0.2497450145445764
1772555809144413700,3.91341357421875,1.4165496366888284,1.0264775753043591,-0.2938643979845568
1772555809154345700,3.923345703125,1.4577888250499962,1.1265145512014627,-0.320201456496492
1772555809164276500,3.9332763671875,1.4103051893413066,1.2425205189943314,-0.3516773757342249
1772555809174207700,3.943207763671875,1.2820341987371444,1.3338957572691141,-0.3542352069908753
1772555809184139800,3.953139892578125,1.0057990905433893,1.4247406880594788,-0.32348807695172727
1772555809194070800,3.96307080078125,0.6723989105820656,1.5164051185391842,-0.20903571354271844
1772555809204002600,3.97300244140625,0.37256899178922176,1.6125849806167185,-0.02775039590857923
1772555809213933800,3.982933837890625,0.11511632547676563,1.6533127123244107,0.12949434012034908
1772555809223865900,3.992865966796875,-0.09419161086976528,1.6918800511278211,0.27174919495135547
1772555809233796600,4.002796630859375,-0.30566578533947464,1.7339049830392002,0.40059451484475284
1772555809243727600,4.0127275390625,-0.5359744241386651,1.7577436853967605,0.5369396159090102
1772555809253659600,4.02265966796875,-0.6527385168224573,1.7558219235539436,0.6456088841382414
1772555809263591000,4.0325908203125,-0.6654688190579414,1.724850738967955,0.7480974909711628
1772555809273522700,4.042522705078125,-0.5226151763498783,1.5938890479750931,0.8043128607984632
1772555809283453700,4.05245361328125,-0.2855126396268606,1.412035081873834,0.8156707787021994
1772555809293385700,4.0623857421875,-0.03192015587389469,1.2466400831423698,0.8133925315719097
1772555809303316500,4.07231640625,0.19527473481893537,1.0744676992304623,0.8000795340776443
1772555809313247700,4.082247802734375,0.3777729901731014,0.8667490779019892,0.760591061841324
1772555809323179800,4.0921796875,0.4992039056241512,0.6776617995463311,0.725007561154291
1772555809333110800,4.10211083984375,0.571156212157011,0.5118400998353958,0.7229047436561435
1772555809343042600,4.11204248046875,0.6278928293794394,0.3382061189383268,0.719655094210431
1772555809352973800,4.121973876953125,0.6547603780388832,0.17860928509160875,0.6965359382990747
1772555809362905900,4.13190576171875,0.6981529450416565,0.061654492141306395,0.6714779232796281
1772555809372836600,4.141836669921875,0.7317237907320261,-0.03617430618703365,0.6180562027588486
1772555809382767600,4.151767578125,0.7487748787760734,-0.12513342323079704,0.520762643818371
1772555809392699600,4.16169970703125,0.728553344002366,-0.1950697137661278,0.4094225124120712
1772555809402631000,4.171630859375,0.6288116977900267,-0.24645327952280638,0.33577195059396325
1772555809412562700,4.181562744140625,0.4864765259981155,-0.2792133933521807,0.30055576711567117
1772555809422493700,4.19149365234375,0.34669805295169354,-0.3138696961916983,0.2669662167248316
1772555809432425700,4.20142578125,0.23436814332306383,-0.35006351079680026,0.21065237322542815
1772555809442356500,4.2113564453125,0.13846563688218594,-0.3873074189767241,0.14892744619641451
1772555809452288500,4.22128857421875,0.06046177522540092,-0.4026210157036781,0.1194626019196119
1772555809462219800,4.2312197265625,-0.020566402688622473,-0.42813839186318214,0.12017509757052175
1772555809472150800,4.24115087890625,-0.10441372967660427,-0.45202064110152423,0.13906004084507004
1772555809482082600,4.25108251953125,-0.1269376961737871,-0.4680195166788995,0.1435185728901997
1772555809492013600,4.261013671875,-0.11101005920171737,-0.4616894368745386,0.1269293393373955
1772555809501945900,4.27094580078125,-0.07153320433795451,-0.4674200164157897,0.06285090798479505
1772555809511876900,4.280876953125,-0.039892449927330015,-0.4577691946908831,-0.007952310711331664
1772555809521808600,4.29080859375,-0.002260346147418022,-0.4511886472567916,-0.04754992414424196
1772555809531739600,4.30073974609375,0.030195816299319264,-0.45471718670912087,-0.0362951378214173
1772555809541671000,4.3106708984375,0.05316168134510517,-0.46637744856029745,-0.02668780817836523
1772555809551602700,4.320602783203125,0.04111234711110592,-0.49314329041093585,0.00998764333068393
1772555809561533700,4.33053369140625,-0.0631423926115036,-0.5279324258498848,0.07117318451968022
1772555809571465700,4.3404658203125,-0.24954350062310693,-0.5541135996803641,0.14148480204027145
1772555809581396700,4.350396728515625,-0.38864100566804405,-0.5925644724972545,0.19641561194974927
1772555809591328500,4.36032861328125,-0.4689648347049951,-0.6094733755916356,0.2583501448751427
1772555809601259800,4.370259765625,-0.4701648581445217,-0.6234280319903045,0.2720953049752861
1772555809611190800,4.380190673828125,-0.46569092760086056,-0.6565802869424223,0.23988480611899865
1772555809621122600,4.39012255859375,-0.46927930748164653,-0.675182038494572,0.21791321280756965
1772555809631053600,4.400053466796875,-0.45127018806040287,-0.7095298599068075,0.24221091097900643
1772555809640985600,4.409985595703125,-0.4040764752089977,-0.7373905843220651,0.26688960782466453
1772555809650916900,4.419916748046875,-0.38372634561955926,-0.7977579592622817,0.2630406773115508
1772555809660848600,4.4298486328125,-0.42060967685878276,-0.854638076608628,0.23610844765175132
1772555809670779600,4.439779541015625,-0.46388358591794965,-0.8764221114587039,0.23430404684459788
1772555809680711700,4.449711669921875,-0.49712300769686696,-0.9022435851313173,0.23836044609593227
1772555809690642700,4.459642578125,-0.48011283618509765,-0.9180213653039186,0.24352199357757343
1772555809700573700,4.46957373046875,-0.47748073411583897,-0.9338887965213507,0.2326439316126518
1772555809710505700,4.479505615234375,-0.4869990885674953,-0.9311277343101799,0.22436532982271162
1772555809720436700,4.489436767578125,-0.4835089083641767,-0.9382208343762903,0.22672683478966354
1772555809730368500,4.499368408203125,-0.48768531726598735,-0.928810251148045,0.23044229338252917
1772555809740299800,4.5092998046875,-0.5314361961871386,-0.8883150130219757,0.23332312778215855
1772555809750231800,4.519231689453125,-0.5733551835060119,-0.827485281267017,0.2319861800899729
1772555809760162600,4.52916259765625,-0.5837514898359775,-0.7542275912240147,0.22640432483702896
1772555809770093600,4.539093505859375,-0.5426613545566797,-0.666558294795081,0.2329460380980745
1772555809780025900,4.54902587890625,-0.5164952321648597,-0.5624141758400947,0.22498432023758067
1772555809789957000,4.55895703125,-0.4360527451843023,-0.4788349982690066,0.20266809647325426
1772555809799889200,4.56888916015625,-0.23567630331218242,-0.4313076695490628,0.1559732730546966
1772555809809820000,4.57881982421875,0.003950198930501938,-0.3642684156294912,0.21019518577614799
1772555809819752000,4.588751953125,0.2533352941215038,-0.29846973635554314,0.2832653356241062
1772555809829683000,4.598682861328125,0.42055706988871094,-0.32246545590572057,0.25257579925740137
1772555809839614000,4.608614013671875,0.5016285024225712,-0.3040688715368509,0.2774451963695697
1772555809849546000,4.6185458984375,0.45838908015489577,-0.20948504647910593,0.406664080549404
1772555809859477000,4.62847705078125,0.2498240711301565,-0.023928426467627287,0.5127702568249777
1772555809869409000,4.638408935546875,-0.07665829226672649,0.22266163117736576,0.5817791668497025
1772555809879340000,4.648340087890625,-0.4723340188771486,0.48571577075868844,0.5530130910925567
1772555809889272000,4.65827197265625,-0.8476648765951394,0.740133307158947,0.4308435591686517
1772555809899203000,4.668203125,-1.1347504646271467,0.9777994691140949,0.30026831021010875
1772555809909135000,4.678135009765625,-1.2726251498788594,1.1609207517374307,0.1831237668413669
1772555809919065900,4.68806591796875,-1.254815352421999,1.2627912997372448,0.13097228545211254
1772555809928997000,4.6979970703125,-1.0500947438657282,1.24573071321249,0.12602313861213624
1772555809938929200,4.70792919921875,-0.7285995212316513,1.126373243034631,0.11175119642522185
1772555809948860000,4.71785986328125,-0.31135376784801483,0.982525328592211,0.14939239682704208
1772555809958792000,4.7277919921875,0.13665771067738533,0.8302655596353113,0.18018077219203113
1772555809968723000,4.737722900390625,0.5443997226566076,0.6802108995072543,0.1409303099626675
1772555809978655000,4.747655029296875,0.8833587057888508,0.565766335812211,0.05955523657342419
1772555809988586000,4.7575859375,1.1068196706503628,0.5079579977050424,-0.04450997192645445
1772555809998517000,4.76751708984375,1.1278998680800199,0.4471032776392996,-0.19306778109287842
1772555810008449000,4.777448974609375,1.0531401029109955,0.38789705543294545,-0.32118454924970863
1772555810018380000,4.787380126953125,0.9488947155386209,0.36980654133856294,-0.40186471744365987
1772555810028312000,4.79731201171875,0.8356944528162479,0.3287023775339126,-0.43310149416327476
1772555810038243000,4.8072431640625,0.7641729389160871,0.2921098459348082,-0.4690027555625885
1772555810048175000,4.817175048828125,0.704421942308545,0.28896336460262534,-0.5059716096607968
1772555810058105900,4.82710595703125,0.6035007309228182,0.2878893056303263,-0.5563124248988927
1772555810068037000,4.837037109375,0.5113374110102653,0.3227424462161958,-0.6246947639904916
1772555810077969200,4.84696923828125,0.4355512254029512,0.3815136380061507,-0.7352301914177835
1772555810087900000,4.85689990234375,0.3590910860568285,0.4708981408551335,-0.8675010653130709
1772555810097832000,4.86683203125,0.25952479641139503,0.5803007648602128,-0.9656938015829771
1772555810107763000,4.876762939453125,0.10918810447156428,0.6707168757792562,-1.0264414080124349
1772555810117695000,4.886695068359375,-0.11473521720468997,0.7470727510333061,-1.0560101784545928
1772555810127626000,4.8966259765625,-0.3567769638955593,0.8173379081968217,-1.0434452228486537
1772555810137557000,4.906556884765625,-0.5833996076583862,0.8324192305378615,-1.0202473026126622
1772555810147489000,4.916489013671875,-0.7923883950531482,0.8311809209145605,-0.9692024672910571
1772555810157420000,4.926419921875,-0.961917863240838,0.8182492508880793,-0.9009827714152634
1772555810167352000,4.93635205078125,-1.0198398908555506,0.7896834469433873,-0.8197812827609479
1772555810177283000,4.946282958984375,-0.9961556484073399,0.7715955631975084,-0.7206424247473477
1772555810187215000,4.956215087890625,-0.895368877056241,0.7253433689799159,-0.6557933743484318
1772555810197145900,4.966145751953125,-0.7188678162902593,0.6492561545994132,-0.6415772174693644
1772555810207078000,4.976077880859375,-0.5016285024225712,0.593086231349036,-0.6115300889257341
1772555810217009200,4.986009033203125,-0.2665729613572359,0.5101484204214066,-0.6502690579690039
1772555810226940000,4.99593994140625,-0.027518706044554708,0.40627983047217126,-0.7323164228629321
1772555810236872000,5.005871826171875,0.20411796648800373,0.31825609458237886,-0.802628487908095
1772555810246803000,5.015802978515625,0.41823534894287584,0.26406981942988933,-0.8270064117088913
1772555810256735000,5.02573486328125,0.5912579199433327,0.1816300211522728,-0.8348360824212432
1772555810266666000,5.035666015625,0.7376853294849395,0.07450761703886091,-0.8281813737723975
1772555810276598000,5.045597900390625,0.8278414012283086,-0.0585815144367516,-0.8096016879215836
1772555810286529000,5.055529052734375,0.8536714235335588,-0.19203787178955972,-0.7722932631380856
1772555810296460000,5.0654599609375,0.8329530451536178,-0.2859816453780979,-0.6898730463437736
1772555810306392000,5.07539208984375,0.8167144425362348,-0.3579988338407129,-0.5802751189623028
1772555810316323000,5.085322998046875,0.7892512660712003,-0.428026748182252,-0.45636926476508377
1772555810326255000,5.095255126953125,0.7298667646884918,-0.48528000968992707,-0.37226602678727355
1772555810336185900,5.105185791015625,0.6263350785434245,-0.47502800720147786,-0.2769860361589119
1772555810346118000,5.115117919921875,0.5084983881920576,-0.4656923158403486,-0.15088219699338076
1772555810356049200,5.125049072265625,0.3918021000474691,-0.46553208377733823,-0.03364756418839097
1772555810365980000,5.13497998046875,0.27594343177080155,-0.4655498386297375,0.044282465047203
1772555810375912000,5.144911865234375,0.17696458662450312,-0.46920675370208914,0.1088485703188926
1772555810385843000,5.154843017578125,0.0842518161356449,-0.4800263269454241,0.16140132598541676
1772555810395775000,5.16477490234375,0.00022211831808090208,-0.4894855716209858,0.20552370510008186
1772555810405706000,5.1747060546875,-0.07083762328922748,-0.5034171394050121,0.21702775347623973
1772555810415638000,5.184637939453125,-0.1338531746506691,-0.5057382027637213,0.24362441277243196
1772555810425569000,5.194569091796875,-0.2372024899661541,-0.5107460940536112,0.2549505290321074
1772555810435500000,5.2045,-0.3250093682348728,-0.5429271658860146,0.2541441445526667
1772555810445432000,5.21443212890625,-0.40172903530001636,-0.5409683599684387,0.23155695835985243
1772555810455363000,5.224363037109375,-0.4503922361820936,-0.5270198410496115,0.19181820115689188
1772555810465295000,5.234295166015625,-0.4581786522746086,-0.5350161735657603,0.13003706869492307
1772555810475225900,5.244225830078125,-0.40208442460894583,-0.5534992671743035,0.0623042795532383
1772555810485158000,5.254157958984375,-0.2884668132573366,-0.5643669173430651,-0.02273307920321822
1772555810495089200,5.264089111328125,-0.12593465661108494,-0.5996309037521481,-0.09764971543438732
1772555810505020000,5.27402001953125,0.005699672946333885,-0.6784622292090207,-0.16821818465972319
1772555810514952000,5.283951904296875,0.12043430562913417,-0.7459898511674254,-0.2050130886968225
1772555810524883000,5.293883056640625,0.24009353523254393,-0.7884877343527972,-0.1974270174819976
1772555810534815000,5.30381494140625,0.34833412972092626,-0.8433942866038531,-0.19206793813426046
1772555810544746000,5.31374609375,0.39781390768289565,-0.9240663445565849,-0.2079193315323442
1772555810554678000,5.323677978515625,0.3721148182809353,-0.9631393678598106,-0.22753546602511776
1772555810564609000,5.333609130859375,0.3091016050070524,-0.9669298461839556,-0.2103064093319699
1772555810574541000,5.343541015625,0.22958733878731727,-0.9450093985378741,-0.21313355904929338
1772555810584472000,5.35347216796875,0.13392799345254897,-0.9348487275946885,-0.23468119132760912
1772555810594403000,5.363403076171875,0.04750000232160091,-0.9077735275339335,-0.20568881426760927
1772555810604335000,5.373335205078125,-0.025969138514995573,-0.873231644854322,-0.1538835525001399
1772555810614265900,5.383265869140625,-0.13116788108944893,-0.8474729342196137,-0.1139917966925539
1772555810624198000,5.393197998046875,-0.20713526848256586,-0.8251694786053151,-0.09391836515264584
1772555810634129200,5.403129150390625,-0.28205636169314385,-0.7859958444718271,-0.06411931135226041
1772555810644061200,5.413061279296875,-0.3300689897119999,-0.7268637104149908,-0.01837379258174915
1772555810653992000,5.422991943359375,-0.3791723355770111,-0.69980385405384,0.008344209805480203
1772555810663923000,5.4329228515625,-0.4174877454459667,-0.6894251564458013,0.02165151277789846
1772555810673855000,5.44285498046875,-0.4552817617893219,-0.6611245793085545,0.01585771354101598
1772555810683786000,5.452785888671875,-0.4570195453673601,-0.6130005998697131,0.021133311289804987
1772555810693718000,5.462718017578125,-0.4230331046134233,-0.5821146093491465,0.026144549880828708
1772555810703649000,5.47264892578125,-0.3311906872183084,-0.5818936600748449,0.02186109127481468
1772555810713581000,5.4825810546875,-0.19912731859385965,-0.6238471341852099,-0.02839567154217511
1772555810723511800,5.49251171875,-0.030864509341120717,-0.6715913935914636,-0.07270644936840981
1772555810733443000,5.502443115234375,0.1610679293125868,-0.7352271957430988,-0.15477098459284752
1772555810743375000,5.512375,0.35628245837688444,-0.7917820997230708,-0.18746559543795882
1772555810753305900,5.522305908203125,0.5516121382534503,-0.8449298986732959,-0.20932320698089896
1772555810763238000,5.53223779296875,0.6863175458192825,-0.9005014176391064,-0.25560959572903813
1772555810773169200,5.542169189453125,0.7324789930135012,-0.9105066788248717,-0.271876931250561
1772555810783100700,5.5521005859375,0.6283902575075626,-0.836787216489017,-0.2690689063588157
1772555810793031700,5.56203173828125,0.32616204540133475,-0.7229027708947658,-0.29976963997296985
1772555810802962400,5.57196240234375,-0.17841010925769804,-0.5444100979201495,-0.4329796213492751
1772555810812894500,5.58189453125,-0.8492892629265785,-0.279134482897073,-0.5673696793556213
1772555810822825700,5.59182568359375,-1.5385937156021594,0.014143091642856598,-0.678053721473366
1772555810832757500,5.601757568359375,-2.114034473210573,0.2392474397972226,-0.7307645172458141
1772555810842688500,5.6116884765625,-2.5029303304225206,0.3757126966424286,-0.6986294034469872
1772555810852620500,5.62162060546875,-2.609294609645009,0.4605825716111809,-0.6285888488195837
1772555810862551800,5.6315517578125,-2.380148584884405,0.46339236833490427,-0.5207467521294951
1772555810872483600,5.641483642578125,-1.8272119200289247,0.3887329948004335,-0.5205746104329824
1772555810882414600,5.65141455078125,-1.0969663851559162,0.361380366037786,-0.6044543783858418
1772555810892345600,5.661345703125,-0.3617582594394684,0.38549700855389235,-0.7107317099772393
1772555810902277400,5.67127734375,0.3449731288552284,0.4115570402227342,-0.8666489785283803
1772555810912208600,5.681208740234375,0.9544336449652909,0.4513204569429159,-0.9752923816639929
1772555810922140700,5.691140625,1.4008540549069641,0.46807168525755405,-1.0010339219681919
1772555810932071700,5.70107177734375,1.7047475698769092,0.4679872218444943,-1.0396790752481668
1772555810942003500,5.71100341796875,1.847559127008915,0.4600570133671164,-1.0293320879526435
1772555810951934500,5.7209345703125,1.8083698569148778,0.43130774261429905,-0.9243111861631274
1772555810961865700,5.73086572265625,1.578339450535178,0.42696269914731383,-0.7673723194792866
1772555810971797500,5.740797607421875,1.2587918548375368,0.4419660608813166,-0.5734083384653553
1772555810981728500,5.750728515625,0.9277613266170024,0.4444371271699667,-0.3868967192839831
1772555810991660500,5.76066064453125,0.6134253280878067,0.5174329514063895,-0.22190284869931637
1772555811001591800,5.770591796875,0.3700099549561739,0.6089730248540639,-0.12119939911696127
1772555811011523600,5.780523681640625,0.13396890998482702,0.7095565287180244,-0.03488663186351768
1772555811021454600,5.79045458984375,-0.08934007918536663,0.8129558206550777,0.04200078385081142
1772555811031385600,5.800385498046875,-0.25731588819026946,0.9335431248888373,0.07782178308814763
1772555811041317400,5.8103173828125,-0.3830389478772878,1.0729618247121573,0.07124172884440048
1772555811051248600,5.82024853515625,-0.4969909057497978,1.1822434526860712,0.05514220590414479
1772555811061180700,5.8301806640625,-0.5935258648753166,1.2716183109238743,0.031152605567499995
1772555811071111700,5.840111572265625,-0.6965729823738336,1.3556228743001817,0.02612208232069388
1772555811081043500,5.85004345703125,-0.8003624426722526,1.3665512416802346,0.03572053453754633
1772555811090974500,5.859974365234375,-0.8935551056325435,1.3379492704436182,0.06252062571765854
1772555811100905700,5.86990576171875,-1.0039899952948093,1.2546987403050065,0.12009466187860816
1772555811110837500,5.87983740234375,-1.0795090543985366,1.1637500568792223,0.22944188416833056
1772555811120768500,5.8897685546875,-1.071798626151681,1.0447254719175398,0.33692718504369257
1772555811130700500,5.899700439453125,-0.9845411984592676,0.906303528046608,0.40746366996187716
1772555811140631600,5.909631591796875,-0.8551046712070703,0.7768601326622069,0.43157106972560283
1772555811150563600,5.9195634765625,-0.6914420492261648,0.6455366226196289,0.4042206329200417
1772555811160494600,5.92949462890625,-0.41549511032402514,0.5357737870000302,0.3442595737583935
1772555811170426600,5.939426513671875,-0.04759761747717857,0.4606177159897983,0.30830932211820034
1772555811180357600,5.949357666015625,0.34808220078647134,0.40530455569922924,0.27119599978169423
1772555811190288600,5.95928857421875,0.6788409263283014,0.3271649388335645,0.23468734707375988
1772555811200220700,5.969220703125,0.9383394192546606,0.24214988324046133,0.19867140978621317
1772555811210151700,5.979151611328125,1.1653086844980716,0.18520283813774585,0.17664094416070728
1772555811220083500,5.98908349609375,1.353367496588826,0.1614326709717512,0.19054898493867367
1772555811230014500,5.999014404296875,1.4322458029925822,0.11951236847862601,0.18349583329046143
1772555811239946500,6.008946533203125,1.4257704694986342,0.09346694985702633,0.18853795564351603
1772555811249877800,6.018877685546875,1.3545488153278826,0.0722007283359766,0.22595241635106503
1772555811259808500,6.02880859375,1.1781716732025145,0.0503325953990221,0.2709547749043442
1772555811269740500,6.038740478515625,0.9430787227362394,0.026092764894664285,0.2979120294075459
1772555811279671600,6.048671630859375,0.666377750596404,0.013679127392917871,0.3610765607856214
1772555811289603600,6.058603515625,0.3580284252613783,-0.006421265219151973,0.4399623563760891
1772555811299534600,6.06853466796875,0.10926233875155449,-0.029519962864369153,0.51263658397533
1772555811309466600,6.078466552734375,-0.09435469247698783,-0.07770297901406883,0.4970645189752802
1772555811319397600,6.088397705078125,-0.21208967601954937,-0.11950915360823273,0.40950478386804456
1772555811329328600,6.09832861328125,-0.2880003647893667,-0.1468061797261238,0.31436562648247923
1772555811339260700,6.1082607421875,-0.3731067519277334,-0.18725494836196302,0.26510411264738065
1772555811349191700,6.118191650390625,-0.40310909148156643,-0.277711464356631,0.27001142963962627
1772555811359123500,6.12812353515625,-0.4064432043403387,-0.3771129188291728,0.2910791694465093
1772555811369054500,6.138054443359375,-0.4271434625416994,-0.43335327696725723,0.2896603156245313
1772555811378986500,6.147986572265625,-0.46515784363746643,-0.4899633452005684,0.26699420071030033
1772555811388917800,6.157917724609375,-0.5859346790939569,-0.6052928750365972,0.2605258449464105
1772555811398848500,6.1678486328125,-0.7642454196304083,-0.7646339805565774,0.28088684298973526
1772555811408780500,6.177780517578125,-0.9861766907066106,-0.9120477707870304,0.34265042152870445
1772555811418711600,6.187711669921875,-1.1444389149487018,-1.0291868342630563,0.3871223447334021
1772555811428643600,6.1976435546875,-1.2238625802755354,-1.074261070742458,0.3809009129352867
1772555811438574600,6.20757470703125,-1.165281796491146,-1.0993360368967056,0.37312604115009307
1772555811448506600,6.217506591796875,-0.9892471841931343,-1.1072200681447981,0.42537250734642146
1772555811458437600,6.227437744140625,-0.7777052051842213,-1.1173587464518844,0.4892085447778925
1772555811468369400,6.237369384765625,-0.5609387695252895,-1.1502755121476949,0.47237139174547044
1772555811478300700,6.24730078125,-0.34406770444810386,-1.1644786634147166,0.40221572283841667
1772555811488231700,6.257231689453125,-0.21257424466609953,-1.1506652421176433,0.3468879129679873
1772555811498163500,6.26716357421875,-0.1658025566190481,-1.1418602966323494,0.3304290186634287
1772555811508094500,6.277094482421875,-0.24667174457907676,-1.1884059208385647,0.3371164240054786
1772555811518026500,6.287026611328125,-0.37146775254905223,-1.2557488338798284,0.3658341305762529
1772555811527957800,6.296957763671875,-0.5087427183419466,-1.2668779845289886,0.37956250393837687
1772555811537889500,6.3068896484375,-0.655471156656742,-1.2347875866547227,0.32688181104324754
1772555811547820500,6.316820556640625,-0.7806611323803663,-1.2110524908021092,0.23852013016967102
1772555811557751600,6.32675146484375,-0.8626824129849672,-1.147706830703467,0.17218749014949425
1772555811567683600,6.33668359375,-0.9133271430730819,-1.056995609295368,0.16662012007962912
1772555811577614600,6.346614501953125,-0.8457061437427997,-0.993166111202538,0.19442295856149866
1772555811587546600,6.356546630859375,-0.6550052927106619,-0.9118506407797337,0.19482540188254788
1772555811597477600,6.3664775390625,-0.4636661437749862,-0.7816754239894449,0.121481586192362
1772555811607409400,6.376409423828125,-0.2534054367482662,-0.6816191588699817,0.04704865095806308
1772555811617340700,6.386340576171875,0.01209726502895355,-0.6349056307509541,0.04308517242087982
1772555811627271700,6.396271728515625,0.23989362874627113,-0.5851856142923235,0.04161132787549868
1772555811637203700,6.40620361328125,0.37934769214391706,-0.44208618012964723,0.03888359254519455
1772555811647134500,6.416134521484375,0.4358306268662214,-0.27625951198264953,0.01964912344692275
1772555811657066500,6.42606640625,0.364545259809494,-0.133647276815027,0.00038624110491946337
1772555811666997800,6.435997802734375,0.11462415804564952,0.037357963013648986,0.017808235687436533
1772555811676929500,6.445929443359375,-0.3355710942596197,0.2952992896258831,0.060983059153147036
1772555811686860500,6.455860595703125,-0.9171867411106824,0.5896740117527545,0.16155173077415674
1772555811696792600,6.46579248046875,-1.4818559293359517,0.8589850197717547,0.24581494508665053
1772555811706723600,6.4757236328125,-1.9145336451292037,1.0154857872992753,0.28781087009925393
1772555811716654600,6.485654541015625,-2.1719261056870223,1.0619169913455844,0.3303585107104853
1772555811726586600,6.495586669921875,-2.071923178189993,1.0705980181902646,0.3791116914309561
1772555811736517600,6.505517578125,-1.6119184795320034,1.1129343541383743,0.4681868360698223
1772555811746449400,6.515449462890625,-0.8318406999975443,1.1649749224990606,0.4926034844458103
1772555811756380700,6.525380615234375,0.12769757463037967,1.1096294673740863,0.3887870265426114
1772555811766312700,6.535312744140625,1.0847323420047759,1.0316793817311525,0.18447795792929828
1772555811776243700,6.54524365234375,1.872324150431156,0.9492015895307063,-0.03682646821914241
1772555811786174500,6.555174560546875,2.490243867328763,0.8884265105724334,-0.23184368461305274
1772555811796106500,6.5651064453125,2.8822219084650276,0.8758362013295292,-0.4215419892728329
1772555811806037800,6.575037841796875,3.012050065383315,0.8872764637544751,-0.624960721450299
1772555811815969800,6.5849697265625,2.8981910464912652,0.9300111513704061,-0.8250383265063166
1772555811825900500,6.594900634765625,2.6069547685205934,1.0249228932082652,-0.9792872234538197
1772555811835832600,6.60483251953125,2.2032494647115466,1.1571595725730062,-1.0463191708497703
1772555811845763600,6.614763671875,1.7852596149623392,1.2894012203738092,-1.0098207472749055
1772555811855694600,6.624694580078125,1.4472498953789472,1.3583748033568261,-0.9266744081631302
1772555811865626600,6.634626708984375,1.2282459099262952,1.3797352790325879,-0.8803364353582263
1772555811875557600,6.6445576171875,1.0543962404519318,1.3838777856647968,-0.8480039723563939
1772555811885489700,6.65448974609375,0.8810632883280515,1.4530688107907772,-0.8701147549428045
1772555811895420700,6.664420654296875,0.6507493888318538,1.5732006263419984,-0.9331470382433384
1772555811905352700,6.674352783203125,0.3230272545069456,1.6520424001276492,-1.0386242324329913
1772555811915283700,6.68428369140625,-0.10701426756381988,1.6859566524282097,-1.1192922717977314
1772555811925214500,6.69421435546875,-0.5674649564236403,1.6828642393708229,-1.126498038458079
1772555811935146500,6.704146484375,-0.9826584534525871,1.634992773388326,-1.1010885065872222
1772555811945077800,6.714077880859375,-1.2687199591338634,1.5079277975730596,-1.032158835811168
1772555811955009800,6.724009765625,-1.3431558991760015,1.3264132925592362,-0.9146318689960986
1772555811964940500,6.7339404296875,-1.2097241648077963,1.1276359564468263,-0.7331075001753866
1772555811974872600,6.74387255859375,-0.878386178073287,0.9271389569349586,-0.5320013923218474
1772555811984803600,6.753803466796875,-0.4141887039005756,0.7393620305255055,-0.3783540049314499
1772555811994734600,6.763734619140625,0.050317982351779936,0.5590107240721583,-0.2970131626053713
1772555812004666600,6.77366650390625,0.44008536170125007,0.3904005626864731,-0.30732363554909825
1772555812014597600,6.78359765625,0.711218178319931,0.24347601727768778,-0.3544795736733824
1772555812024529700,6.79352978515625,0.8567910168588161,0.1213303776860237,-0.38980942839290944
1772555812034460700,6.803460693359375,0.9109563222885131,0.015363281087577342,-0.3955863678265363
1772555812044392700,6.813392822265625,0.9294482567906379,-0.07897066086232661,-0.36405342117194084
1772555812054323700,6.82332373046875,0.8999182109236716,-0.15722148301750422,-0.345249205850251
1772555812064254500,6.83325439453125,0.8475672614395618,-0.24407003764808177,-0.2891016405621543
1772555812074186500,6.8431865234375,0.7881143709957599,-0.32152868651226163,-0.2551018654026091
1772555812084117800,6.85311767578125,0.714386871483922,-0.38956908029839393,-0.24545338176526127
1772555812094049800,6.8630498046875,0.5906944408416748,-0.4228109862953424,-0.23789273725263774
1772555812103980500,6.87298046875,0.43387715471088883,-0.4595706911548972,-0.18788166542556137
1772555812113912600,6.88291259765625,0.22026889082193374,-0.5041124281927943,-0.14003721531415358
1772555812123843600,6.892843505859375,-0.05098433730602264,-0.5247469276815653,-0.09115269069843925
1772555812133774600,6.902774658203125,-0.30733050368130205,-0.5253842026717961,-0.04002734661968425
1772555812143706600,6.91270654296875,-0.501654805907607,-0.5344675267070531,0.03213270264603198
1772555812153637600,6.9226376953125,-0.6324807416915893,-0.5412922581605613,0.11159353077863342
1772555812163569700,6.932569580078125,-0.7507797888576984,-0.5900998359493911,0.16606752769816666
1772555812173500400,6.94250048828125,-0.8540905257284641,-0.6426870784074068,0.21533417436610905
1772555812183432700,6.9524326171875,-0.963991746905446,-0.6834254776395857,0.2422441373951733
1772555812193363700,6.96236376953125,-1.0340583858221768,-0.7204219138644635,0.26605284647326916
1772555812203295700,6.972295654296875,-1.0394418324261903,-0.7664015747509896,0.23713453929647801
1772555812213226500,6.9822265625,-1.0147317540615797,-0.7831842211171984,0.1996586307252757
1772555812223157800,6.99215771484375,-0.9314946679264307,-0.790593766721338,0.17963422595886513
1772555812233089800,7.00208984375,-0.7354886962234973,-0.8098679376423359,0.1776946361984126
1772555812243020500,7.0120205078125,-0.5058855753451585,-0.8305047752186655,0.15520119270365684
1772555812252952600,7.02195263671875,-0.2637082195758819,-0.8459557345896959,0.09742403518604115
1772555812262883600,7.031883544921875,-0.004910568395256996,-0.8746770944222807,0.03436623385176062
1772555812272815600,7.041815673828125,0.1950169606655836,-0.8980163228251039,-0.019240962771140038
1772555812282746600,7.05174658203125,0.33160862036943434,-0.927114114754647,-0.04708805138668976
1772555812292677600,7.061677734375,0.4388198718100786,-0.9336191127344965,-0.09967698347829282
1772555812302609700,7.071609619140625,0.4792874912768602,-0.9418287226751446,-0.17507044344097375
1772555812312540400,7.08154052734375,0.465546550694108,-0.9703376088008284,-0.2183495035992935
1772555812322472400,7.091472412109375,0.45963586534559725,-0.9839356337815522,-0.26643421047367155
1772555812332403700,7.10140380859375,0.47852819734215735,-1.0041668131664394,-0.28311078438321124
1772555812342335700,7.111335693359375,0.4698287580579519,-1.0082888615325092,-0.2898319275980815
1772555812352266500,7.1212666015625,0.44669805783927435,-0.9964650066174566,-0.3023298823824152
1772555812362197800,7.13119775390625,0.355956879684329,-0.9674519703619181,-0.32306495616883035
1772555812372129800,7.1411298828125,0.24015958620607852,-0.9149413002714514,-0.290342251740396
1772555812382060500,7.151060546875,0.06012567513883114,-0.8753975176513195,-0.2615203724090941
1772555812391992600,7.16099267578125,-0.105824180996418,-0.824074303779751,-0.2598998950677924
1772555812401923600,7.170923583984375,-0.2732300811588764,-0.7562099972128867,-0.23869104802347718
1772555812411855600,7.180855712890625,-0.4142892416656017,-0.7147410917490721,-0.231477098056674
1772555812421786600,7.19078662109375,-0.4913087684601545,-0.7268883333995938,-0.27293204806037247
1772555812431717600,7.200717529296875,-0.4927297411739826,-0.7719187307372689,-0.3146056092508137
1772555812441649700,7.210649658203125,-0.3716600602507591,-0.8133287456206977,-0.33378581827804443
1772555812451580400,7.220580322265625,-0.20512392866015433,-0.7293748895183205,-0.3147861899821088
1772555812461512400,7.230512451171875,-0.15949673447310925,-0.5720965617470443,-0.3384124916980043
1772555812471443700,7.240443603515625,-0.25239538292288777,-0.3786687699690461,-0.31986422389876096
1772555812481375700,7.250375732421875,-0.5544897395163774,-0.2065178672365844,-0.3546309283101931
1772555812491306500,7.260306396484375,-1.0249445205181837,-0.036615181822329756,-0.4722888645611703
1772555812501237500,7.270237548828125,-1.5639976214498281,0.17456600105017422,-0.5460762045014649
1772555812511169800,7.280169677734375,-2.0284762506514786,0.40509018229618665,-0.4976506483001634
1772555812521100500,7.2901005859375,-2.3177350910693404,0.5890782378166913,-0.34883955849241466
1772555812531032600,7.300032470703125,-2.4012574238866566,0.6783743317298591,-0.20697379431053994
1772555812540963600,7.309963623046875,-2.2535528340160846,0.7021183415412903,-0.17094382849764078
1772555812550895600,7.3198955078125,-1.9168185411959886,0.7209013679444789,-0.17627550838179884
1772555812560826600,7.32982666015625,-1.490180690088868,0.7589867684498429,-0.28839221365116535
1772555812570757600,7.339757568359375,-0.9848550867140292,0.7825462154746056,-0.41832193124778566
1772555812580689700,7.349689697265625,-0.5232207410275935,0.7999787040516734,-0.5024615557132288
1772555812590620400,7.359620361328125,-0.10247077891528605,0.7975371561184526,-0.5226450234988704
1772555812600552400,7.369552490234375,0.23478081577718257,0.7608068234838545,-0.5146670668896287
1772555812610483700,7.379483642578125,0.44471009889245033,0.7404039407938718,-0.4071117877842858
1772555812620415700,7.389415771484375,0.6189578277736902,0.7505157310940325,-0.25397677036281674
1772555812630346500,7.399346435546875,0.7689870611995459,0.7627069580167531,-0.17615652164462953
1772555812640278500,7.409278564453125,0.9065057726204395,0.7824030076116323,-0.13185985454213806
1772555812650209800,7.419209716796875,1.0403180307388304,0.7729996578417718,-0.09979323940225876
1772555812660140500,7.429140625,1.0902689333438873,0.7865279785871505,-0.1254792227274738
1772555812670072600,7.439072509765625,1.0603887588649987,0.7714962675414979,-0.1775044291222468
1772555812680003600,7.449003662109375,0.9514110822737216,0.741330407989025,-0.22648995729386806
1772555812689935600,7.458935546875,0.8522446056008338,0.7826859162062406,-0.18318291315007953
1772555812699866600,7.46886669921875,0.7823930707395076,0.8369697334490716,0.021428599875373766
1772555812709798700,7.478798583984375,0.7257534841507672,0.8819663746476173,0.15879181934045628
1772555812719729700,7.488729736328125,0.6446621778726578,0.9480603105410933,0.24679009199542923
1772555812729660400,7.498660400390625,0.4888052612066269,0.9706840841509401,0.2857571707061492
1772555812739592400,7.508592529296875,0.31439503524005413,0.9793629190385341,0.2829583155015483
1772555812749523700,7.518523681640625,0.16347732854187488,0.9872871361665427,0.2768920194662176
1772555812759455700,7.528455810546875,0.05351823969781398,0.9746839674420654,0.30763836405407635
1772555812769386500,7.538386474609375,0.061897945508360856,0.9278099880643188,0.371358520020917
1772555812779319300,7.5483193359375,0.14201894544959068,0.8483731709949671,0.47210152529552574
1772555812789250000,7.55825,0.1445709680199623,0.7682076012596487,0.5799407724414021
1772555812799181300,7.568181396484375,0.08195055345594883,0.6990228597439825,0.5906448660789058
1772555812809113300,7.57811328125,-0.04665186105966568,0.6667458532564342,0.48788858475312585
1772555812819044400,7.58804443359375,-0.3029004122793674,0.6837880273416638,0.3286022050950676
1772555812828976000,7.59797607421875,-0.6193360134363174,0.7560898779645562,0.19747947832159696
1772555812838907100,7.6079072265625,-0.9042828358739614,0.7980684865161776,0.18369214131385087
1772555812848839200,7.617839111328125,-1.1507774703204632,0.7480065247520804,0.2018305862031877
1772555812858770200,7.627770263671875,-1.2772311823695897,0.6847625714622437,0.3386210564147681
1772555812868701200,7.637701171875,-1.2849193987846375,0.6327621889814734,0.5206801531666889
1772555812878633200,7.64763330078125,-1.1359259381473064,0.5685027750387788,0.6409460799589752
1772555812888564200,7.657564208984375,-0.8776724768459796,0.4710898640349507,0.6884669058728963
1772555812898496300,7.667496337890625,-0.497809236395359,0.355805780775845,0.6740018887992948
1772555812908427300,7.67742724609375,-0.05257072971463203,0.2813167953722179,0.5781703287027776
1772555812918359300,7.687359375,0.3603565759479999,0.2542253748290241,0.46463626744877545
1772555812928290000,7.6972900390625,0.7612152581542729,0.22392931302562355,0.41660007589124143
1772555812938221300,7.70722119140625,1.058118475845456,0.1782462969981134,0.37661830371264365
1772555812948153300,7.7171533203125,1.238517128571868,0.11714593160822986,0.25810946798706424
1772555812958084400,7.72708447265625,1.338331840020418,0.05047419582679868,0.18388517966791987
1772555812968016100,7.73701611328125,1.3848814097493887,0.007402092950046062,0.21847501140879466
1772555812977947100,7.746947021484375,1.3023159392654895,-0.022103549128025767,0.2739835298746824
1772555812987879200,7.756879150390625,1.0836129825860261,-0.04556640391051769,0.32444062843620775
1772555812997810400,7.766810546875,0.7855828066915274,-0.09682780459225178,0.4180661663884297
1772555813007741200,7.7767412109375,0.46736616733670233,-0.11119739846736192,0.5605899195550009
1772555813017673200,7.786673095703125,0.2614256615966558,-0.06467734709382057,0.6522284484084695
1772555813027604200,7.796604248046875,0.10848258655071258,0.024907354502379894,0.6763391726404429
1772555813037536300,7.806536376953125,0.033742110604047776,0.07581088165715337,0.6917617096345872
1772555813047467300,7.81646728515625,0.06885667860507964,0.03649389353021979,0.6862257028173655
1772555813057399300,7.8263994140625,0.1775099455475807,-0.030661680245399472,0.6318256387837231
1772555813067330300,7.836330322265625,0.2678524797737598,-0.09923048181980848,0.5223476845201105
1772555813077262000,7.846261962890625,0.3144225077688694,-0.15430354974418878,0.41164921201821414
1772555813087193300,7.856193359375,0.2928817070901394,-0.18678382371887564,0.30548483928199854
1772555813097124400,7.866124267578125,0.12331541402339935,-0.18683906103745102,0.21410728118596598
1772555813107056000,7.87605615234375,-0.1027735612541437,-0.19780951399356125,0.1547765923497267
1772555813116987100,7.885987060546875,-0.2868950338959694,-0.2523172031201422,0.21087244571689515
1772555813126919200,7.895919189453125,-0.38047172773778437,-0.3463146065920591,0.2954377847811207
1772555813136850400,7.905850341796875,-0.3767103293776512,-0.4265723846554756,0.35563192204628136
1772555813146782200,7.9157822265625,-0.27932781351208685,-0.507949229876697,0.4026495842110365
1772555813156713200,7.925713134765625,-0.13144611350893973,-0.5832099303051829,0.33543373161554335
1772555813166644200,7.935644287109375,0.053292614248394966,-0.6415406848512589,0.24710617220727726
1772555813176576300,7.945576171875,0.20563129366040228,-0.6724355893306434,0.22209332977011798
1772555813186507300,7.95550732421875,0.28480303005278107,-0.7231786652266978,0.1648476487806998
1772555813196439300,7.965439208984375,0.2865530885905027,-0.7721934560254216,0.11578364854538813
1772555813206370300,7.975370361328125,0.2353723519295454,-0.8291396243453025,0.16768139263559131
1772555813216302000,7.985302001953125,0.15576105507612228,-0.9039886752329767,0.23407557185096664
1772555813226233300,7.9952333984375,0.04711538691818714,-0.9099407155051827,0.26473160780686883
1772555813236164400,8.005164306640625,-0.07330547470748425,-0.8583309397771954,0.28855032682232556
1772555813246096100,8.01509619140625,-0.17425591218769548,-0.8118428909771144,0.27088207499431444
1772555813256027100,8.025027099609375,-0.34527532667219635,-0.782814657152444,0.23716993940342215
1772555813265959200,8.034959228515625,-0.5311404281109571,-0.7948344730310142,0.1957218209993094
1772555813275890400,8.044890380859375,-0.6582406213700771,-0.7819944268107414,0.19605379290003327
1772555813285822200,8.054822265625,-0.7475514744609594,-0.7547320336148142,0.20704517904631792
1772555813295753200,8.064753173828125,-0.7408955237030983,-0.7595847343429922,0.24129681007508186
1772555813305684200,8.074684326171875,-0.676226944437623,-0.7898314040467143,0.25974433917989953
1772555813315616300,8.0846162109375,-0.5959527997612953,-0.84632106077075,0.24865491775292903
1772555813325547300,8.09454736328125,-0.464030300912261,-0.886171571252495,0.2412161460543051
1772555813335479300,8.104479248046875,-0.4410632668226957,-0.8814318293794989,0.17456830260511486
1772555813345410300,8.114410400390625,-0.513618799945712,-0.8146671546176075,0.030302053152769803
1772555813355342000,8.124342041015625,-0.7393781048774719,-0.710277244208008,-0.08853910153340548
1772555813365273300,8.1342734375,-1.1457657796382903,-0.6293209624864161,-0.07384977418463677
1772555813375204400,8.144204345703125,-1.7172884870201348,-0.5132866453818976,-0.039036088826321064
1772555813385136000,8.15413623046875,-2.3168249904870986,-0.3401287575639784,0.04504705621153116
1772555813395067100,8.164067138671875,-2.786063381436467,-0.1235723113939166,0.11422284723576158
1772555813404999200,8.173999267578125,-3.0797184109866618,0.15181304810270665,0.13910861096084118
1772555813414930400,8.183930419921875,-3.1629911529570816,0.40715266778394577,0.1384945341831073
1772555813424862200,8.1938623046875,-2.97897372521162,0.5874583815298974,0.22956815916281192
1772555813434793200,8.203793212890625,-2.593230779072642,0.6933005365744233,0.42544886051826175
1772555813444724200,8.21372412109375,-2.054946908947825,0.7506522169552743,0.6207441266685724
1772555813454656300,8.22365625,-1.3834136752843855,0.7501840149216353,0.7539104150336235
1772555813464587300,8.233587158203125,-0.6308738910168409,0.7197969138339162,0.775162681094557
1772555813474519300,8.243519287109375,-0.014723521879315376,0.6726182524211705,0.6588538578975945
1772555813484450300,8.2534501953125,0.4913929396122694,0.6324297421567142,0.4957008659392595
1772555813494382000,8.263382080078125,0.826844791406393,0.6437661058157682,0.3245428467016667
1772555813504313300,8.273313232421875,1.0278086777776478,0.670702628058195,0.2303234710421413
1772555813514244400,8.283244384765625,1.2306494639366865,0.7274787005081772,0.2542900375630706
1772555813524176400,8.29317626953125,1.541434491986036,0.7547405091822147,0.36116138952486215
1772555813534107100,8.303107177734375,1.775256107342243,0.7190992869585752,0.404421416189149
1772555813544039200,8.3130390625,1.8830477890193462,0.6960483739778399,0.3633730742249638
1772555813553970400,8.322970458984376,1.8552280542016029,0.724810358081758,0.2625350110780448
1772555813563902200,8.332902099609376,1.6922212657809257,0.7716413751006126,0.18869440658055245
1772555813573833200,8.342833251953126,1.4220230996638537,0.8021940420135856,0.173110322349146
1772555813583764200,8.35276416015625,1.1024562147438526,0.8994497166290879,0.23319091623723506
1772555813593696300,8.3626962890625,0.7534504693716764,1.0684709430336952,0.2521167121119797
1772555813603627300,8.372627197265626,0.42963177222609517,1.1985282325327395,0.26022183876484634
1772555813613559300,8.382559326171876,0.261578221809864,1.288038407588005,0.2778189433190971
1772555813623490300,8.392490234375,0.2997510083377361,1.412837045906484,0.15897358738183975
1772555813633422000,8.402422119140626,0.38719899016618725,1.6067703029885887,-0.03276647050492465
1772555813643353300,8.412353271484376,0.44504035376012324,1.7992577451765537,-0.12041063249260187
1772555813653285400,8.422285400390624,0.36512627456784247,1.8837085910156368,-0.19474435426928102
1772555813663216400,8.43221630859375,0.171776370331645,1.8583838878840206,-0.29253720450140536
1772555813673147100,8.442147216796876,-0.09259118993580341,1.7878659980684517,-0.3433051956430077
1772555813683079200,8.4520791015625,-0.2998153057456016,1.7222779658704994,-0.346739115614444
1772555813693010400,8.462010498046874,-0.5001917476177216,1.658956417299807,-0.3265272254519164
1772555813702942200,8.471942138671874,-0.9475877245932817,1.4996607583567498,-0.2583424547590315
1772555813712873200,8.481873291015624,-0.9645821140140295,1.303055359455943,-0.6999908279933035
1772555813722805200,8.49180517578125,-0.4844026423335075,1.247463528354466,-0.9119348119318484
1772555813732736300,8.501736328125,-0.3577186286598444,1.4440356095075606,-0.5807812418535352
1772555813742667300,8.511667236328124,-0.32285365150570866,1.5308394482135772,-0.24762773012965916
1772555813752599300,8.521599365234374,-0.28932781400084495,1.45597271553874,-0.018695201989263294
1772555813762530300,8.5315302734375,-0.3347299672603607,1.6942679691776632,-0.062466685307025906
