time,seconds_elapsed,z,y,x
1772556170897192400,0.0731923828125,-0.12858988344669342,0.2010483741760254,-0.7814783453941345
1772556170907123500,0.08312353515625,-0.08098826557397842,0.10594742745161057,-0.8748546838760376
1772556170917054700,0.0930546875,-0.02516232244670391,0.10578732937574387,-0.8950476050376892
1772556170926985500,0.1029853515625,0.005508237984031439,0.11631294339895248,-0.8471213579177856
1772556170936916500,0.11291650390625,0.02669449895620346,0.055498283356428146,-0.7339764833450317
1772556170946847700,0.12284765625,0.077694833278656,-0.08986316621303558,-0.5459644794464111
1772556170956778500,0.132778564453125,0.1495608389377594,-0.270071804523468,-0.33075767755508423
1772556170966709500,0.14270947265625,0.20670801401138306,-0.39952728152275085,-0.1667839139699936
1772556170976640800,0.152640869140625,0.18576237559318542,-0.4063412845134735,-0.16076362133026123
1772556170986571500,0.162571533203125,0.09451768547296524,-0.3507067859172821,-0.3161015510559082
1772556170996503600,0.172503662109375,-0.0023506616707891226,-0.3067251741886139,-0.5089569687843323
1772556171006434600,0.1824345703125,-0.04562090337276459,-0.3098096549510956,-0.634504497051239
1772556171016365600,0.192365478515625,-0.007991678081452847,-0.2333311140537262,-0.6838577389717102
1772556171026296600,0.202296630859375,0.09663672745227814,0.057904474437236786,-0.6424296498298645
1772556171036227600,0.2122275390625,0.27138835191726685,0.3813929557800293,-0.5084207653999329
1772556171046158600,0.22215869140625,0.45010456442832947,0.5487861633300781,-0.2990148067474365
1772556171056089600,0.232089599609375,0.6507683396339417,0.5626172423362732,-0.08715961873531342
1772556171066020600,0.2420205078125,0.7822768092155457,0.49238330125808716,0.06486080586910248
1772556171075951600,0.25195166015625,0.8102931380271912,0.4278581440448761,0.14539232850074768
1772556171085882600,0.261882568359375,0.7105715870857239,0.29533472657203674,0.15644842386245728
1772556171095814700,0.271814697265625,0.5796276330947876,0.11700441688299179,0.09737102687358856
1772556171105745700,0.28174560546875,0.46112093329429626,-0.1061176136136055,-0.015502792783081532
1772556171115676700,0.2916767578125,0.2967938482761383,-0.5551497340202332,-0.17508994042873383
1772556171125607400,0.301607421875,0.03723283112049103,-1.2040632963180542,-0.3718019425868988
1772556171135538700,0.31153857421875,-0.18779969215393066,-1.8417418003082275,-0.6137712001800537
1772556171145469700,0.3214697265625,-0.25264260172843933,-2.1887428760528564,-0.8728874325752258
1772556171155400400,0.331400390625,-0.17642229795455933,-2.2476375102996826,-1.0571845769882202
1772556171165331700,0.341331787109375,0.12549574673175812,-1.9284632205963135,-1.207006573677063
1772556171175262700,0.3512626953125,0.2983587980270386,-1.465132236480713,-1.190151572227478
1772556171185193500,0.361193359375,0.2374080866575241,-1.2383662462234497,-1.1140512228012085
1772556171195124700,0.371124755859375,0.011354919523000717,-1.0818850994110107,-0.9897865056991577
1772556171205056800,0.381056884765625,-0.3103432059288025,-0.8271147012710571,-0.9205267429351807
1772556171214987500,0.390987548828125,-0.652866005897522,-0.7791171073913574,-0.9144453406333923
1772556171224918500,0.40091845703125,-0.9483173489570618,-0.77692049741745,-0.8665675520896912
1772556171234849800,0.410849853515625,-1.0560312271118164,-0.5974672436714172,-0.7844190001487732
1772556171244780500,0.420780517578125,-0.9737473130226135,-0.28692856431007385,-0.7260973453521729
1772556171254711600,0.430711669921875,-0.7736030220985413,0.10349299013614655,-0.6683946251869202
1772556171264642600,0.440642578125,-0.5844874382019043,0.49469324946403503,-0.5501883625984192
1772556171274573600,0.450573486328125,-0.46252623200416565,0.9203101992607117,-0.40774014592170715
1772556171284504600,0.460504638671875,-0.45825478434562683,1.3623104095458984,-0.2979452311992645
1772556171294435600,0.470435546875,-0.5458443760871887,1.872799038887024,-0.2308042347431183
1772556171304366600,0.48036669921875,-0.6385863423347473,2.4755430221557617,-0.21510091423988342
1772556171314298600,0.490298583984375,-0.6583986878395081,2.6613245010375977,-0.24707159399986267
1772556171324229400,0.5002294921875,-0.6124279499053955,2.1797633171081543,-0.3267049193382263
1772556171334160600,0.51016064453125,-0.5213903188705444,1.238143801689148,-0.4247407615184784
1772556171344091600,0.520091552734375,-0.4808734953403473,0.5549759268760681,-0.42622947692871094
1772556171354022400,0.5300224609375,-0.5167438387870789,0.17159688472747803,-0.3739374279975891
1772556171363953700,0.53995361328125,-0.579940676689148,-0.12068850547075272,-0.30763882398605347
1772556171373884700,0.549884765625,-0.6694254875183105,-0.373776912689209,-0.1954585313796997
1772556171383815400,0.5598154296875,-0.7302672863006592,-0.4742606282234192,-0.028934277594089508
1772556171393746700,0.56974658203125,-0.6771435737609863,-0.4238656461238861,0.13512469828128815
1772556171403677700,0.579677734375,-0.5433290600776672,-0.3388572633266449,0.2665356993675232
1772556171413608400,0.5896083984375,-0.4035268723964691,-0.2638646066188812,0.3229723572731018
1772556171423540500,0.59954052734375,-0.2699565589427948,-0.18622839450836182,0.29788511991500854
1772556171433471500,0.609471435546875,-0.15072885155677795,-0.10069449245929718,0.208822101354599
1772556171443402500,0.619402587890625,-0.044540103524923325,-0.04521738737821579,0.09928390383720398
1772556171453333500,0.62933349609375,0.07014555484056473,-0.05626309663057327,-0.003553338348865509
1772556171463264500,0.639264404296875,0.14254997670650482,-0.0692175105214119,-0.076525017619133
1772556171473195500,0.649195556640625,0.18890678882598877,-0.06948032230138779,-0.1610443890094757
1772556171483126500,0.65912646484375,0.22773034870624542,-0.056424178183078766,-0.24592947959899902
1772556171493057500,0.6690576171875,0.26092228293418884,0.0559920072555542,-0.31731125712394714
1772556171502988500,0.678988525390625,0.2715570628643036,0.42932379245758057,-0.3013799786567688
1772556171512919600,0.68891943359375,0.2895491421222687,1.2262952327728271,-0.14078137278556824
1772556171522851600,0.6988515625,0.34997519850730896,1.4539062976837158,-0.30254364013671875
1772556171532782600,0.708782470703125,0.35749268531799316,0.8506186008453369,-0.893537700176239
1772556171542713300,0.71871337890625,0.34515079855918884,0.7336360812187195,-1.1093735694885254
1772556171552644600,0.72864453125,0.42237237095832825,1.0044234991073608,-1.1113207340240479
1772556171562575600,0.73857568359375,0.5019505620002747,1.2390224933624268,-1.0465209484100342
1772556171572506400,0.74850634765625,0.44796663522720337,1.2914531230926514,-0.7530951499938965
1772556171582437600,0.758437744140625,0.2932116985321045,1.0797151327133179,-0.1913762092590332
1772556171592368600,0.76836865234375,0.09065360575914383,0.6708013415336609,0.540623664855957
1772556171602299400,0.77829931640625,-0.07736974954605103,0.17017877101898193,1.2507497072219849
1772556171612230700,0.788230712890625,-0.16426315903663635,-0.31038111448287964,1.7953401803970337
1772556171622161400,0.798161376953125,-0.18971098959445953,-0.7253860235214233,2.0998737812042236
1772556171632093400,0.808093505859375,-0.09325029700994492,-1.0702874660491943,2.108039379119873
1772556171642024400,0.8180244140625,0.0834491103887558,-1.3298875093460083,1.8558462858200073
1772556171651955700,0.827955810546875,0.32527217268943787,-1.5598080158233643,1.5389677286148071
1772556171661886500,0.837886474609375,0.635088324546814,-1.7993500232696533,1.3517779111862183
1772556171671817500,0.8478173828125,0.9373783469200134,-1.996570348739624,1.3673968315124512
1772556171681748500,0.85774853515625,1.1770786046981812,-2.091818332672119,1.5741225481033325
1772556171691679500,0.867679443359375,1.255429744720459,-2.026205539703369,1.9162635803222656
1772556171701610500,0.877610595703125,1.163885235786438,-1.7229465246200562,2.265821695327759
1772556171711541500,0.88754150390625,0.8565994501113892,-1.267259120941162,2.45534610748291
1772556171721472500,0.897472412109375,0.43257999420166016,-0.7412694096565247,2.3131401538848877
1772556171731403500,0.907403564453125,0.11416729539632797,-0.234580859541893,1.831578254699707
1772556171741335300,0.917335205078125,-0.06298750638961792,0.11670233309268951,1.208950400352478
1772556171751266600,0.9272666015625,-0.13700580596923828,0.21324698626995087,0.5356054902076721
1772556171761197600,0.937197509765625,-0.12713639438152313,0.13231858611106873,-0.19897419214248657
1772556171771128300,0.94712841796875,-0.062307342886924744,0.014557426795363426,-0.9752489328384399
1772556171781059600,0.9570595703125,0.005434684921056032,-0.12887217104434967,-1.780715823173523
1772556171790990600,0.966990478515625,0.05574074015021324,-0.2648192048072815,-2.5447564125061035
1772556171800921300,0.97692138671875,0.06768821179866791,-0.36376121640205383,-3.182337999343872
1772556171810852600,0.9868525390625,0.005579866468906403,-0.3885883390903473,-3.589057207107544
1772556171820783600,0.99678369140625,-0.0970679447054863,-0.3110021948814392,-3.7605035305023193
1772556171830714400,1.00671435546875,-0.23888462781906128,-0.19720931351184845,-3.762237787246704
1772556171840645600,1.016645751953125,-0.42848730087280273,-0.02368573099374771,-3.701301097869873
1772556171850577700,1.02657763671875,-0.6587139964103699,0.23864781856536865,-3.6435420513153076
1772556171860508400,1.03650830078125,-0.9664068818092346,0.4901226758956909,-3.668076276779175
1772556171870439400,1.046439453125,-1.3592896461486816,0.7277464866638184,-3.797776460647583
1772556171880370700,1.05637060546875,-1.8199530839920044,0.9746183156967163,-3.9753262996673584
1772556171890301400,1.066301513671875,-2.297579765319824,1.2006467580795288,-4.046066761016846
1772556171900232400,1.076232421875,-2.7211503982543945,1.4031639099121094,-3.915804624557495
1772556171910163500,1.08616357421875,-2.934009552001953,1.6622180938720703,-3.6460041999816895
1772556171920094500,1.096094482421875,-2.8470981121063232,2.0708353519439697,-3.359497547149658
1772556171930025500,1.106025390625,-2.408602237701416,2.5273871421813965,-3.165299415588379
1772556171939956500,1.11595654296875,-1.6603440046310425,2.8401050567626953,-2.973468780517578
1772556171949888500,1.125888427734375,-0.7536255121231079,2.929870843887329,-2.5422778129577637
1772556171959819500,1.135819580078125,0.12060556560754776,2.6941442489624023,-1.6826667785644531
1772556171969750500,1.14575048828125,0.8005920052528381,2.3849937915802,-0.5964967608451843
1772556171979681500,1.155681640625,1.173038363456726,2.345282793045044,0.262587308883667
1772556171989612500,1.165612548828125,1.200152039527893,2.4771568775177,0.6673914790153503
1772556171999543600,1.17554345703125,0.9371848106384277,2.402503490447998,0.7821289300918579
1772556172009474600,1.185474609375,0.5331637859344482,1.7775239944458008,0.9605198502540588
1772556172019405600,1.195405517578125,0.1099366620182991,0.8549638986587524,1.18251371383667
1772556172029336600,1.205336669921875,-0.19484549760818481,-0.08196786046028137,1.3235501050949097
1772556172039267600,1.215267578125,-0.21423810720443726,-0.8409692645072937,1.4489476680755615
1772556172049198300,1.2251982421875,-0.04345916211605072,-1.3354376554489136,1.6272008419036865
1772556172059130400,1.23513037109375,0.09996644407510757,-1.484030842781067,1.8889062404632568
1772556172069061600,1.2450615234375,0.15661627054214478,-1.4033814668655396,2.23270320892334
1772556172078992600,1.25499267578125,0.10835951566696167,-1.1481369733810425,2.636263370513916
1772556172088923400,1.26492333984375,0.008959684520959854,-0.8359739184379578,3.0466983318328857
1772556172098854700,1.274854736328125,-0.0598960779607296,-0.5201869606971741,3.336571455001831
1772556172108785400,1.284785400390625,-0.0405304841697216,-0.27059653401374817,3.4592320919036865
1772556172118716400,1.29471630859375,0.09097214788198471,-0.09654539078474045,3.4421849250793457
1772556172128647700,1.304647705078125,0.3247987926006317,-0.03541521355509758,3.3365843296051025
1772556172138578400,1.314578369140625,0.5167040228843689,-0.043321870267391205,3.1646478176116943
1772556172148509400,1.324509521484375,0.6050984859466553,-0.2006514072418213,2.9403975009918213
1772556172158440700,1.334440673828125,0.6726865768432617,-0.5566564202308655,2.696638822555542
1772556172168371500,1.344371337890625,0.7548152208328247,-1.0126898288726807,2.474561929702759
1772556172178303500,1.354303466796875,0.8179880380630493,-1.3981482982635498,2.2876131534576416
1772556172188234500,1.364234375,0.8730629682540894,-1.705481767654419,2.1558563709259033
1772556172198165500,1.37416552734375,0.8990037441253662,-1.9379945993423462,2.0962555408477783
1772556172208096500,1.384096435546875,0.8926620483398438,-2.0022132396698,2.0883686542510986
1772556172218027500,1.394027587890625,0.8488754034042358,-1.779274582862854,2.1548702716827393
1772556172227958500,1.40395849609375,0.7298574447631836,-1.2814375162124634,2.1923136711120605
1772556172237889500,1.4138896484375,0.5725716948509216,-0.6957767605781555,2.1432669162750244
1772556172247820500,1.423820556640625,0.36229854822158813,-0.19218458235263824,2.0069494247436523
1772556172257751600,1.43375146484375,0.06920250505208969,0.12682829797267914,1.7859381437301636
1772556172267682600,1.4436826171875,-0.21647687256336212,0.21123620867729187,1.5253140926361084
1772556172277613300,1.45361328125,-0.4099925458431244,0.1303109973669052,1.2404441833496094
1772556172287545300,1.46354541015625,-0.5100228786468506,-0.13156114518642426,0.9192013144493103
1772556172297476600,1.4734765625,-0.4976269006729126,-0.5346676111221313,0.6202292442321777
1772556172307407600,1.48340771484375,-0.36705541610717773,-1.020270586013794,0.3548794984817505
1772556172317338400,1.49333837890625,-0.1688789427280426,-1.4813511371612549,0.07760395854711533
1772556172327269600,1.50326953125,0.04563082382082939,-1.8839654922485352,-0.24375268816947937
1772556172337200400,1.513200439453125,0.2569071054458618,-2.165781021118164,-0.6709581017494202
1772556172347131400,1.52313134765625,0.4717941880226135,-2.2776269912719727,-1.191365122795105
1772556172357062700,1.533062744140625,0.637191653251648,-2.243281841278076,-1.7201589345932007
1772556172366993400,1.542993408203125,0.749655544757843,-2.0866448879241943,-2.2251181602478027
1772556172376924400,1.55292431640625,0.786792516708374,-1.7933845520019531,-2.69456148147583
1772556172386855700,1.562855712890625,0.6743754744529724,-1.385581135749817,-3.057623863220215
1772556172396787500,1.572787353515625,0.27562275528907776,-0.8605714440345764,-3.2451632022857666
1772556172406718500,1.582718505859375,-0.43784210085868835,-0.08559119701385498,-3.3885390758514404
1772556172416649500,1.5926494140625,-1.2271358966827393,0.9410046935081482,-3.5380380153656006
1772556172426580500,1.60258056640625,-1.6199777126312256,1.7179200649261475,-3.445185899734497
1772556172436511200,1.61251123046875,-1.3892526626586914,1.9041253328323364,-2.9894611835479736
1772556172446442200,1.622442138671875,-0.7948547601699829,1.652897834777832,-2.2628676891326904
1772556172456373500,1.63237353515625,-0.24739375710487366,1.3019304275512695,-1.4772465229034424
1772556172466304300,1.64230419921875,0.10509435087442398,0.9870101809501648,-0.8995961546897888
1772556172476235300,1.6522353515625,0.3343850374221802,0.7758100628852844,-0.7411742806434631
1772556172486166300,1.662166259765625,0.5570705533027649,0.725830078125,-0.9329399466514587
1772556172496097300,1.67209716796875,0.7620218396186829,0.7344227433204651,-1.1388596296310425
1772556172506028300,1.6820283203125,0.9138270616531372,0.613277792930603,-1.0896495580673218
1772556172515960600,1.691960693359375,1.0776960849761963,0.47022953629493713,-0.8623213768005371
1772556172525891300,1.701891357421875,1.3227556943893433,0.4446324408054352,-0.623161256313324
1772556172535822300,1.711822265625,1.5382277965545654,0.5514973998069763,-0.44809067249298096
1772556172545753300,1.72175341796875,1.572218656539917,0.6091834306716919,-0.27920714020729065
1772556172555684400,1.731684326171875,1.4008687734603882,0.5184410214424133,-0.06775907427072525
1772556172565615400,1.741615478515625,1.115924596786499,0.38368549942970276,0.10196676850318909
1772556172575546400,1.75154638671875,0.8230716586112976,0.3237936794757843,0.1577349603176117
1772556172585477400,1.761477294921875,0.6332478523254395,0.3022804260253906,0.16194574534893036
1772556172595408400,1.771408447265625,0.5477728843688965,0.23134341835975647,0.22891278564929962
1772556172605339400,1.78133935546875,0.5194728374481201,0.1462181657552719,0.3574468791484833
1772556172615270400,1.7912705078125,0.5510086417198181,0.02001975290477276,0.52479487657547
1772556172625202400,1.801202392578125,0.5838757157325745,-0.15442048013210297,0.6971966028213501
1772556172635133200,1.81113330078125,0.5977175235748291,-0.259942889213562,0.8011190295219421
1772556172645064400,1.821064453125,0.6120592355728149,-0.23087137937545776,0.8289002180099487
1772556172654995500,1.830995361328125,0.6065941452980042,-0.1405998170375824,0.8437801003456116
1772556172664926200,1.84092626953125,0.5388762354850769,-0.08491244167089462,0.8833752870559692
1772556172674857500,1.850857421875,0.4160579442977905,-0.0790654718875885,0.9484962224960327
1772556172684788200,1.860788330078125,0.2758372128009796,-0.12808486819267273,1.0635548830032349
1772556172694719200,1.87071923828125,0.12882006168365479,-0.19681651890277863,1.241745948791504
1772556172704650500,1.880650390625,-0.018621031194925308,-0.2517407536506653,1.4749934673309326
1772556172714581200,1.890581298828125,-0.1540640890598297,-0.25602179765701294,1.7281320095062256
1772556172724512300,1.90051220703125,-0.24256731569766998,-0.19209235906600952,1.9745991230010986
1772556172734444300,1.9104443359375,-0.2683248817920685,-0.052326470613479614,2.1745972633361816
1772556172744375300,1.920375244140625,-0.2657361924648285,0.1474071443080902,2.3278822898864746
1772556172754306300,1.930306396484375,-0.27274033427238464,0.3351759910583496,2.414642333984375
1772556172764237300,1.9402373046875,-0.29783743619918823,0.43143823742866516,2.4075284004211426
1772556172774168300,1.950168212890625,-0.36337143182754517,0.35710009932518005,2.29128360748291
1772556172784099300,1.960099365234375,-0.47933125495910645,0.14952266216278076,2.115673542022705
1772556172794030300,1.9700302734375,-0.5872970819473267,-0.11004287004470825,1.9672297239303589
1772556172803961300,1.97996142578125,-0.5955528020858765,-0.3289881646633148,1.8659663200378418
1772556172813892400,1.989892333984375,-0.49733516573905945,-0.5137044787406921,1.7693077325820923
1772556172823823400,1.9998232421875,-0.2773788273334503,-0.6921892166137695,1.6683413982391357
1772556172833754400,2.00975439453125,0.03340834751725197,-0.8390610218048096,1.5579147338867188
1772556172843686400,2.019686279296875,0.31836599111557007,-0.8912104368209839,1.3943989276885986
1772556172853617400,2.029617431640625,0.5234163403511047,-0.9310020804405212,1.1302634477615356
1772556172863548200,2.039548095703125,0.6370713710784912,-1.0526577234268188,0.8144392967224121
1772556172873479400,2.0494794921875,0.6840300559997559,-1.2131904363632202,0.4744848906993866
1772556172883410400,2.059410400390625,0.7287712097167969,-1.3675596714019775,0.13018447160720825
1772556172893341200,2.069341064453125,0.8117462396621704,-1.4750944375991821,-0.19252726435661316
1772556172903272400,2.0792724609375,0.967491090297699,-1.463876485824585,-0.4634515345096588
1772556172913203200,2.089203125,1.195214033126831,-1.2777612209320068,-0.6911017298698425
1772556172923134200,2.09913427734375,1.4272871017456055,-0.980512797832489,-0.8658172488212585
1772556172933065500,2.1090654296875,1.543667197227478,-0.6232161521911621,-1.0230079889297485
1772556172942996200,2.118996337890625,1.5219416618347168,-0.2247706949710846,-1.1946834325790405
1772556172952928300,2.12892822265625,1.4168429374694824,0.15333425998687744,-1.3627599477767944
1772556172962859500,2.138859619140625,1.1462739706039429,0.5071724653244019,-1.4820722341537476
1772556172972790300,2.148790283203125,0.6079196333885193,0.9773855209350586,-1.5759905576705933
1772556172982721300,2.15872119140625,-0.25210922956466675,1.7852423191070557,-1.6949540376663208
1772556172992652500,2.168652587890625,-1.3091973066329956,2.685866594314575,-1.7205277681350708
1772556173002583300,2.178583251953125,-2.0072410106658936,3.2057504653930664,-1.4768280982971191
1772556173012514300,2.188514404296875,-1.9457489252090454,3.2012298107147217,-0.8917459845542908
1772556173022445600,2.198445556640625,-1.337702989578247,2.797304630279541,-0.001603415235877037
1772556173032376300,2.208376220703125,-0.6151806712150574,2.0802505016326904,0.9312904477119446
1772556173042307300,2.218307373046875,-0.016370587050914764,1.2266360521316528,1.437435507774353
1772556173052238300,2.22823828125,0.3809541165828705,0.3586098253726959,1.351909875869751
1772556173062169300,2.23816943359375,0.615082323551178,-0.37239870429039,0.8103046417236328
1772556173072101400,2.248101318359375,0.7784416675567627,-0.8274956345558167,0.04861711710691452
1772556173082032400,2.258032470703125,0.9848743677139282,-1.0952457189559937,-0.6187180876731873
1772556173091963400,2.26796337890625,1.2023411989212036,-1.1097135543823242,-1.0911532640457153
1772556173101894400,2.277894287109375,1.4025548696517944,-0.8118047118186951,-1.362070083618164
1772556173111825200,2.2878251953125,1.556736946105957,-0.2677323818206787,-1.4805282354354858
1772556173121756400,2.29775634765625,1.6056593656539917,0.3711235821247101,-1.4917560815811157
1772556173131687400,2.3076875,1.4771541357040405,1.002076268196106,-1.4852092266082764
1772556173141618200,2.3176181640625,1.218950629234314,1.5202442407608032,-1.4777089357376099
1772556173151549400,2.327549560546875,0.901458740234375,1.7769780158996582,-1.3680274486541748
1772556173161480400,2.33748046875,0.6449515223503113,1.745483636856079,-1.1239407062530518
1772556173171411200,2.3474111328125,0.530888020992279,1.3563992977142334,-0.7210602760314941
1772556173181343200,2.35734326171875,0.5203401446342468,0.7398687601089478,-0.2104419767856598
1772556173191274500,2.3672744140625,0.569778561592102,0.13005971908569336,0.2922365963459015
1772556173201205200,2.377205322265625,0.6290845274925232,-0.16613665223121643,0.6548424363136292
1772556173211136300,2.38713623046875,0.6253294944763184,-0.1612638682126999,0.8614643216133118
1772556173221067500,2.397067626953125,0.6183964014053345,0.05067761242389679,0.9780522584915161
1772556173230998300,2.406998291015625,0.6423874497413635,0.3667953610420227,1.0488022565841675
1772556173240929300,2.41692919921875,0.6872630715370178,0.6557093262672424,1.140270709991455
1772556173250860500,2.426860595703125,0.7174561023712158,0.817651629447937,1.2666430473327637
1772556173260791300,2.436791259765625,0.6989408731460571,0.8308587074279785,1.3728562593460083
1772556173270722300,2.446722412109375,0.6670188903808594,0.7319384813308716,1.4602713584899902
1772556173280653300,2.4566533203125,0.6364907622337341,0.5784084796905518,1.5109450817108154
1772556173290584300,2.466584228515625,0.5644658207893372,0.4126003682613373,1.465607762336731
1772556173300516400,2.476516357421875,0.4357854425907135,0.2400149554014206,1.3440029621124268
1772556173310447400,2.486447265625,0.2539362907409668,0.10361691564321518,1.1833785772323608
1772556173320378400,2.49637841796875,0.05390108376741409,0.022693730890750885,1.024675726890564
1772556173330309400,2.506309326171875,-0.13841243088245392,-0.004634828306734562,0.8945865035057068
1772556173340240100,2.516240234375,-0.3074088990688324,-0.02967999503016472,0.7813230156898499
1772556173350171400,2.52617138671875,-0.43557220697402954,-0.05654463171958923,0.6765276193618774
1772556173360102400,2.536102294921875,-0.5448618531227112,-0.10669412463903427,0.5863782167434692
1772556173370033200,2.546033203125,-0.6433393955230713,-0.2094612419605255,0.5200114846229553
1772556173379964400,2.55596435546875,-0.7161458134651184,-0.3614198565483093,0.5167244076728821
1772556173389895400,2.5658955078125,-0.7747737169265747,-0.519254744052887,0.5847758650779724
1772556173399826200,2.575826171875,-0.8010721206665039,-0.6345229744911194,0.709671676158905
1772556173409758200,2.58575830078125,-0.7561134099960327,-0.6509829163551331,0.8508927226066589
1772556173419689500,2.595689453125,-0.6501017212867737,-0.578451931476593,0.9640819430351257
1772556173429620200,2.6056201171875,-0.5153239369392395,-0.4771420955657959,1.007336139678955
1772556173439551200,2.61555126953125,-0.38682568073272705,-0.3668333888053894,0.9689932465553284
1772556173449482500,2.625482421875,-0.2712191939353943,-0.20638246834278107,0.8653193116188049
1772556173459413200,2.635413330078125,-0.1607455164194107,0.03162277489900589,0.6879094839096069
1772556173469344300,2.64534423828125,-0.04988797381520271,0.2853749096393585,0.4326063096523285
1772556173479275500,2.655275634765625,0.08273099362850189,0.478693425655365,0.10741324722766876
1772556173489206300,2.665206298828125,0.2539208233356476,0.5974690914154053,-0.30223286151885986
1772556173499137300,2.67513720703125,0.46453991532325745,0.6676363945007324,-0.7821734547615051
1772556173509068500,2.685068603515625,0.6619533896446228,0.658255934715271,-1.2920173406600952
1772556173518999300,2.694999267578125,0.8123346567153931,0.5735417008399963,-1.780537486076355
1772556173528931300,2.704931396484375,0.9015934467315674,0.456179678440094,-2.21427321434021
1772556173538862600,2.714862548828125,0.9244409799575806,0.38914045691490173,-2.5352859497070312
1772556173548793300,2.72479345703125,0.883400559425354,0.3299484848976135,-2.660338878631592
1772556173558724400,2.734724365234375,0.8297848701477051,0.34638309478759766,-2.5484251976013184
1772556173568655600,2.744655517578125,0.761424720287323,0.5467708110809326,-2.2739224433898926
1772556173578586400,2.75458642578125,0.7288139462471008,0.8919457793235779,-2.006267547607422
1772556173588517400,2.764517333984375,0.7368699908256531,1.2965489625930786,-1.8671597242355347
1772556173598448400,2.774448486328125,0.6723306179046631,1.6039924621582031,-1.846894383430481
1772556173608379400,2.78437939453125,0.5233110785484314,1.7561653852462769,-1.8694212436676025
1772556173618310400,2.794310302734375,0.4126363694667816,1.8873578310012817,-2.0184357166290283
1772556173628241400,2.804241455078125,0.4478825032711029,1.8202177286148071,-2.2327215671539307
1772556173638173400,2.81417333984375,0.6596294045448303,1.1874159574508667,-2.2759063243865967
1772556173648104400,2.8241044921875,0.849206268787384,0.17004552483558655,-2.1578545570373535
1772556173658035200,2.83403515625,0.863592803478241,-0.8376184105873108,-1.9793806076049805
1772556173667966500,2.843966552734375,0.6995666027069092,-1.7075788974761963,-1.595680594444275
1772556173677897500,2.8538974609375,0.40669378638267517,-2.280625820159912,-0.9840631484985352
1772556173687828200,2.863828125,0.0948762372136116,-2.3921735286712646,-0.33175089955329895
1772556173697759500,2.873759521484375,-0.17360183596611023,-2.182861089706421,0.36049067974090576
1772556173707690500,2.8836904296875,-0.39137622714042664,-1.8635634183883667,1.1379600763320923
1772556173717621200,2.893621337890625,-0.5433452725410461,-1.4877820014953613,1.901045322418213
1772556173727552500,2.903552490234375,-0.641226589679718,-1.0760077238082886,2.4836339950561523
1772556173737483300,2.913483154296875,-0.6832383871078491,-0.6349658966064453,2.7297399044036865
1772556173747415300,2.923415283203125,-0.624222457408905,-0.2632165551185608,2.612452268600464
1772556173757346300,2.93334619140625,-0.45927056670188904,-0.10558796674013138,2.2128090858459473
1772556173767277600,2.943277587890625,-0.22607380151748657,-0.07076314836740494,1.678566813468933
1772556173777208300,2.953208251953125,0.007720625959336758,-0.17541241645812988,1.2466541528701782
1772556173787139300,2.963139404296875,0.1577303558588028,-0.41828683018684387,1.0393717288970947
1772556173797070300,2.9730703125,0.25194403529167175,-0.7193906307220459,1.0377730131149292
1772556173807001300,2.98300146484375,0.3188261091709137,-0.9784643054008484,1.193307638168335
1772556173816932400,2.992932373046875,0.3783014416694641,-1.1248857975006104,1.4546926021575928
1772556173826863400,3.00286328125,0.4585150480270386,-1.0978659391403198,1.7769709825515747
1772556173836794400,3.01279443359375,0.5437745451927185,-0.8661981225013733,2.1033596992492676
1772556173846725400,3.022725341796875,0.6135818958282471,-0.5520913004875183,2.3935883045196533
1772556173856656400,3.032656494140625,0.681647002696991,-0.24007758498191833,2.6224844455718994
1772556173866588400,3.04258837890625,0.7989568710327148,0.01663968898355961,2.729034662246704
1772556173876519400,3.05251953125,0.9443495869636536,0.16019102931022644,2.71240496635437
1772556173886450200,3.0624501953125,1.101199746131897,0.17195075750350952,2.5927529335021973
1772556173896381400,3.07238134765625,1.2555080652236938,0.07362277805805206,2.382580518722534
1772556173906312400,3.0823125,1.4096877574920654,-0.19721217453479767,2.0929558277130127
1772556173916243200,3.0922431640625,1.5956567525863647,-0.5516623854637146,1.7497419118881226
1772556173926174500,3.102174560546875,1.8137112855911255,-0.8724105358123779,1.4216279983520508
1772556173936105500,3.11210546875,2.000300407409668,-1.0219146013259888,1.2132103443145752
1772556173946036200,3.1220361328125,2.133136510848999,-0.8927382826805115,1.0583670139312744
1772556173955967500,3.131967529296875,2.191476345062256,-0.6794067621231079,0.8982298970222473
1772556173965898200,3.141898193359375,2.071117877960205,-0.70809406042099,0.7913207411766052
1772556173975829200,3.151829345703125,1.7660260200500488,-1.0139234066009521,0.775288999080658
1772556173985761300,3.16176123046875,1.38213312625885,-1.3844571113586426,0.8214402794837952
1772556173995692500,3.171692626953125,1.041795015335083,-1.658294916152954,0.8634390830993652
1772556174005623300,3.181623291015625,0.7762026786804199,-1.7001352310180664,0.8798689246177673
1772556174015554300,3.19155419921875,0.5668317675590515,-1.5620728731155396,0.8695780038833618
1772556174025485300,3.2014853515625,0.3737097382545471,-1.3341302871704102,0.8518341183662415
1772556174035416300,3.211416259765625,0.19328080117702484,-1.0874048471450806,0.7718297243118286
1772556174045347300,3.221347412109375,0.055880069732666016,-0.8665422797203064,0.5751701593399048
1772556174055278300,3.2312783203125,-0.059173863381147385,-0.7118396759033203,0.28331470489501953
1772556174065209300,3.241209228515625,-0.21283133327960968,-0.6904118657112122,-0.04478488117456436
1772556174075140400,3.251140380859375,-0.3949664533138275,-0.8289057612419128,-0.3711884319782257
1772556174085071400,3.2610712890625,-0.5343595147132874,-0.9534043073654175,-0.7013626098632812
1772556174095003400,3.27100341796875,-0.6164397597312927,-0.8952003121376038,-1.024750828742981
1772556174104934400,3.280934326171875,-0.6403871178627014,-0.6386095285415649,-1.3257123231887817
1772556174114865400,3.290865478515625,-0.6385685205459595,-0.2521737217903137,-1.578997015953064
1772556174124796400,3.30079638671875,-0.6377977728843689,0.1910569816827774,-1.7882509231567383
1772556174134727400,3.3107275390625,-0.628322422504425,0.7043343782424927,-2.0583229064941406
1772556174144658400,3.320658447265625,-0.6198700666427612,1.323344349861145,-2.511195421218872
1772556174154589400,3.33058935546875,-0.6965885162353516,1.9845631122589111,-3.1536877155303955
1772556174164520200,3.340520263671875,-0.9467447996139526,2.540435791015625,-3.845055103302002
1772556174174451500,3.350451416015625,-1.3138718605041504,2.9294707775115967,-4.410855770111084
1772556174184382500,3.360382568359375,-1.6110423803329468,3.0774099826812744,-4.738138198852539
1772556174194313200,3.370313232421875,-1.6894159317016602,3.106971263885498,-4.882802963256836
1772556174204245200,3.380245361328125,-1.533347487449646,3.169597625732422,-4.873419761657715
1772556174214176500,3.390176513671875,-1.1567405462265015,3.055464267730713,-4.649425029754639
1772556174224107300,3.400107177734375,-0.6421099901199341,2.4494383335113525,-4.148517608642578
1772556174234038300,3.410038330078125,-0.2269504964351654,1.5912522077560425,-3.4503910541534424
1772556174243969500,3.419969482421875,-0.05065961554646492,0.8977736234664917,-2.9121222496032715
1772556174253900300,3.429900390625,-0.13190621137619019,0.3281284272670746,-2.677055835723877
1772556174263831300,3.439831298828125,-0.4333401024341583,-0.30350813269615173,-2.532311201095581
1772556174273762600,3.449762451171875,-0.7980330586433411,-0.9383890628814697,-2.256577253341675
1772556174283693300,3.459693359375,-1.105202078819275,-1.4469393491744995,-1.7811065912246704
1772556174293624300,3.469624267578125,-1.3301525115966797,-1.7659037113189697,-1.1190416812896729
1772556174303555600,3.4795556640625,-1.4563714265823364,-1.8408188819885254,-0.39130905270576477
1772556174313486300,3.489486328125,-1.4322854280471802,-1.7582337856292725,0.326263427734375
1772556174323418400,3.49941845703125,-1.2704060077667236,-1.4960263967514038,0.9660570025444031
1772556174333349400,3.509349365234375,-0.9615737795829773,-1.0688953399658203,1.4412000179290771
1772556174343280400,3.5192802734375,-0.5699325203895569,-0.501797616481781,1.630387783050537
1772556174353211400,3.52921142578125,-0.09969287365674973,0.15612617135047913,1.3028134107589722
1772556174363142400,3.539142333984375,0.36642688512802124,0.767207682132721,0.477478563785553
1772556174373073400,3.549073486328125,0.698096752166748,1.0980576276779175,-0.5591764450073242
1772556174383004400,3.55900439453125,0.8353451490402222,0.9588204026222229,-1.543524980545044
1772556174392935200,3.56893505859375,0.8342884182929993,0.46842265129089355,-2.3577399253845215
1772556174402866400,3.578866455078125,0.7486200928688049,-0.12053783237934113,-2.926896095275879
1772556174412797400,3.58879736328125,0.5647954940795898,-0.7111924886703491,-3.1704721450805664
1772556174422728200,3.598728271484375,0.2395382672548294,-1.2170608043670654,-3.0497894287109375
1772556174432659500,3.608659423828125,-0.16920223832130432,-1.508644700050354,-2.635113477706909
1772556174442591500,3.618591552734375,-0.5484592914581299,-1.5289268493652344,-2.0410757064819336
1772556174452522200,3.628522216796875,-0.8571547865867615,-1.3588100671768188,-1.3556410074234009
1772556174462453200,3.638453369140625,-1.082468032836914,-1.0529495477676392,-0.6416588425636292
1772556174472384500,3.648384521484375,-1.2076658010482788,-0.6811882257461548,0.049009934067726135
1772556174482315300,3.658315185546875,-1.2232242822647095,-0.27691373229026794,0.6661719679832458
1772556174492246300,3.668246337890625,-1.1767232418060303,0.11276715993881226,1.1841410398483276
1772556174502177300,3.67817724609375,-1.111048936843872,0.4531042277812958,1.5795460939407349
1772556174512108300,3.6881083984375,-1.0503795146942139,0.6757989525794983,1.8351380825042725
1772556174522039300,3.698039306640625,-1.011979341506958,0.7212604284286499,1.9468387365341187
1772556174531970300,3.70797021484375,-1.009240984916687,0.6289593577384949,1.9346492290496826
1772556174541901300,3.7179013671875,-1.026508092880249,0.4546940326690674,1.8297632932662964
1772556174551833300,3.727833251953125,-1.0573872327804565,0.25526687502861023,1.6870261430740356
1772556174561764400,3.737764404296875,-1.1135250329971313,0.06576591730117798,1.5487202405929565
1772556174571695400,3.7476953125,-1.149906039237976,-0.08925783634185791,1.423983097076416
1772556174581626400,3.75762646484375,-1.1200319528579712,-0.21100211143493652,1.2815004587173462
1772556174591557400,3.767557373046875,-0.9904357194900513,-0.24447424709796906,1.0928184986114502
1772556174601488400,3.77748828125,-0.7906235456466675,-0.11720898747444153,0.9112844467163086
1772556174611419400,3.78741943359375,-0.6202646493911743,0.09397399425506592,0.806439220905304
1772556174621350400,3.797350341796875,-0.5477819442749023,0.3040795624256134,0.7755100727081299
1772556174631281400,3.807281494140625,-0.557987630367279,0.5086809992790222,0.7276834845542908
1772556174641212200,3.817212158203125,-0.5795069932937622,0.659411609172821,0.6154435276985168
1772556174651143400,3.827143310546875,-0.578860878944397,0.8602311611175537,0.4039970338344574
1772556174661074400,3.837074462890625,-0.42426860332489014,1.309633493423462,0.10689664632081985
1772556174671006500,3.84700634765625,-0.1806527078151703,1.9736413955688477,-0.1360016167163849
1772556174680937200,3.856937255859375,0.09914086759090424,2.8738746643066406,-0.2939465045928955
1772556174690868500,3.866868408203125,0.32359594106674194,3.882979154586792,-0.4103456735610962
1772556174700799200,3.87679931640625,0.3227591812610626,4.16954231262207,-0.3078736364841461
1772556174710730200,3.886730224609375,0.1475479155778885,3.2578847408294678,0.14956367015838623
1772556174720661500,3.89666162109375,-0.04646576941013336,1.8885226249694824,0.5449051260948181
1772556174730592300,3.90659228515625,-0.30433985590934753,0.6906375885009766,0.538455069065094
1772556174740523300,3.916523193359375,-0.6453906297683716,-0.46408477425575256,0.30392616987228394
1772556174750454500,3.92645458984375,-0.9118991494178772,-1.3233882188796997,0.12193139642477036
1772556174760385300,3.93638525390625,-1.1179245710372925,-1.586145281791687,0.17505106329917908
1772556174770316300,3.94631640625,-1.2354278564453125,-1.3253581523895264,0.48269736766815186
1772556174780248300,3.956248291015625,-1.1876648664474487,-0.7842614054679871,0.9264287352561951
1772556174790179300,3.966179443359375,-1.0447008609771729,-0.2886878550052643,1.4183077812194824
1772556174800110300,3.9761103515625,-0.9158923029899597,0.08519332855939865,1.786696434020996
1772556174810041300,3.986041259765625,-0.8140113353729248,0.3120114505290985,1.9085168838500977
1772556174819972400,3.995972412109375,-0.7344400882720947,0.3729752004146576,1.8102304935455322
1772556174829903400,4.0059033203125,-0.7286036014556885,0.2341117560863495,1.5932401418685913
1772556174839834400,4.01583447265625,-0.7969213724136353,-0.029575005173683167,1.3725605010986328
1772556174849765400,4.025765380859375,-0.8719599843025208,-0.30547356605529785,1.213051676750183
1772556174859696400,4.0356962890625,-0.9344201683998108,-0.487851083278656,1.156631350517273
1772556174869627100,4.045627197265625,-0.9523653388023376,-0.5221986770629883,1.183070421218872
1772556174879558400,4.055558349609375,-0.9095461964607239,-0.44207534193992615,1.2315868139266968
1772556174889489400,4.065489501953125,-0.8277186155319214,-0.37829577922821045,1.28562331199646
1772556174899421400,4.07542138671875,-0.7607007026672363,-0.4391506016254425,1.334420919418335
1772556174909352200,4.085352294921875,-0.7352094650268555,-0.646514356136322,1.358930230140686
1772556174919283500,4.095283447265625,-0.7458344101905823,-0.9599928855895996,1.3114540576934814
1772556174929214200,4.105214111328125,-0.738396406173706,-1.2928720712661743,1.1652979850769043
1772556174939145200,4.115145263671875,-0.6919103860855103,-1.5908856391906738,0.9378296732902527
1772556174949076500,4.125076416015625,-0.614871084690094,-1.7921572923660278,0.624356210231781
1772556174959007200,4.13500732421875,-0.4828792214393616,-1.8337870836257935,0.22384099662303925
1772556174968938200,4.144938232421875,-0.2922787368297577,-1.6991139650344849,-0.24122634530067444
1772556174978869500,4.154869384765625,0.000452226959168911,-1.4358785152435303,-0.7657199501991272
1772556174988800300,4.16480029296875,0.4378342032432556,-1.123324990272522,-1.372634768486023
1772556174998731300,4.174731201171875,0.9639877676963806,-0.8627462387084961,-1.9468343257904053
1772556175008662300,4.184662353515625,1.4456596374511719,-0.8003969192504883,-2.3303382396698
1772556175018594300,4.19459423828125,1.7810453176498413,-0.9985177516937256,-2.457740068435669
1772556175028525300,4.204525390625,1.915805459022522,-1.3937753438949585,-2.348550796508789
1772556175038456300,4.214456298828125,1.8681644201278687,-1.8373620510101318,-2.0623810291290283
1772556175048387300,4.22438720703125,1.695890188217163,-2.1322572231292725,-1.7092149257659912
1772556175058318300,4.234318359375,1.5051546096801758,-2.088005542755127,-1.3267879486083984
1772556175068249300,4.244249267578125,1.2617515325546265,-1.7376707792282104,-0.8340924978256226
1772556175078180400,4.254180419921875,0.8496984243392944,-1.2104016542434692,-0.15290385484695435
1772556175088111400,4.264111328125,0.2030588835477829,-0.6264603137969971,0.7297558784484863
1772556175098042400,4.27404248046875,-0.5334417819976807,-0.027361690998077393,1.7332448959350586
1772556175107973400,4.283973388671875,-1.1122549772262573,0.4917345345020294,2.7554173469543457
1772556175117904400,4.293904296875,-1.4124549627304077,0.9438024163246155,3.53192138671875
1772556175127835400,4.30383544921875,-1.3446489572525024,1.44968843460083,3.7567715644836426
1772556175137767400,4.313767333984375,-0.8813743591308594,2.238284111022949,3.2893881797790527
1772556175147698400,4.323698486328125,-0.16142834722995758,3.3358099460601807,2.2102694511413574
1772556175157629200,4.333629150390625,0.3759938180446625,4.211610794067383,0.8787236213684082
1772556175167560400,4.343560546875,0.4625854790210724,4.342326641082764,-0.3085581064224243
1772556175177491500,4.353491455078125,0.27973443269729614,3.8676185607910156,-1.42636239528656
1772556175187422200,4.363422119140625,-0.0015672240406274796,2.78485107421875,-2.6401023864746094
1772556175197353500,4.373353515625,-0.3415713906288147,1.1005828380584717,-3.840268850326538
1772556175207284500,4.383284423828125,-0.6430490612983704,-0.5351023077964783,-4.636576175689697
1772556175217215200,4.39321533203125,-0.8394795656204224,-1.5488358736038208,-4.6531662940979
1772556175227146500,4.403146484375,-0.9984662532806396,-1.745954155921936,-3.9749624729156494
1772556175237077200,4.4130771484375,-1.1896146535873413,-1.3213037252426147,-2.8303792476654053
1772556175247009300,4.42300927734375,-1.336167335510254,-0.6029078364372253,-1.4379355907440186
1772556175256940300,4.432940185546875,-1.34662663936615,0.23362304270267487,-0.02762858010828495
1772556175266871600,4.44287158203125,-1.1854854822158813,1.0651472806930542,1.0843193531036377
1772556175276802300,4.45280224609375,-0.9301332831382751,1.6096729040145874,1.6930524110794067
1772556175286733300,4.4627333984375,-0.6075056195259094,1.5796027183532715,1.7741339206695557
1772556175296664300,4.472664306640625,-0.2842359244823456,1.0541332960128784,1.4539631605148315
1772556175306595300,4.48259521484375,-0.12130648642778397,0.25360244512557983,0.9324219822883606
1772556175316526300,4.4925263671875,-0.17712527513504028,-0.5792737603187561,0.4570029377937317
1772556175326457300,4.502457275390625,-0.4556998312473297,-1.320138692855835,0.2080886960029602
1772556175336388400,4.512388427734375,-0.8372517228126526,-1.8210375308990479,0.19062262773513794
1772556175346319400,4.5223193359375,-1.1728172302246094,-2.014613389968872,0.32495245337486267
1772556175356250400,4.53225048828125,-1.3748217821121216,-1.9285764694213867,0.5622475743293762
1772556175366182400,4.542182373046875,-1.444097638130188,-1.6621865034103394,0.8418723940849304
1772556175376113400,4.552113525390625,-1.410170078277588,-1.2960562705993652,1.1254284381866455
1772556175386044200,4.562044189453125,-1.3373867273330688,-0.9145395755767822,1.3895026445388794
1772556175395975400,4.571975341796875,-1.268580436706543,-0.6135019659996033,1.5778604745864868
1772556175405906400,4.581906494140625,-1.1639810800552368,-0.39629843831062317,1.6331228017807007
1772556175415837200,4.591837158203125,-1.0181140899658203,-0.25135937333106995,1.4838789701461792
1772556175425768400,4.6017685546875,-0.8113254904747009,-0.20674757659435272,1.0668076276779175
1772556175435699200,4.61169921875,-0.5089530944824219,-0.2659107446670532,0.45194628834724426
1772556175445630200,4.621630126953125,-0.15428835153579712,-0.4201270639896393,-0.23652027547359467
1772556175455561500,4.6315615234375,0.17325782775878906,-0.6485804915428162,-0.9043824672698975
1772556175465492200,4.6414921875,0.4481746554374695,-0.8609310388565063,-1.4971352815628052
1772556175475423200,4.65142333984375,0.6394311785697937,-1.0543428659439087,-1.9922049045562744
1772556175485355300,4.661355224609375,0.7386028170585632,-1.281327486038208,-2.370817184448242
1772556175495286300,4.671286376953125,0.7598438858985901,-1.5612492561340332,-2.5935986042022705
1772556175505217300,4.68121728515625,0.7227447628974915,-1.7855464220046997,-2.666562080383301
1772556175515148300,4.691148193359375,0.5921715497970581,-1.8641365766525269,-2.603351593017578
1772556175525079300,4.701079345703125,0.350460410118103,-1.7653509378433228,-2.397465467453003
1772556175535010300,4.71101025390625,-0.022963251918554306,-1.4439619779586792,-2.0505242347717285
1772556175544941300,4.72094140625,-0.5976913571357727,-0.9798950552940369,-1.4959183931350708
1772556175554872300,4.730872314453125,-1.252755045890808,-0.5205727815628052,-0.7091197371482849
1772556175564803300,4.74080322265625,-1.7106925249099731,0.03281116485595703,0.1938897669315338
1772556175574734300,4.750734375,-1.8274005651474,0.64983069896698,1.0994406938552856
1772556175584665300,4.760665283203125,-1.7036420106887817,1.2299197912216187,1.9346976280212402
1772556175594596400,4.770596435546875,-1.4722615480422974,1.7250843048095703,2.559802293777466
1772556175604528400,4.7805283203125,-1.1817772388458252,2.041548490524292,2.8281962871551514
1772556175614459400,4.79045947265625,-0.8934118151664734,2.112090587615967,2.6809093952178955
1772556175624390400,4.800390380859375,-0.6584578156471252,1.914369821548462,2.0894429683685303
1772556175634321400,4.8103212890625,-0.5068009495735168,1.5187904834747314,1.0875463485717773
1772556175644252400,4.82025244140625,-0.38233238458633423,1.109373688697815,-0.1352529078722
1772556175654183400,4.830183349609375,-0.29161712527275085,0.8328744173049927,-1.217515468597412
1772556175664114200,4.8401142578125,-0.154128298163414,0.6231239438056946,-1.8563772439956665
1772556175674045400,4.85004541015625,0.1267736852169037,0.7500008940696716,-2.0369021892547607
1772556175683976400,4.8599765625,0.4359886944293976,1.1543829441070557,-1.9082143306732178
1772556175693907200,4.8699072265625,0.543665885925293,1.4088431596755981,-1.604931354522705
1772556175703838500,4.87983837890625,0.31643199920654297,1.24564790725708,-1.1589726209640503
1772556175713769500,4.88976953125,-0.07674401998519897,0.7327329516410828,-0.6957672238349915
1772556175723701200,4.899701171875,-0.4164371192455292,0.2811327278614044,-0.36532190442085266
1772556175733632300,4.90963232421875,-0.5757215619087219,-0.024247432127594948,-0.11032263189554214
1772556175743563500,4.9195634765625,-0.5278351306915283,-0.18221579492092133,0.1578935831785202
1772556175753494300,4.929494384765625,-0.32839393615722656,-0.17183639109134674,0.425487220287323
1772556175763425300,4.93942529296875,-0.03435826674103737,-0.0743233785033226,0.6686480045318604
1772556175773356500,4.9493564453125,0.2677834928035736,-0.0454869419336319,0.9157012104988098
1772556175783287300,4.959287353515625,0.5206242799758911,-0.09694857895374298,1.1515707969665527
1772556175793218300,4.96921826171875,0.6861293911933899,-0.20776350796222687,1.3327702283859253
1772556175803149300,4.9791494140625,0.7846131920814514,-0.3663069009780884,1.4587817192077637
1772556175813080300,4.989080322265625,0.8437542915344238,-0.532949686050415,1.567922830581665
1772556175823011300,4.99901123046875,0.8804442286491394,-0.6226215958595276,1.6764976978302002
1772556175832942300,5.0089423828125,0.9053128361701965,-0.5943654775619507,1.7473057508468628
1772556175842874400,5.018874267578125,0.9036879539489746,-0.4153253734111786,1.783320665359497
1772556175852805400,5.028805419921875,0.8983006477355957,-0.11028556525707245,1.756003737449646
1772556175862736100,5.038736083984375,0.8478527665138245,0.2596679627895355,1.643587350845337
1772556175872667400,5.04866748046875,0.7046841382980347,0.6126025319099426,1.4730510711669922
1772556175882598400,5.058598388671875,0.4720555543899536,0.960673987865448,1.2962021827697754
1772556175892529200,5.068529052734375,0.2064281553030014,1.2614247798919678,1.1713405847549438
1772556175902460400,5.07846044921875,-0.02187655121088028,1.4613566398620605,1.133967638015747
1772556175912391400,5.088391357421875,-0.194819837808609,1.5676039457321167,1.174464464187622
1772556175922322200,5.098322265625,-0.29514172673225403,1.597556471824646,1.2717071771621704
1772556175932253400,5.10825341796875,-0.29203593730926514,1.5013338327407837,1.3844637870788574
1772556175942184400,5.118184326171875,-0.18927767872810364,1.2741403579711914,1.4718117713928223
1772556175952116200,5.1281162109375,-0.011993177235126495,1.0072828531265259,1.4973703622817993
1772556175962047200,5.138047119140625,0.2497686892747879,0.7927256226539612,1.3965919017791748
1772556175971978500,5.147978515625,0.5864732265472412,0.6450448036193848,1.1358582973480225
1772556175981909200,5.1579091796875,0.901164710521698,0.5281148552894592,0.7159004807472229
1772556175991840300,5.16784033203125,1.2072303295135498,0.44493281841278076,0.17716509103775024
1772556176001771500,5.177771484375,1.4769171476364136,0.4250337779521942,-0.39173340797424316
1772556176011702300,5.187702392578125,1.6622638702392578,0.44759315252304077,-0.9179279208183289
1772556176021633300,5.19763330078125,1.7848068475723267,0.4919378161430359,-1.3853501081466675
1772556176031564300,5.207564208984375,1.898059606552124,0.5375521779060364,-1.7898744344711304
1772556176041495300,5.217495361328125,2.011204481124878,0.5503358244895935,-2.095858573913574
1772556176051426300,5.22742626953125,2.110189437866211,0.462289035320282,-2.261035203933716
1772556176061357300,5.237357421875,2.15364146232605,0.12948614358901978,-2.2448556423187256
1772556176071289300,5.247289306640625,2.0285825729370117,-0.3638032078742981,-1.9932488203048706
1772556176081220400,5.257220458984375,1.6905255317687988,-0.860671877861023,-1.5548646450042725
1772556176091151400,5.2671513671875,1.1993334293365479,-1.25579833984375,-1.0276306867599487
1772556176101082400,5.277082275390625,0.7411551475524902,-1.381468653678894,-0.5644170045852661
1772556176111013400,5.287013427734375,0.44706809520721436,-1.16093111038208,-0.2189296931028366
1772556176120944400,5.2969443359375,0.3459537625312805,-0.7821093797683716,0.1622800976037979
1772556176130875400,5.30687548828125,0.47822603583335876,-0.21308982372283936,0.6493390202522278
1772556176140806400,5.316806396484375,0.7510935664176941,0.7948328256607056,1.1738147735595703
1772556176150737400,5.3267373046875,0.904944121837616,2.0976550579071045,1.5368847846984863
1772556176160668400,5.33666845703125,0.8401865363121033,3.0970091819763184,1.6631579399108887
1772556176170599200,5.34659912109375,0.718418538570404,3.278103828430176,1.6731741428375244
1772556176180530400,5.356530517578125,0.5938925743103027,2.7918612957000732,1.612553596496582
1772556176190461400,5.36646142578125,0.36243781447410583,1.951015830039978,1.3827675580978394
1772556176200393500,5.3763935546875,-0.015815936028957367,1.0588194131851196,0.967528760433197
1772556176210324200,5.38632421875,-0.3118201494216919,0.2801978290081024,0.5385206937789917
1772556176220255500,5.39625537109375,-0.3345431387424469,-0.4550960958003998,0.2246776521205902
1772556176230186200,5.406186279296875,-0.16878320276737213,-0.9686561226844788,0.08564998209476471
1772556176240117200,5.4161171875,0.05964156612753868,-1.026341438293457,0.13711363077163696
1772556176250048500,5.426048583984375,0.32338637113571167,-0.6511092782020569,0.27019524574279785
1772556176259979300,5.435979248046875,0.668174147605896,-0.21114963293075562,0.37236499786376953
1772556176269910300,5.44591015625,1.0382859706878662,-0.04701688513159752,0.4270985424518585
1772556176279841500,5.455841552734375,1.330220103263855,-0.16134296357631683,0.3761540949344635
1772556176289772300,5.465772216796875,1.3955402374267578,-0.5691530704498291,0.13528478145599365
1772556176299703300,5.475703369140625,1.2243818044662476,-0.6622099876403809,-0.038670413196086884
1772556176309635300,5.48563525390625,1.000347375869751,-0.8975127339363098,0.11944066733121872
1772556176319566300,5.49556640625,0.6170883774757385,-1.043112874031067,0.3588743209838867
1772556176329497300,5.505497314453125,0.15677697956562042,-0.9937312602996826,0.6426264643669128
1772556176339428400,5.515428466796875,-0.2647862434387207,-0.7045869827270508,0.9460429549217224
1772556176349359400,5.525359375,-0.5860161781311035,-0.25834742188453674,1.20338773727417
1772556176359290400,5.535290283203125,-0.7497315406799316,0.1632102131843567,1.3746851682662964
1772556176369221400,5.545221435546875,-0.7495269775390625,0.31816568970680237,1.3960293531417847
1772556176379152400,5.55515234375,-0.6145316362380981,0.2356475442647934,1.2540922164916992
1772556176389083400,5.56508349609375,-0.37457525730133057,-0.03280361741781235,0.940828800201416
1772556176399014100,5.57501416015625,-0.07946095615625381,-0.40536850690841675,0.48192259669303894
1772556176408945400,5.5849453125,0.21444496512413025,-0.753900408744812,-0.06652826815843582
1772556176418876400,5.59487646484375,0.4508541226387024,-0.9596518278121948,-0.6125093698501587
1772556176428808200,5.60480810546875,0.6126342415809631,-0.9598331451416016,-1.1433145999908447
1772556176438739200,5.6147392578125,0.7588561177253723,-0.9270178079605103,-1.628153681755066
1772556176448670200,5.624670166015625,0.907566249370575,-0.9813251495361328,-1.9945504665374756
1772556176458601200,5.634601318359375,1.06429922580719,-1.1143982410430908,-2.274982213973999
1772556176468532200,5.6445322265625,1.2896196842193604,-1.303786277770996,-2.5686981678009033
1772556176478463200,5.654463134765625,1.5238192081451416,-1.5923402309417725,-2.8582468032836914
1772556176488394200,5.664394287109375,1.6383029222488403,-1.78566312789917,-3.090684413909912
1772556176498325000,5.674324951171875,1.5688458681106567,-1.6759463548660278,-3.235663890838623
1772556176508256300,5.68425634765625,1.2578983306884766,-1.3085073232650757,-3.228303909301758
1772556176518187300,5.694187255859375,0.722104549407959,-0.8615577220916748,-3.0512611865997314
1772556176528118000,5.704117919921875,0.06997811794281006,-0.30784714221954346,-2.7729663848876953
1772556176538049300,5.71404931640625,-0.5700666308403015,0.238279789686203,-2.442932367324829
1772556176547981300,5.723981201171875,-1.1539171934127808,0.7896345257759094,-2.166116952896118
1772556176557912000,5.733912109375,-1.5979423522949219,1.2782981395721436,-2.0175766944885254
1772556176567843000,5.743843017578125,-1.868117094039917,1.7473547458648682,-2.0052378177642822
1772556176577774300,5.7537744140625,-2.0062644481658936,2.391397476196289,-2.086136817932129
1772556176587705000,5.763705078125,-2.07606840133667,3.1781771183013916,-2.2907776832580566
1772556176597636000,5.773635986328125,-2.135187864303589,4.078420162200928,-2.68404483795166
1772556176607567400,5.7835673828125,-2.0875244140625,4.714828014373779,-3.248603105545044
1772556176617498000,5.793498046875,-1.8471136093139648,4.676056861877441,-3.96730899810791
1772556176627429000,5.80342919921875,-1.2368241548538208,3.672994613647461,-4.561694622039795
1772556176637360000,5.813360107421875,-0.389485239982605,2.1919355392456055,-4.804137229919434
1772556176647291100,5.823291015625,0.5533933639526367,0.6906399726867676,-4.887401103973389
1772556176657222100,5.83322216796875,1.2709293365478516,-0.7181820273399353,-4.874704837799072
1772556176667153200,5.843153076171875,1.2167468070983887,-1.1855428218841553,-4.655328273773193
1772556176677085200,5.853085205078125,0.7844504714012146,-0.8634918332099915,-3.86897873878479
1772556176687016200,5.86301611328125,0.37823155522346497,-0.3185039162635803,-2.3715546131134033
1772556176696947200,5.872947265625,0.19528943300247192,0.06653276085853577,-0.6286011934280396
1772556176706878200,5.882878173828125,0.2606460452079773,0.17464353144168854,0.9885618090629578
1772556176716809200,5.892809326171875,0.46002867817878723,0.03111073561012745,2.2538158893585205
1772556176726740200,5.902740234375,0.653533935546875,-0.25249409675598145,3.0272891521453857
1772556176736671200,5.912671142578125,0.7677035331726074,-0.5855754017829895,3.389251470565796
1772556176746602200,5.922602294921875,0.8291056752204895,-0.8902907967567444,3.570481300354004
1772556176756533200,5.932533203125,0.8892817497253418,-1.1507283449172974,3.7926151752471924
1772556176766464300,5.94246435546875,0.9095593094825745,-1.3273766040802002,4.171014308929443
1772556176776395300,5.952395263671875,0.8822228908538818,-1.4190131425857544,4.663006782531738
1772556176786326300,5.962326171875,0.8804292678833008,-1.4074270725250244,5.142163276672363
1772556176796258300,5.97225830078125,0.9022945761680603,-1.3502305746078491,5.553037643432617
1772556176806189300,5.982189208984375,0.9232118725776672,-1.2844579219818115,5.832721710205078
1772556176816120000,5.9921201171875,0.9090951085090637,-1.2256361246109009,5.910373687744141
1772556176826051300,6.00205126953125,0.8100146055221558,-1.232722282409668,5.741960525512695
1772556176835982300,6.011982421875,0.6153045296669006,-1.2426263093948364,5.367153167724609
1772556176845913000,6.0219130859375,0.4321381747722626,-1.2116286754608154,4.7488789558410645
1772556176855844400,6.03184423828125,0.2665199041366577,-1.189234972000122,3.9858930110931396
1772556176865775000,6.041775146484375,0.13144278526306152,-1.2813459634780884,3.1416871547698975
1772556176875706000,6.0517060546875,0.03777390718460083,-1.4467530250549316,2.274947166442871
1772556176885637400,6.061637451171875,-0.007159744389355183,-1.5691957473754883,1.428695797920227
1772556176895568100,6.071568115234375,0.023332791402935982,-1.6303446292877197,0.6567528247833252
1772556176905499100,6.0814990234375,0.10680105537176132,-1.5935930013656616,-0.02125631645321846
1772556176915431200,6.09143115234375,0.20291724801063538,-1.4526668787002563,-0.6145946979522705
1772556176925362200,6.101362060546875,0.2969694137573242,-1.1693049669265747,-1.1829063892364502
1772556176935293200,6.111293212890625,0.3571351170539856,-0.7884206175804138,-1.7340517044067383
1772556176945224200,6.12122412109375,0.3509150445461273,-0.36524856090545654,-2.258884906768799
1772556176955155200,6.1311552734375,0.22824393212795258,0.09824341535568237,-2.751108407974243
1772556176965086200,6.141086181640625,0.0015074512921273708,0.6627236008644104,-3.268167734146118
1772556176975017200,6.151017333984375,-0.2724754810333252,1.1647602319717407,-3.787975788116455
1772556176984948200,6.1609482421875,-0.5161067843437195,1.518396019935608,-4.216358184814453
1772556176994879200,6.170879150390625,-0.6782556772232056,1.873183250427246,-4.600118160247803
1772556177004810000,6.18081005859375,-0.7741467952728271,2.293403387069702,-4.955463886260986
1772556177014741200,6.1907412109375,-0.866975724697113,2.5334017276763916,-5.200422286987305
1772556177024672300,6.20067236328125,-1.052405834197998,2.509275436401367,-5.283873558044434
1772556177034604300,6.210604248046875,-1.3993982076644897,2.3892982006073,-5.205845355987549
1772556177044535000,6.22053515625,-1.8850511312484741,2.2787551879882812,-4.961431980133057
1772556177054466300,6.23046630859375,-2.4403698444366455,2.3823037147521973,-4.7472076416015625
1772556177064397000,6.24039697265625,-2.8553340435028076,2.6771061420440674,-4.759143829345703
1772556177074328000,6.250328125,-2.9023919105529785,3.066091299057007,-5.047893047332764
1772556177084259300,6.26025927734375,-2.2741096019744873,3.367276430130005,-5.409966945648193
1772556177094190000,6.270190185546875,-0.9481396079063416,2.8635475635528564,-5.091688632965088
1772556177104121000,6.28012109375,0.6688465476036072,1.6778334379196167,-3.778318405151367
1772556177114052400,6.29005224609375,1.740740418434143,0.9646268486976624,-2.1922900676727295
1772556177123983000,6.299983154296875,1.929368495941162,0.9614006876945496,-1.0819052457809448
1772556177133914000,6.3099140625,1.5230337381362915,1.2203925848007202,-0.4928780496120453
1772556177143845400,6.319845458984375,0.8543847799301147,1.1798150539398193,-0.12387042492628098
1772556177153776000,6.329776123046875,0.2867916226387024,0.5971793532371521,0.3036382794380188
1772556177163708200,6.339708251953125,-0.04609020799398422,-0.4067077040672302,1.144033670425415
1772556177173639400,6.349639404296875,-0.1629699021577835,-1.3313549757003784,2.36106538772583
1772556177183570200,6.359570068359375,-0.18960285186767578,-1.8669755458831787,3.548022747039795
1772556177193501200,6.369501220703125,-0.15572074055671692,-1.8132541179656982,4.417581558227539
1772556177203432400,6.379432373046875,-0.025925464928150177,-1.387690782546997,5.00691556930542
1772556177213363200,6.38936328125,0.1494646668434143,-1.0099291801452637,5.4770989418029785
1772556177223294200,6.399294189453125,0.3130165636539459,-0.8874003291130066,5.89748477935791
1772556177233225200,6.40922509765625,0.44039201736450195,-0.9884671568870544,6.194186210632324
1772556177243156200,6.41915625,0.515552818775177,-1.2666164636611938,6.323019981384277
1772556177253087200,6.429087158203125,0.5434690117835999,-1.6082738637924194,6.3552045822143555
1772556177263018200,6.439018310546875,0.6105223298072815,-1.9263687133789062,6.308789253234863
1772556177272949200,6.44894921875,0.6926671266555786,-2.0601277351379395,6.169771671295166
1772556177282881300,6.45888134765625,0.820252537727356,-2.0492312908172607,5.957030296325684
1772556177292812000,6.46881201171875,0.9142084121704102,-1.9856477975845337,5.672080039978027
1772556177302743300,6.478743408203125,0.8780251145362854,-1.8632396459579468,5.118397235870361
1772556177312674300,6.48867431640625,0.7521936893463135,-1.7830253839492798,4.152350902557373
1772556177322605000,6.49860498046875,0.6125287413597107,-1.7905153036117554,2.8025660514831543
1772556177332536300,6.508536376953125,0.5156416893005371,-1.962470531463623,1.3784098625183105
1772556177342467300,6.51846728515625,0.47691190242767334,-2.2239155769348145,0.1588878631591797
1772556177352398000,6.528398193359375,0.5455248951911926,-2.378214120864868,-0.8136570453643799
1772556177362329300,6.538329345703125,0.7158545851707458,-2.3050124645233154,-1.5664069652557373
1772556177372260000,6.548260009765625,0.9347428679466248,-1.9528175592422485,-2.14615535736084
1772556177382191000,6.558191162109375,1.1360653638839722,-1.280830979347229,-2.6276819705963135
1772556177392122400,6.568122314453125,1.234882116317749,-0.3875783085823059,-3.0694780349731445
1772556177402053000,6.57805322265625,1.2075685262680054,0.5535852313041687,-3.4667410850524902
1772556177411985200,6.587985107421875,0.9934067726135254,1.3850876092910767,-3.8040194511413574
1772556177421916200,6.597916259765625,0.5903842449188232,2.093740463256836,-4.112605571746826
1772556177431848000,6.607847900390625,0.04371973127126694,2.6650125980377197,-4.425018310546875
1772556177441778700,6.61777880859375,-0.5826014280319214,3.0873684883117676,-4.6986260414123535
1772556177451709700,6.627709716796875,-1.1979084014892578,3.576935291290283,-4.9733099937438965
1772556177461640700,6.637640625,-1.7361729145050049,4.174620628356934,-5.310568332672119
1772556177471571700,6.64757177734375,-2.187255859375,4.466856002807617,-5.605416774749756
1772556177481502700,6.657502685546875,-2.7071690559387207,4.524914741516113,-5.862153053283691
1772556177491433700,6.667433837890625,-3.2923097610473633,4.535921573638916,-6.082845687866211
1772556177501364700,6.67736474609375,-3.727604866027832,4.369972229003906,-6.13157844543457
1772556177511295700,6.687295654296875,-3.645331621170044,3.779564142227173,-5.831667900085449
1772556177521226800,6.697226806640625,-2.7214808464050293,2.3821003437042236,-5.0007219314575195
1772556177531158800,6.70715869140625,-1.2115398645401,0.42743998765945435,-3.6093807220458984
1772556177541089800,6.71708984375,0.154009610414505,-0.6128325462341309,-2.275688648223877
1772556177551020500,6.7270205078125,0.8831982016563416,-0.6168321967124939,-1.217757225036621
1772556177560951800,6.736951904296875,0.9574902653694153,-0.014273645356297493,-0.389922171831131
1772556177570882800,6.7468828125,0.7268274426460266,0.25557562708854675,0.5407475829124451
1772556177580813600,6.7568134765625,0.4918160140514374,-0.34710782766342163,1.7430026531219482
1772556177590744800,6.766744873046875,0.3954658508300781,-1.315981149673462,2.863703727722168
1772556177600675800,6.77667578125,0.37806713581085205,-1.9261952638626099,3.5381877422332764
1772556177610606600,6.786606689453125,0.3638480305671692,-1.961034893989563,3.777172088623047
1772556177620537900,6.796537841796875,0.20891784131526947,-1.6990219354629517,3.9433631896972656
1772556177630468600,6.806468505859375,-0.07189485430717468,-1.311307430267334,4.197469711303711
1772556177640399600,6.816399658203125,-0.30449825525283813,-0.9595504999160767,4.461700439453125
1772556177650331000,6.826330810546875,-0.23957593739032745,-0.7832311987876892,4.572052478790283
1772556177660263000,6.836262939453125,0.07737617939710617,-0.7736728191375732,4.388269901275635
1772556177670193700,6.846193603515625,0.43554234504699707,-0.9571786522865295,4.030822277069092
1772556177680124700,6.856124755859375,0.6990082859992981,-1.256913661956787,3.5953850746154785
1772556177690055700,6.8660556640625,0.8255478739738464,-1.6304759979248047,3.15040922164917
1772556177699986700,6.875986572265625,0.8487663865089417,-1.9525117874145508,2.800344944000244
1772556177709917700,6.885917724609375,0.7770470976829529,-2.1072866916656494,2.6431448459625244
1772556177719848700,6.8958486328125,0.6202691793441772,-1.9620327949523926,2.7148356437683105
1772556177729779700,6.90577978515625,0.46505722403526306,-1.509016990661621,2.939578056335449
1772556177739710700,6.915710693359375,0.36910727620124817,-0.9315784573554993,3.226714849472046
1772556177749641700,6.925641845703125,0.3151988685131073,-0.4522751271724701,3.49863600730896
1772556177759572700,6.93557275390625,0.22201859951019287,-0.23208177089691162,3.6328349113464355
1772556177769503500,6.94550341796875,0.06299752742052078,-0.34310710430145264,3.481154203414917
1772556177779435500,6.955435546875,-0.13218608498573303,-0.7167219519615173,3.012822389602661
1772556177789366800,6.96536669921875,-0.2808721661567688,-1.0957013368606567,2.353372812271118
1772556177799297800,6.9752978515625,-0.3682531416416168,-1.379294753074646,1.6788222789764404
1772556177809228500,6.985228515625,-0.4018608331680298,-1.509778380393982,1.0899481773376465
1772556177819159800,6.995159912109375,-0.38433241844177246,-1.4736595153808594,0.6406084895133972
1772556177829090600,7.005090576171875,-0.31265273690223694,-1.2857691049575806,0.2872016429901123
1772556177839021600,7.015021484375,-0.16300040483474731,-0.9809762239456177,-0.035053618252277374
1772556177848952800,7.024952880859375,0.07131364941596985,-0.5800848007202148,-0.37787237763404846
1772556177858883600,7.034883544921875,0.3573278486728668,-0.1780657321214676,-0.7717996835708618
1772556177868814600,7.044814697265625,0.6316949129104614,0.1726939082145691,-1.2415478229522705
1772556177878745900,7.054745849609375,0.8454343676567078,0.485722154378891,-1.785383701324463
1772556177888676600,7.064676513671875,0.9919024109840393,0.7178042531013489,-2.362391948699951
1772556177898607600,7.074607666015625,1.0416979789733887,0.8365690112113953,-2.9546945095062256
1772556177908539600,7.08453955078125,0.9316790103912354,0.8397424817085266,-3.539409875869751
1772556177918470700,7.094470703125,0.6683083772659302,0.7693812251091003,-4.071318626403809
1772556177928401700,7.104401611328125,0.23449988663196564,0.6406789422035217,-4.507682800292969
1772556177938332700,7.114332763671875,-0.3151134252548218,0.5169860124588013,-4.776082992553711
1772556177948263700,7.124263671875,-0.84271639585495,0.532797634601593,-4.904750823974609
1772556177958194700,7.134194580078125,-1.2690176963806152,0.8670336604118347,-4.920920372009277
1772556177968125700,7.144125732421875,-1.5484960079193115,1.6071547269821167,-5.011724472045898
1772556177978056700,7.154056640625,-1.4484069347381592,2.895831823348999,-5.188097953796387
1772556177987987700,7.16398779296875,-0.9755340218544006,4.3528666496276855,-4.9623703956604
1772556177997918700,7.173918701171875,-0.4384642541408539,4.87980318069458,-3.9215216636657715
1772556178007849700,7.183849609375,-0.19346094131469727,3.821481943130493,-2.0879106521606445
1772556178017780700,7.19378076171875,-0.4925869405269623,1.9624098539352417,-0.26916074752807617
1772556178027712800,7.203712646484375,-1.0396325588226318,0.13810618221759796,0.5663907527923584
1772556178037643800,7.213643798828125,-1.564825177192688,-1.7565861940383911,0.7025880217552185
1772556178047574800,7.22357470703125,-1.8528920412063599,-3.1256465911865234,0.673023521900177
1772556178057505500,7.233505615234375,-1.7189464569091797,-3.4465491771698,0.9649419188499451
1772556178067436800,7.243436767578125,-1.3304671049118042,-2.7039575576782227,1.711311936378479
1772556178077367800,7.253367919921875,-0.9186327457427979,-1.2071661949157715,2.6320931911468506
1772556178087298600,7.263298583984375,-0.7131490707397461,0.3429568409919739,3.316899061203003
1772556178097229800,7.273229736328125,-0.7305994033813477,1.3532984256744385,3.6607253551483154
1772556178107160800,7.283160888671875,-0.777052640914917,1.7137908935546875,3.707343816757202
1772556178117091600,7.293091552734375,-0.6424255967140198,1.5417730808258057,3.5369479656219482
1772556178127022800,7.30302294921875,-0.24623163044452667,0.9454630613327026,3.3066647052764893
1772556178136953900,7.312953857421875,0.2859076261520386,0.24753214418888092,3.0407159328460693
1772556178146884600,7.322884521484375,0.8585741519927979,-0.38167262077331543,2.661954402923584
1772556178156816600,7.332816650390625,1.348036289215088,-0.8643884658813477,2.197740077972412
1772556178166748000,7.342747802734375,1.6765129566192627,-1.1102206707000732,1.7808873653411865
1772556178176678700,7.3526787109375,1.8374727964401245,-1.114343285560608,1.6058236360549927
1772556178186609700,7.362609619140625,1.8036364316940308,-0.9683038592338562,1.7088866233825684
1772556178196540700,7.372540771484375,1.6076247692108154,-0.7976120114326477,2.008089542388916
1772556178206471700,7.3824716796875,1.292973518371582,-0.6730033159255981,2.4269943237304688
1772556178216402700,7.392402587890625,0.9847882986068726,-0.6190186738967896,2.8923237323760986
1772556178226333700,7.402333740234375,0.8074846267700195,-0.601757824420929,3.3040049076080322
1772556178236264700,7.4122646484375,0.7811299562454224,-0.5919882655143738,3.6239681243896484
1772556178246195700,7.42219580078125,0.8251890540122986,-0.6641342639923096,3.842540740966797
1772556178256126700,7.432126708984375,0.8879629373550415,-0.9384177923202515,3.9087111949920654
1772556178266057700,7.4420576171875,0.9455419182777405,-1.4043408632278442,3.7940783500671387
1772556178275988700,7.45198876953125,0.9149855971336365,-2.0024337768554688,3.5280921459198
1772556178285920500,7.46192041015625,0.7593929171562195,-2.4973950386047363,3.069613456726074
1772556178295851800,7.471851806640625,0.5183286666870117,-2.6285336017608643,2.3995609283447266
1772556178305782800,7.48178271484375,0.24137911200523376,-2.366384267807007,1.6367111206054688
1772556178315713500,7.491713623046875,0.013159526512026787,-1.8394190073013306,0.8868796825408936
1772556178325644800,7.501644775390625,-0.17109841108322144,-1.0635470151901245,0.17630475759506226
1772556178335575800,7.511575927734375,-0.38367778062820435,-0.1841486096382141,-0.47930529713630676
1772556178345506600,7.521506591796875,-0.6534725427627563,0.6142513751983643,-1.0574630498886108
1772556178355437800,7.531437744140625,-0.9398702383041382,1.206883192062378,-1.5569289922714233
1772556178365368600,7.54136865234375,-1.1028791666030884,1.5567094087600708,-2.015749931335449
1772556178375299600,7.551299560546875,-1.0639854669570923,1.7264577150344849,-2.441760540008545
1772556178385230800,7.56123095703125,-0.8259207606315613,1.7175407409667969,-2.8433332443237305
1772556178395161600,7.57116162109375,-0.5475198030471802,1.6111520528793335,-3.2936642169952393
1772556178405092600,7.581092529296875,-0.3831366002559662,1.5458567142486572,-3.8662872314453125
1772556178415024600,7.591024658203125,-0.3497650623321533,1.4967013597488403,-4.568100929260254
1772556178424955600,7.60095556640625,-0.4700685441493988,1.5366570949554443,-5.377434253692627
1772556178434886700,7.61088671875,-0.6949072480201721,1.8008670806884766,-6.2488322257995605
1772556178444817700,7.620817626953125,-1.0470224618911743,2.348555326461792,-7.0336737632751465
1772556178454748700,7.630748779296875,-1.5148706436157227,2.9061965942382812,-7.472004413604736
1772556178464679400,7.640679443359375,-1.978334903717041,3.3410372734069824,-7.41495418548584
1772556178474610700,7.650610595703125,-1.8668856620788574,3.843552827835083,-6.807003974914551
1772556178484541700,7.660541748046875,-0.8774458765983582,3.8323287963867188,-5.422598361968994
1772556178494472400,7.670472412109375,0.4150215983390808,2.8157684803009033,-3.5350141525268555
1772556178504403700,7.68040380859375,1.2795084714889526,1.5771459341049194,-2.0368754863739014
1772556178514334700,7.690334716796875,1.5290147066116333,0.21353070437908173,-1.4340920448303223
1772556178524265500,7.700265380859375,0.9366142749786377,-1.0495673418045044,-1.618943214416504
1772556178534197500,7.710197509765625,-0.08195671439170837,-1.9973533153533936,-2.009622097015381
1772556178544128800,7.720128662109375,-0.8991346955299377,-2.714197874069214,-1.7623735666275024
1772556178554059500,7.7300595703125,-1.310194730758667,-2.9801433086395264,-0.5848193168640137
1772556178563990500,7.739990478515625,-1.3239827156066895,-2.744065761566162,1.2425414323806763
1772556178573921800,7.749921875,-1.0114668607711792,-2.1537365913391113,3.18123459815979
1772556178583852500,7.7598525390625,-0.5998235940933228,-1.5152698755264282,4.694497585296631
1772556178593783600,7.769783447265625,-0.3008959889411926,-1.1734727621078491,5.417238235473633
1772556178603714800,7.77971484375,-0.13221167027950287,-1.1678335666656494,5.3824238777160645
1772556178613645600,7.7896455078125,0.008174729533493519,-1.3868008852005005,4.896190166473389
1772556178623576600,7.79957666015625,0.17057688534259796,-1.629187822341919,4.277347087860107
1772556178633507600,7.809507568359375,0.379766047000885,-1.733633041381836,3.7365198135375977
1772556178643438600,7.8194384765625,0.5967475771903992,-1.6374150514602661,3.3828608989715576
1772556178653369600,7.82936962890625,0.7757367491722107,-1.338849425315857,3.1924328804016113
1772556178663301600,7.839301513671875,0.9229028224945068,-0.9546930193901062,3.1096909046173096
1772556178673232600,7.849232666015625,1.0281295776367188,-0.545551061630249,3.0717785358428955
1772556178683163600,7.85916357421875,1.0685316324234009,-0.1941114068031311,2.996253728866577
1772556178693094400,7.869094482421875,1.054088830947876,-0.04904315620660782,2.8118953704833984
1772556178703025700,7.879025634765625,0.8975329399108887,-0.19555114209651947,2.474026679992676
1772556178712956700,7.888956787109375,0.5367116332054138,-0.5405141711235046,1.9836044311523438
1772556178722887400,7.898887451171875,0.10933265089988708,-0.922877311706543,1.4553815126419067
1772556178732818700,7.908818603515625,-0.2625085413455963,-1.2604992389678955,0.9862774610519409
1772556178742749700,7.918749755859375,-0.5695266723632812,-1.5038893222808838,0.5954813957214355
1772556178752680400,7.928680419921875,-0.8145358562469482,-1.6535252332687378,0.28666868805885315
1772556178762611700,7.93861181640625,-0.999720573425293,-1.739660620689392,0.08476200699806213
1772556178772542500,7.94854248046875,-1.1386650800704956,-1.7748095989227295,0.01939711906015873
1772556178782474500,7.958474609375,-1.226180076599121,-1.693371295928955,0.04911700636148453
1772556178792405500,7.968405517578125,-1.2615796327590942,-1.4449535608291626,0.12801074981689453
1772556178802336800,7.978336669921875,-1.2345119714736938,-1.062198519706726,0.1901731789112091
1772556178812267500,7.988267578125,-1.1443828344345093,-0.6107487678527832,0.21420101821422577
1772556178822198500,7.998198486328125,-1.0189738273620605,-0.12497507035732269,0.16791759431362152
1772556178832129500,8.008129638671875,-0.866725742816925,0.3238413631916046,0.030863076448440552
1772556178842060500,8.018060546875,-0.7212968468666077,0.6597155928611755,-0.19626404345035553
1772556178851991600,8.027991455078125,-0.5945969820022583,0.85708087682724,-0.5597876310348511
1772556178861922600,8.037922607421875,-0.4434463381767273,0.9079983234405518,-1.0877586603164673
1772556178871853600,8.047853515625,-0.2743997871875763,0.8569375276565552,-1.7388919591903687
1772556178881784600,8.05778466796875,-0.1580372452735901,0.7553410530090332,-2.449573040008545
1772556178891715600,8.067715576171874,-0.053104426711797714,0.822908341884613,-3.189277410507202
1772556178901646600,8.077646484375,0.129054456949234,1.2356594800949097,-3.970640182495117
1772556178911578600,8.08757861328125,0.5148338079452515,2.055323839187622,-4.871446132659912
1772556178921509600,8.097509521484374,1.0448250770568848,3.489539384841919,-6.000659465789795
1772556178931440600,8.107440673828124,1.3875211477279663,5.253150463104248,-7.043079376220703
1772556178941371600,8.11737158203125,1.3691312074661255,5.63604211807251,-7.048061847686768
1772556178951302700,8.127302734375,1.658416986465454,4.65036153793335,-6.104990482330322
1772556178961233700,8.137233642578124,2.1172165870666504,3.905172109603882,-5.3074140548706055
1772556178971164700,8.14716455078125,2.654881477355957,3.5091490745544434,-4.551646709442139
1772556178981095700,8.157095703125,2.6166512966156006,2.9332900047302246,-3.8978161811828613
1772556178991026700,8.167026611328126,1.9693466424942017,2.1552023887634277,-3.3564231395721436
1772556179000957400,8.17695751953125,1.2120426893234253,1.252625823020935,-2.928110361099243
1772556179010888700,8.186888671875,0.6138409972190857,0.2809451222419739,-2.416990280151367
1772556179020819700,8.19681982421875,0.1668538600206375,-0.4591364562511444,-1.8022595643997192
1772556179030750500,8.20675048828125,-0.08261961489915848,-0.8302003145217896,-1.0860689878463745
1772556179040682500,8.2166826171875,-0.18267148733139038,-1.025506615638733,-0.3357881009578705
1772556179050613800,8.22661376953125,-0.19895458221435547,-1.0816718339920044,0.24119238555431366
1772556179060544500,8.23654443359375,-0.1787053346633911,-1.0241193771362305,0.5907959342002869
1772556179070475500,8.2464755859375,-0.14279499650001526,-0.8920585513114929,0.8449251055717468
1772556179080406800,8.25640673828125,-0.10570801794528961,-0.8080878853797913,1.0733164548873901
1772556179090337500,8.266337646484375,-0.03755665570497513,-0.8551251888275146,1.3054524660110474
1772556179100268500,8.2762685546875,0.036797937005758286,-0.9782412648200989,1.4965468645095825
1772556179110199800,8.28619970703125,0.10911580920219421,-1.1577471494674683,1.649543285369873
1772556179120130600,8.296130615234375,0.19012582302093506,-1.3635151386260986,1.7630388736724854
1772556179130061600,8.3060615234375,0.2604638934135437,-1.570970058441162,1.845770001411438
1772556179139992600,8.31599267578125,0.33302971720695496,-1.8198314905166626,1.8789650201797485
1772556179149923600,8.325923583984375,0.42421314120292664,-2.0708961486816406,1.8729430437088013
1772556179159854600,8.3358544921875,0.48316678404808044,-2.3103108406066895,1.8685295581817627
1772556179169785600,8.34578564453125,0.48056063055992126,-2.3669896125793457,1.8484431505203247
1772556179179717600,8.355717529296875,0.44517943263053894,-2.2071735858917236,1.828578233718872
1772556179189648600,8.365648681640625,0.41250696778297424,-1.8310754299163818,1.8346904516220093
1772556179199579400,8.375579345703125,0.382895290851593,-1.2988364696502686,1.8819036483764648
1772556179209510700,8.3855107421875,0.3388245105743408,-0.7207592725753784,1.9605191946029663
1772556179219441700,8.395441650390625,0.24854877591133118,-0.21369734406471252,2.0389041900634766
1772556179229372400,8.405372314453125,0.10843107849359512,0.2261013388633728,2.0800411701202393
1772556179239303700,8.4153037109375,-0.08108978718519211,0.5661865472793579,2.0295042991638184
1772556179249234700,8.425234619140625,-0.2834484875202179,0.7737024426460266,1.862889289855957
1772556179259165400,8.43516552734375,-0.41978341341018677,0.8878660202026367,1.6022448539733887
1772556179269096700,8.4450966796875,-0.4206683933734894,0.9218181371688843,1.345447063446045
1772556179279027700,8.45502783203125,-0.293584406375885,0.7604875564575195,1.1860424280166626
1772556179288958500,8.46495849609375,-0.13084715604782104,0.41215944290161133,1.169718861579895
1772556179298890500,8.474890380859375,-0.031003667041659355,0.0031312182545661926,1.2984932661056519
1772556179308821800,8.48482177734375,0.0037615038454532623,-0.45086610317230225,1.5702425241470337
1772556179318752500,8.49475244140625,-0.006422029808163643,-0.8237569332122803,1.9653892517089844
1772556179328683500,8.50468359375,-0.12377449125051498,-1.0125242471694946,2.384500741958618
1772556179338614800,8.51461474609375,-0.2118433117866516,-0.9602810144424438,2.629070281982422
1772556179348545500,8.524545654296874,-0.11673784255981445,-0.6694324016571045,2.5291428565979004
1772556179358476500,8.5344765625,0.15783816576004028,-0.11251749098300934,2.0976996421813965
1772556179368407600,8.544407470703124,0.5413938164710999,0.5890387892723083,1.4222880601882935
1772556179378338600,8.554338623046876,0.8686177730560303,1.1926348209381104,0.6666597127914429
1772556179388269600,8.56426953125,1.014861822128296,1.4460564851760864,-0.02991379424929619
1772556179398200600,8.57420068359375,0.9669749140739441,1.3736543655395508,-0.6507551074028015
1772556179408131600,8.584131591796876,0.7921623587608337,1.0947697162628174,-1.2182494401931763
1772556179418062600,8.5940625,0.5453102588653564,0.7226600050926208,-1.690687894821167
1772556179427993600,8.60399365234375,0.26023411750793457,0.2998323142528534,-1.990476131439209
1772556179437924600,8.613924560546875,-0.040625713765621185,-0.16749010980129242,-2.054657459259033
1772556179447855400,8.62385546875,-0.3239319920539856,-0.6432835459709167,-1.8521015644073486
1772556179457786600,8.63378662109375,-0.5655315518379211,-1.0740669965744019,-1.443023443222046
1772556179467717600,8.643717529296875,-0.7373610734939575,-1.3792577981948853,-0.919842004776001
1772556179477648400,8.6536484375,-0.8195312023162842,-1.5029953718185425,-0.37985923886299133
1772556179487579600,8.66357958984375,-0.8263781666755676,-1.4458377361297607,0.09768575429916382
1772556179497510700,8.6735107421875,-0.7388520836830139,-1.2628616094589233,0.45343032479286194
1772556179507441400,8.68344140625,-0.5573413968086243,-0.9867009520530701,0.6801015734672546
1772556179517372700,8.69337255859375,-0.3202209174633026,-0.6483379006385803,0.812804102897644
1772556179527303700,8.7033037109375,-0.09240346401929855,-0.3457210659980774,0.913664698600769
1772556179537234400,8.713234375,0.07142575085163116,-0.15907710790634155,0.9972589612007141
1772556179547165700,8.723165771484375,0.1365746557712555,-0.1287975013256073,1.075048804283142
1772556179557097700,8.73309765625,0.09907210618257523,-0.21229210495948792,1.1252336502075195
1772556179567028500,8.743028564453125,0.0151593629270792,-0.3705291450023651,1.1288795471191406
1772556179576959500,8.75295947265625,-0.06858086585998535,-0.5396878719329834,1.0739701986312866
1772556179586890800,8.762890869140625,-0.13028603792190552,-0.6421481966972351,0.9398632049560547
1772556179596821500,8.772821533203125,-0.14736969769001007,-0.6054794788360596,0.7578995823860168
1772556179606752500,8.78275244140625,-0.10107064992189407,-0.3748031258583069,0.5183134078979492
1772556179616683500,8.79268359375,0.029564477503299713,0.009501149877905846,0.22542613744735718
1772556179626614500,8.802614501953125,0.1905488520860672,0.43165478110313416,-0.06759907305240631
1772556179636545500,8.812545654296875,0.3203166723251343,0.7266002893447876,-0.30156344175338745
1772556179646476500,8.8224765625,0.365055650472641,0.7641298174858093,-0.45400357246398926
1772556179656407600,8.832407470703124,0.32492780685424805,0.48678457736968994,-0.4736084043979645
1772556179666338600,8.842338623046874,0.21074050664901733,-0.0074653541669249535,-0.3540292978286743
1772556179676269600,8.85226953125,0.06310844421386719,-0.5056401491165161,-0.10257609188556671
1772556179686201600,8.86220166015625,-0.0782201737165451,-0.759833812713623,0.30517545342445374
1772556179696132600,8.872132568359374,-0.1577027440071106,-0.5515924692153931,0.5289980173110962
1772556179706063600,8.882063720703124,-0.17978541553020477,-0.400664746761322,0.7044832706451416
1772556179715994600,8.89199462890625,-0.20299343764781952,-0.21253091096878052,0.8014833927154541
1772556179725925600,8.901925537109374,-0.21545463800430298,-0.009286981076002121,0.8201896548271179
1772556179735856600,8.911856689453124,-0.21460206806659698,0.11063434183597565,0.745800256729126
1772556179745787600,8.92178759765625,-0.2075907588005066,0.11448314785957336,0.6047182679176331
1772556179755718400,8.931718505859376,-0.22070454061031342,0.013713553547859192,0.3825104236602783
1772556179765649700,8.941649658203126,-0.2131028026342392,-0.19100549817085266,0.126625657081604
1772556179775580700,8.95158056640625,-0.2386048585176468,-0.4323756992816925,-0.07435338199138641
1772556179785511400,8.961511474609376,-0.27802416682243347,-0.6201506853103638,-0.34149906039237976
