time,seconds_elapsed,z,y,x
1772565876320484400,0.108484375,-0.022757190731167793,-0.024778960616048423,0.03272809298960492
1772565876330415400,0.118415283203125,0.004323708418011665,-0.012947196389175951,-0.04613403859748505
1772565876340347600,0.12834765625,-0.014954992547631264,-0.026539942406583576,-0.05122764454260468
1772565876350278400,0.1382783203125,-0.02212473804652691,-0.04251965662576258,-0.005443643225496634
1772565876360210400,0.14821044921875,-0.004776128360629081,-0.01611019046474248,-0.006616933921724557
1772565876370141400,0.158141357421875,-0.020190555113554,-0.018002068625949323,-0.026334756956994533
1772565876380073500,0.168073486328125,-0.013294365859031676,-0.046274406049400564,-0.05389553944445215
1772565876390005200,0.178005126953125,0.005566401955485344,-0.027961645772773772,-0.01830916181374341
1772565876399936500,0.1879365234375,0.002122398981451988,-0.024139858994912354,-0.01025169196119532
1772565876409868500,0.19786865234375,-0.0013163432955741882,-0.027325156233832238,-0.03878374889991246
1772565876419799600,0.207799560546875,-0.00864040257334709,-0.030080976014304903,-0.03599668459780514
1772565876429731300,0.2177314453125,-0.013274492114782332,-0.01743194058779627,-0.023456242378614843
1772565876439662300,0.227662353515625,-0.014924012887477875,-0.018295151554699986,-0.027393837555870413
1772565876449594600,0.2375947265625,-0.011781038686633109,-0.030217260946147143,-0.0221230027471669
1772565876459525400,0.247525390625,-0.0072936641395092,-0.027974633118510246,-0.018746868244418874
1772565876469457400,0.25745751953125,-0.012532733836770057,-0.021923753848019985,-0.020176225194102154
1772565876479390500,0.267390380859375,-0.0361807359278202,-0.01916055447869003,0.014490023650694638
1772565876489321500,0.277321533203125,-0.01733575020432472,-0.02018509348714724,-0.007147990324813872
1772565876499253500,0.28725341796875,-0.013455109378695488,-0.03762622202839702,-0.03900595854953862
1772565876509185500,0.297185546875,-0.02737491365969181,-0.017161453083343804,-0.013676259582396596
1772565876519116300,0.3071162109375,-0.019154197803139685,-0.01111196205234155,-0.015613164195418357
1772565876529048300,0.31704833984375,-0.02215688675045967,-0.037019963230937716,-0.03599688552720472
1772565876538979600,0.3269794921875,-0.007794014877080917,-0.027239103651884942,-0.040279823543410746
1772565876548911400,0.336911376953125,-0.013334697869420051,-0.014840115729998797,-0.015597592166950926
1772565876558842400,0.34684228515625,-0.008550386202335357,-0.027040640204027293,-0.003278966871742159
1772565876568774400,0.3567744140625,-0.005864508119225502,-0.026454602210689335,-0.039886157183861355
1772565876578705700,0.36670556640625,-0.015602642801403999,-0.023964995618350804,-0.029875735765788704
1772565876588637400,0.376637451171875,-0.010966799694299697,-0.014033238060213624,-0.006214691530074924
1772565876598569500,0.386569580078125,-0.007682955718040466,-0.01953252959623933,-0.00531035396833904
1772565876608500500,0.39650048828125,-0.026547815185785292,-0.025598113245517015,-0.023693530866364016
1772565876618432500,0.4064326171875,-0.022659575575590132,-0.025069321864750235,-0.02434651488238014
1772565876628363300,0.41636328125,-0.029545243436098097,-0.020596030641905964,-0.019967066822294145
1772565876638295300,0.42629541015625,-0.025513795962929724,-0.03343216787204146,-0.022871099434420464
1772565876648226600,0.4362265625,-0.011457213559746741,-0.03783590099001303,-0.046692594928853214
1772565876658158600,0.44615869140625,-0.01909165396094322,-0.027198899505659936,-0.013903127140831202
1772565876668089300,0.45608935546875,-0.017749591702222824,-0.02163518269760534,-0.019767114670248703
1772565876678021400,0.466021484375,-0.010121581041812896,-0.0329801497882232,-0.03045083224000409
1772565876687953400,0.475953369140625,-0.015659341424703595,-0.02282375316135585,-0.013030326361674815
1772565876697884700,0.485884765625,-0.002791676545143127,-0.0167033888512291,-0.019799108110554516
1772565876707816400,0.49581640625,0.007523381242156029,-0.0075174081590957936,-0.008617140428768471
1772565876717747500,0.50574755859375,-0.0010182371318340302,-0.014556549548264592,-0.021715307862265033
1772565876727679500,0.515679443359375,-0.00895896700322628,-0.004799856296088546,-0.02707969357278198
1772565876737610200,0.5256103515625,-0.0034276363611221313,-0.016935571905598044,-0.008700014672940596
1772565876747542300,0.535542236328125,0.010329086312651633,-0.02090162599235773,-0.006331257981294766
1772565876757473500,0.5454736328125,-0.0019546411991119383,-0.0114923762046732,-0.028495606519002466
1772565876767405600,0.555405517578125,-0.022458500045537948,-0.023011402954254297,-0.017340271115815264
1772565876777337600,0.565337646484375,-0.026205285358428955,-0.027016090284660458,-0.022991976734576744
1772565876787268400,0.575268310546875,-0.03683540044426918,-0.02217513479320332,-0.020876126224920154
1772565876797200400,0.585200439453125,-0.016038111609220505,-0.022887301650550217,-0.01340854855692014
1772565876807131600,0.595131591796875,0.003413607835769653,-0.010084719630144536,-0.013089445270923896
1772565876817063400,0.6050634765625,-0.008264554998278618,-0.007747033930197358,0.0014640629368834197
1772565876826994400,0.614994384765625,-0.000793196204304695,-0.013069087469484656,-0.000051903717173263424
1772565876836926500,0.624926513671875,-0.006340308937430382,-0.007494410875998437,-0.00425450650616549
1772565876846857500,0.634857421875,-0.027893969097733496,-0.022930154411587862,-0.013562104283971711
1772565876856789200,0.644789306640625,-0.03763151925802231,-0.027131442026328292,-0.01791806187061593
1772565876866721300,0.65472119140625,-0.0421282461553812,-0.03514401329122484,-0.018248545067152008
1772565876876652500,0.664652587890625,-0.028964228677749632,-0.030365583375655113,-0.018706947225984184
1772565876886584600,0.67458447265625,-0.011008300748467445,-0.016956724291481078,-0.01090103184855543
1772565876896515300,0.684515380859375,-0.0029290391892194748,-0.025127390461228787,-0.009320986982341855
1772565876906447400,0.694447265625,-0.004428337836265564,-0.023805987398047,-0.013411087573878466
1772565876916378600,0.704378662109375,-0.00637830286026001,-0.009526610823348164,-0.020739987423550335
1772565876926310700,0.714310546875,-0.020153730234503744,-0.02636591928023845,-0.004381165093136951
1772565876936241400,0.724241455078125,-0.016872808867692945,-0.027118290283810347,-0.012755391010968014
1772565876946173400,0.73417333984375,-0.02451192544400692,-0.018101272950414568,-0.0060189314959570766
1772565876956105500,0.74410546875,-0.016438509103655814,-0.02165794251868501,-0.006500541000440716
1772565876966036500,0.754036376953125,0.007348609197139739,-0.009256543444003909,-0.022988195608602834
1772565876975968300,0.76396826171875,-0.003134206372499466,-0.016393427852913735,-0.0016995613263454288
1772565876985899500,0.7738994140625,-0.0035942250996828075,-0.019635149720497427,-0.019212741323653606
1772565876995831600,0.78383154296875,0.0010363573104143142,-0.015200053349882364,-0.023969123804196715
1772565877005762300,0.79376220703125,-0.03249123376011848,-0.022022775509394705,-0.020983048064960166
1772565877015694300,0.8036943359375,-0.031599253356456754,-0.029998320965841412,-0.025130751462094484
1772565877025625300,0.813625244140625,-0.027409400451183317,-0.020086784211825578,-0.013443227144656702
1772565877035557600,0.8235576171875,-0.016788053193688392,-0.027401600737217813,-0.029263129425933582
1772565877045488400,0.83348828125,0.0016138649374246596,-0.020746654626354576,-0.025038086476270108
1772565877055420400,0.84342041015625,-0.002579495099186897,-0.0044387678987346585,0.0020841219308320434
1772565877065352400,0.8533525390625,-0.0016880992174148558,-0.01584047014527023,-0.01189290156327188
1772565877075283500,0.863283447265625,-0.013961305335164069,-0.011514441906008869,-0.017208196568209676
1772565877085215200,0.87321533203125,-0.014562778359651564,-0.02112142448918894,-0.003983945936476812
1772565877095146500,0.883146484375,-0.020110475614666938,-0.017896544158551842,-0.030859550038212908
1772565877105078500,0.89307861328125,-0.010541267758607864,-0.018870722952950746,-0.022236911450419575
1772565877115009500,0.903009521484375,-0.004863806644082069,-0.03037506359005347,-0.03065029120170511
1772565877124941300,0.91294140625,0.01009352399110794,-0.007477094415016472,-0.022018409861531106
1772565877134872300,0.922872314453125,-0.0014326631516218184,-0.006302589009236544,0.0037098325696773827
1772565877144804400,0.932804443359375,0.006043956339359283,-0.010487820538319646,-0.00787919980934821
1772565877154736600,0.942736572265625,-0.001889174747467041,-0.01575386957405135,-0.016058862136304378
1772565877164667400,0.95266748046875,-0.02703238383233547,-0.013542933792620896,-0.004881844624271616
1772565877174599400,0.962599365234375,-0.038864275923371314,-0.02315236406121403,-0.011332893060334026
1772565877184530400,0.972530517578125,-0.026453122639656067,-0.02426633491879329,-0.010125745760276913
1772565877194462500,0.98246240234375,-0.026908465191721916,-0.021718933724611995,-0.02096686411513947
1772565877204393500,0.9923935546875,-0.015090017104148864,-0.018317052859254182,-0.0240145886474289
1772565877214325500,1.002325439453125,-0.0016255553752183914,-0.02675256224395707,-0.011799204530986025
1772565877224256500,1.012256591796875,0.00255669874548912,-0.0154581928294152,-0.015157090990990399
1772565877234188500,1.0221884765625,-0.01016717374920845,-0.0020345197685994205,-0.008211847563507036
1772565877244120300,1.032120361328125,-0.01286065061688423,-0.007135039511695504,0.010490706615149975
1772565877254051300,1.04205126953125,-0.030822423765063285,-0.015520353079121559,-0.017125632851291445
1772565877263983600,1.051983642578125,-0.026634324425458905,-0.004766428950522095,-0.01331133526014164
1772565877273914400,1.061914306640625,-0.021401099947094916,-0.011573880475666373,-0.0059384318719618015
1772565877283846400,1.071846435546875,-0.041755321189761156,-0.009978628907166422,-0.0006553769025020301
1772565877293777400,1.08177734375,-0.038463878428936005,-0.01657309526875615,0.0023365166561678053
1772565877303709400,1.09170947265625,0.013165186521410941,-0.015112302001193165,-0.01270040942071937
1772565877313640400,1.101640380859375,-0.028284429720044135,-0.006800802588649094,-0.004508545199315994
1772565877323572500,1.111572509765625,0.030827684462070463,-0.025595007972978055,0.005514827031875029
1772565877333504500,1.12150439453125,0.005087678527832031,-0.015306107540242373,-0.03708275366830639
1772565877343435500,1.131435546875,-0.03680675887167453,-0.016416297271847725,-0.026337259441334752
1772565877353367300,1.1413671875,-0.0007400047123432159,-0.015598879941739141,-0.00973178713978268
1772565877363298800,1.151298828125,-0.0032809213668107983,-0.012256748173292725,-0.02567622911618091
1772565877373230800,1.16123095703125,-0.017648469415307046,-0.02087280175667256,-0.012609790261508897
1772565877383162000,1.171162109375,-0.003879471781849861,-0.019022223720233888,-0.00007784187602810561
1772565877393094100,1.18109423828125,-0.0035807810962200162,-0.022491452467069028,-0.003058072396367788
1772565877403025000,1.19102490234375,-0.007620996397733688,-0.016473142025619746,-0.013560295919375494
1772565877412957000,1.20095703125,0.010934650990366935,-0.011060158799868077,-0.007291490448731929
1772565877422889000,1.210888916015625,0.0007563713252544403,-0.011998316432815044,0.004439297621697187
1772565877432820000,1.220820068359375,-0.013465630772709845,-0.017262922430131583,-0.01985492081786506
1772565877442752000,1.230751953125,-0.018556231909990308,-0.014879954550042748,-0.020449041652958837
1772565877452683000,1.24068310546875,-0.03561608778238296,-0.02913103661201894,-0.0039057296011131256
1772565877462615000,1.250614990234375,-0.03307224851846695,-0.027363734678551552,-0.014928972190385683
1772565877472545800,1.2605458984375,-0.018704115948081017,-0.016673907028418034,-0.012952712814509867
1772565877482477800,1.270477783203125,-0.034866146197915074,-0.022956311766151337,-0.009166828467091544
1772565877492409000,1.2804091796875,-0.012870002967119216,-0.0058090333386324345,-0.008892660301364957
1772565877502341000,1.290341064453125,0.0013444003462791442,-0.005546400347072631,0.004629943089280277
1772565877512273000,1.30027294921875,-0.010033318236470221,-0.008298219805862754,-0.0011037325913552194
1772565877522204000,1.310203857421875,-0.022005495581030845,-0.003256736773625016,-0.014856628473382443
1772565877532136000,1.320135986328125,-0.03083352968096733,-0.020024258635938166,-0.011004811883438378
1772565877542067000,1.33006689453125,-0.015124503895640372,-0.02027384948283434,-0.017433548022992906
1772565877551999000,1.3399990234375,-0.01931611036658287,-0.01129464340917766,-0.012092250927118584
1772565877561930000,1.349929931640625,-0.01946340988278389,-0.012145597682707012,-0.007302349769463762
1772565877571862000,1.359862060546875,-0.003450432714819908,0.004835475598741323,-0.01602780027776025
1772565877581792800,1.369792724609375,0.00492868857383728,-0.010292973819654435,-0.0022378237883560357
1772565877591724800,1.379724853515625,0.011513327661156654,-0.006077201021835207,-0.011892791965417563
1772565877601656800,1.38965673828125,-0.006148585757613182,-0.006842394974362105,-0.013535106679191812
1772565877611588000,1.399588134765625,-0.014683189868927,-0.015844342602789403,-0.01383804428167641
1772565877621520100,1.40952001953125,-0.002720364874601364,-0.00906151406224817,-0.019991945535223928
1772565877631451000,1.419450927734375,-0.014095160847902298,-0.009867916807997971,-0.0039610308517701925
1772565877641383000,1.4293828125,-0.0009288052827119827,-0.02040786939235404,-0.005574219935759902
1772565877651314000,1.43931396484375,-0.0013806407034397125,-0.009441087964363395,-0.019183752691186964
1772565877661246000,1.449245849609375,-0.01649754581451416,-0.015025683163665234,-0.003593613178329542
1772565877671177000,1.459177001953125,0.003251110750436783,-0.011983064064756035,-0.01446657884302549
1772565877681109000,1.46910888671875,-0.010368249279260635,-0.008390629063360392,-0.011018520748382433
1772565877691041000,1.479041015625,-0.02817921577990055,-0.016390066852048038,-0.0123710039364174
1772565877700971800,1.4889716796875,-0.03491407699286937,-0.018735424401797353,-0.01519685674579814
1772565877710903800,1.49890380859375,-0.036409283986687656,-0.023862996548600492,-0.001361424546316266
1772565877720835000,1.5088349609375,-0.01710661762356758,-0.011077986717503516,-0.009182975884294137
1772565877730767000,1.51876708984375,-0.013218962535262106,-0.006263060716446489,-0.0069337173864711076
1772565877740697900,1.52869775390625,-0.012471359038352966,-0.01720152936540544,-0.006335377033986151
1772565877750630000,1.5386298828125,-0.010672785183787345,-0.0026628442673943937,-0.006651466378988698
1772565877760561000,1.548560791015625,-0.009925766208767891,-0.010879212742391974,-0.0042410807690117505
1772565877770493000,1.558492919921875,0.0017447978407144546,-0.021934202176798135,-0.005248613843740895
1772565877780424000,1.568423828125,-0.012774725899100304,-0.007641637326963245,-0.012814445988135411
1772565877790356000,1.57835595703125,-0.04135784630477428,-0.020941884937509894,-0.0064142966222483664
1772565877800288000,1.5882880859375,-0.02280161439478397,-0.02515696361558512,-0.021748114153323693
1772565877810219000,1.598218994140625,-0.006641922232508659,0.000656125821173191,-0.019488745253439993
1772565877820150800,1.60815087890625,-0.016665888118743897,-0.014379037556890397,0.004049649850139394
1772565877830082000,1.61808203125,0.012666004827618598,-0.017378182840254157,-0.011062359890108927
1772565877840014000,1.62801416015625,-0.006339139893651008,-0.004080401181429624,-0.0033519681758712974
1772565877849944800,1.63794482421875,-0.011283026036620139,-0.012169453482329845,-0.005905643847212195
1772565877859876900,1.647876953125,0.009214987590909003,-0.008231072853785007,-0.006232446382474154
1772565877869807900,1.657807861328125,-0.03013853315412998,-0.01542922246325761,0.00162423106781207
1772565877879740000,1.667739990234375,-0.02924479918479919,-0.011761438937019556,-0.004150936533836648
1772565877889672000,1.677671875,-0.004558686217665672,-0.001761785508133471,0.0011095869434066116
1772565877899603000,1.68760302734375,-0.025958617120981214,-0.011183602516446262,0.00294129588259384
1772565877909535000,1.697534912109375,-0.01578501363098621,-0.00970109060741961,-0.016805954176560042
1772565877919466000,1.707466064453125,-0.019672668719291686,-0.01863238415243104,-0.009245930718444288
1772565877929398000,1.71739794921875,-0.028500118297338485,-0.02294135165903717,-0.0045753359583672135
1772565877939329000,1.7273291015625,-0.013536357921361923,-0.005799735787324607,-0.01978169118487276
1772565877949261000,1.737260986328125,-0.025356559574604032,-0.01674010413242504,-0.002672461479110643
1772565877959192000,1.747192138671875,-0.02670563609600067,-0.018908643810544162,-0.0049868119692429895
1772565877969123800,1.757123779296875,-0.017725626304745674,-0.004576641999464482,-0.006860944411205127
1772565877979055900,1.767055908203125,-0.014434183543920516,-0.01148137988662347,0.0019799126376863567
1772565877988987000,1.77698681640625,-0.01100070196390152,-0.005675871945638209,0.0014496873516589403
1772565877998919000,1.7869189453125,-0.01085515601336956,-0.00002772825714200735,-0.004551050900481641
1772565878008850000,1.796849853515625,-0.015049100571870803,-0.008968611614406109,0.003274537291796878
1772565878018782000,1.806781982421875,0.004402618873119354,-0.003776979521755129,-0.007188742460310459
1772565878028713000,1.816712890625,-0.015054361268877983,-0.01585195965366438,0.0012557174158282576
1772565878038645000,1.82664501953125,-0.0048860184758901595,-0.019947905464097856,-0.012328964026132597
1772565878048576000,1.836575927734375,-0.009677344405651092,0.000729008394293487,-0.010993450239207595
1772565878058508000,1.846508056640625,-0.01656593487560749,-0.0202695386338979,0.0031205066407099364
1772565878068440000,1.856440185546875,-0.009089315384626389,-0.008992175153084099,-0.0074985573281534015
1772565878078371000,1.86637109375,-0.023605916514992713,-0.007271214845683425,-0.006730632562423125
1772565878088302800,1.876302734375,-0.01492985810637474,-0.012536460163816808,-0.013877609107084571
1772565878098233900,1.88623388671875,-0.0001204115092754364,-0.01562459890488535,-0.00530677377176471
1772565878108166000,1.896165771484375,-0.01149345391690731,-0.012798417301941662,0.0025089506136253474
1772565878118097000,1.906096923828125,-0.010153145223855973,-0.01410604756809771,-0.010920202339906244
1772565878128029000,1.91602880859375,-0.022127076134085655,-0.012437548100296408,-0.005795936395041644
1772565878137960000,1.9259599609375,-0.0346995574593544,-0.020203816453926264,-0.006270887829875573
1772565878147892000,1.93589208984375,-0.024374562799930572,-0.00005498159024864435,-0.024008880425849928
1772565878157824000,1.945823974609375,-0.013448679637908936,0.0003510419273748994,-0.021414050760213285
1772565878167755000,1.955755126953125,0.018579612785577772,-0.0075839523229748,-0.010608085917122662
1772565878177687000,1.96568701171875,0.0031663550764322278,0.001105403958633542,-0.0013869243137538433
1772565878187618000,1.9756181640625,-0.04247428311407566,-0.007396649589948356,0.024218541121156886
1772565878197550000,1.985550048828125,-0.02931201920211315,-0.01953890453809872,0.01726581764011644
1772565878207480800,1.995480712890625,-0.030363574081659316,-0.00623012656122446,0.0047784664481878274
1772565878217412900,2.005412841796875,-0.03620177871584892,-0.014022789731435477,0.0019191314943134783
1772565878227344100,2.01534423828125,0.012578911066055297,-0.016430216199345885,-0.010047538558067753
1772565878237276000,2.02527587890625,-0.0032861820638179777,-0.012198880506213754,-0.018370034288661553
1772565878247208000,2.0352080078125,-0.02139876185953617,-0.011089731954224406,-0.02540143989594653
1772565878257139000,2.045138916015625,-0.01736030012369156,-0.005640106512513011,-0.0127895581420511
1772565878267071000,2.055071044921875,-0.01960369513630867,-0.012184614518843591,-0.0073804656401276585
1772565878277002000,2.065001953125,0.0004465747237205505,-0.01267391413943842,-0.017626458512898534
1772565878286934000,2.07493408203125,-0.00509293922483921,-0.013504556277301162,-0.0035994035982992497
1772565878296865000,2.084864990234375,-0.02155599824786186,-0.021376568294037133,0.005960260111279785
1772565878306797000,2.094797119140625,-0.01976151604652405,-0.014683171602617949,-0.0023129348511807617
1772565878316728800,2.104728759765625,-0.0336754751086235,-0.012131258630100637,0.002466563643468544
1772565878326659800,2.114659912109375,-0.03457446977496147,-0.01600493999198079,-0.0007533573842607438
1772565878336592000,2.124591796875,-0.007490063494443893,0.0073588931291364125,-0.00956974671217613
1772565878346523100,2.134523193359375,-0.016464228066802023,-0.0017237002537585794,0.00016422325153835117
1772565878356455000,2.144454833984375,0.005533668729662895,-0.0025040917754173275,-0.0023635233941022306
1772565878366385700,2.1543857421875,0.011520341923832892,0.0013392857797443866,0.005105022388277575
1772565878376317700,2.164317626953125,-0.007031798332929611,-0.009044453329592942,0.00153488141708076
1772565878386248700,2.174248779296875,0.002242225968837738,-0.000617200316581875,-0.009821730445558204
1772565878396180700,2.1841806640625,-0.011530278795957565,-0.002674114580079913,0.011429686232004315
1772565878406112800,2.19411279296875,-0.01243453415930271,-0.0010405402951873838,0.010677890617167576
1772565878416043800,2.204043701171875,0.003122515934705734,0.001964523272309452,-0.004864619494834915
1772565878425975800,2.213975830078125,-0.01588496687412262,-0.01214647446554154,0.007391955148521811
1772565878435906600,2.223906494140625,-0.007808627924323082,-0.008620364432316273,-0.001232144743995741
1772565878445838600,2.233838623046875,-0.017084990313649177,-0.00765597637956962,-0.01165081816939637
1772565878455769900,2.243769775390625,-0.028009119910001753,-0.01417909453799948,-0.0088097403914202
1772565878465702000,2.253701904296875,-0.005117489144206047,-0.0058360674760304385,-0.020674402240896596
1772565878475632600,2.263632568359375,-0.012602876463532448,0.00011805515540763735,-0.021957738316012543
1772565878485564700,2.273564697265625,-0.0070697922557592385,-0.012520787670649588,-0.015880573826795443
1772565878495496700,2.28349658203125,0.00206043966114521,0.005504132107924669,-0.01009477523327805
1772565878505427700,2.293427734375,0.0029559271961450573,-0.01011465811068192,-0.00023052082024514674
1772565878515359700,2.30335986328125,-0.004082885399460792,-0.0001457286136224866,0.00208140025078319
1772565878525290800,2.313290771484375,-0.009172317492961882,-0.0009661233521066605,0.007693805905617773
1772565878535222800,2.323222900390625,-0.03101823859810829,-0.0177916224793531,0.003208860777597874
1772565878545153800,2.33315380859375,-0.026831308302283287,-0.0014804112834855914,0.012394485276704654
1772565878555085600,2.34308544921875,-0.013370353704690932,-0.004001052334904671,0.0089170732234139
1772565878565016800,2.353016845703125,-0.003802314892411232,-0.015519732024613767,-0.013869818526273593
1772565878574948900,2.362948974609375,-0.014576222363114356,0.006563778962381184,-0.009170828788774087
1772565878584881000,2.372880859375,-0.03388414942324161,-0.014828388759586959,0.0017226316746789961
1772565878594811600,2.382811767578125,-0.028648586857318876,-0.017691267377417535,-0.016215934127848594
1772565878604743700,2.39274365234375,-0.03837152397036552,-0.008081106456462293,-0.02664220633781515
1772565878614674700,2.4026748046875,-0.04091010253727436,-0.025446776875015346,-0.0043477742801886045
1772565878624606700,2.412606689453125,-0.016363105779886245,-0.008457465488184242,-0.002633919567009434
1772565878634537700,2.422537841796875,-0.020551789641380307,-0.013051917138975112,-0.01830573688079603
1772565878644469800,2.4324697265625,-0.030423195314407347,-0.020979696197248994,-0.0030203707344830036
1772565878654401800,2.44240185546875,-0.06438567067086697,-0.010618936104699968,-0.012460874176956712
1772565878664332500,2.45233251953125,-0.05794365492463111,-0.023079883346892892,0.007680444100545719
1772565878674264600,2.4622646484375,0.036784547039866444,-0.023743059963360427,-0.016890435855928806
1772565878684195800,2.47219580078125,-0.04102116169631481,-0.002181198230292648,-0.023851552705978975
1772565878694127900,2.4821279296875,0.027818565773963928,-0.004889690004009753,0.002605442391196266
1772565878704058600,2.49205859375,0.04203881430625915,0.004138177516963333,-0.0032206242806278166
1772565878713990700,2.50199072265625,-0.003301379632949829,0.0005923946688883006,-0.0007098013703245669
1772565878723921700,2.511921630859375,0.005233224478363991,0.005330711769778281,0.003121940545970574
1772565878733853700,2.521853759765625,0.035465865656733514,0.011547138599213212,0.009742564262123778
1772565878743785700,2.53178564453125,0.02049859814941883,-0.007372464996762573,0.02134727826747112
1772565878753716700,2.541716796875,0.0255845231115818,0.013429445214476435,0.025490524685196577
1772565878763648800,2.551648681640625,0.029169395861029623,-0.0048687385475262995,0.01780756896715611
1772565878773579800,2.561579833984375,-0.017526304340362547,-0.011407255204487592,0.000005662555806338787
1772565878783511600,2.571511474609375,-0.03922843306064606,0.005762271587457507,0.0052626515022479
1772565878793442800,2.58144287109375,-0.058384968951344485,-0.019370945826359093,-0.005011106160283088
1772565878803374800,2.591374755859375,-0.028012627041339874,-0.02239823949197307,-0.026005497603164986
1772565878813305900,2.601305908203125,-0.017541501909494397,-0.015099095459748059,-0.0347216688264627
1772565878823237600,2.611237548828125,-0.026223405537009237,-0.0165801825966686,-0.014513879450317471
1772565878833169700,2.621169677734375,-0.000789104551076889,-0.013252408147137611,-0.01772477692137472
1772565878843100700,2.6311005859375,0.0017518121033906935,-0.0018331519776023924,-0.01521829225947149
1772565878853032700,2.64103271484375,-0.02473112115263939,-0.0035260552342981097,-0.005925152265280485
1772565878862963700,2.650963623046875,-0.024279870253801343,0.0020398169982247054,0.0016978260269854216
1772565878872895700,2.660895751953125,-0.03086392481923103,-0.014833284130413084,0.005976014802837744
1772565878882826800,2.67082666015625,-0.03191255708932876,-0.014937584755104033,-0.012980559802660718
1772565878892758800,2.6807587890625,-0.030558804392814633,-0.015377346145547926,-0.013120224001677706
1772565878902689800,2.690689697265625,-0.031902620217204095,-0.016206965370103715,0.0002222553153987974
1772565878912621800,2.700621826171875,-0.016934183666110037,-0.00239595522582531,-0.0081111910674721
1772565878922553900,2.710553955078125,-0.006309913799166679,-0.010648381394892931,-0.010682749455375597
1772565878932484600,2.720484619140625,0.0005728314518928528,-0.00918241876186803,-0.004664283750299364
1772565878942416600,2.730416748046875,0.011795067211985588,0.0036781587897799905,-0.015983696274552494
1772565878952347600,2.74034765625,-0.004514262554049492,-0.007923559540882707,-0.0028458818172570318
1772565878962279700,2.75027978515625,-0.007059270861744881,-0.023432423111610114,-0.0005981485562399029
1772565878972210700,2.760210693359375,-0.021124036571383474,-0.01011290454501286,0.006962404624838382
1772565878982142700,2.770142822265625,-0.02142448082268238,-0.01111088434010744,0.006234072083979845
1772565878992074800,2.78007470703125,-0.019180501288175583,-0.005466430446039885,-0.011206490201689302
1772565879002005800,2.790005859375,-0.022318214792013166,-0.009063632954098283,0.0006135287884622812
1772565879011937800,2.799937744140625,-0.0024146599262952805,-0.012603406186494975,0.006310827114619315
1772565879021868800,2.809868896484375,0.011651859349012373,0.004644464804977179,-0.0085390336912591
1772565879031800800,2.81980078125,0.0016273089408874511,-0.003828490513283759,-0.000935463352361694
1772565879041731800,2.82973193359375,-0.0024187515795230864,-0.011646653450932354,-0.005504753162432462
1772565879051663600,2.83966357421875,-0.023068740898370743,-0.0056258039925247425,-0.004969194114161655
1772565879061595600,2.849595703125,-0.039077626413106914,-0.020059841405972837,-0.0060832197706680744
1772565879071526700,2.859526611328125,-0.038327684828639026,-0.019570505252759902,-0.009325434828596189
1772565879081458700,2.869458740234375,-0.02724807240962982,-0.009623239598236978,0.004538638943480327
1772565879091389700,2.8793896484375,-0.012280220380425453,-0.009096457511465997,-0.0017827826303895562
1772565879101321700,2.88932177734375,-0.0004582651615142822,-0.0027247305224649605,-0.001292195235006511
1772565879111252700,2.899252685546875,-0.013920973324775696,0.001999558053072542,0.0041504707429558035
1772565879121184800,2.909184814453125,0.0059808279752731315,0.0010664419214241206,-0.0022402988732326775
1772565879131115800,2.91911572265625,-0.02259820077717304,0.002020582574792206,0.0007466993146110325
1772565879141047800,2.9290478515625,-0.03307166399657726,-0.013033559498377143,0.0009125939334277063
1772565879150979800,2.938979736328125,-0.026333295652270317,-0.005249536292348056,-0.007296842477284371
1772565879160910800,2.948910888671875,-0.025282325294613838,-0.0024364881656132637,0.0024988584778737276
1772565879170842600,2.958842529296875,-0.00687456194460392,-0.009638126640114932,0.003135868606623262
1772565879180773600,2.968773681640625,-0.007615151178836822,-0.0049110981182195245,0.0018323482600040733
1772565879190705700,2.97870556640625,-0.010005845707654953,-0.00953130526477471,0.013818453665217384
1772565879200636700,2.98863671875,0.002112462109327316,0.00574966783421114,-0.0019428776960819958
1772565879210568700,2.998568603515625,0.00794423700273037,0.0007500877149403095,-0.003774550102651119
1772565879220500700,3.008500732421875,0.0003086275577545166,-0.009816661544796079,0.0005778729531913995
1772565879230431700,3.018431640625,-0.015108721804618835,-0.0025234723293222484,-0.010176014642789959
1772565879240363800,3.02836376953125,-0.02318915240764618,-0.0005112191914580762,0.0017120828812010585
1772565879250294800,3.038294677734375,-0.00822656107544899,-0.00960212374497205,-0.004079816659539937
1772565879260226800,3.048226806640625,-0.011824877828359602,-0.0004237235710956156,-0.007187829144857823
1772565879270157800,3.05815771484375,-0.03247486714720726,-0.008749580302555113,-0.006190963594615459
1772565879280089900,3.06808984375,-0.01362228263914585,-0.006152293818350881,-0.00810768393613398
1772565879290020600,3.0780205078125,-0.011830138525366782,-0.0015355024715885519,-0.00971142933834344
1772565879299952600,3.08795263671875,-0.014077040669322013,-0.004281312314700335,0.00703618224710226
1772565879309884700,3.097884765625,-0.008992284750938415,-0.004284600250329822,0.0006036832478828728
1772565879319815700,3.107815673828125,-0.038171032962203026,-0.019432594619411974,-0.0012490319467149673
1772565879329747700,3.117747802734375,-0.03696691786944866,-0.012769611332565545,-0.005952140736905857
1772565879339678700,3.1276787109375,-0.042351533517241476,-0.009004450112767516,-0.00683942669914104
1772565879349610800,3.13761083984375,-0.028431144714355466,-0.013128946164250373,0.0013947514271829276
1772565879359541800,3.147541748046875,-0.016907880181074142,-0.00571806711954996,-0.016698146420530975
1772565879369474000,3.15747412109375,-0.010917699855566024,0.0009645524495281279,-0.00001115158167667687
1772565879379406300,3.16740625,-0.0032832594543695448,-0.0016036906032823024,0.011655329947732388
1772565879389337300,3.17733740234375,0.005092354702949524,0.009957787048537283,0.007340699885319918
1772565879399269000,3.18726904296875,-0.0009007482320070266,-0.00031094737900421023,0.012171033518062905
1772565879409200000,3.1972001953125,-0.01721767678260803,-0.009501622512564062,-0.0014743651351891457
1772565879419132200,3.207132080078125,-0.03218845142126083,0.0027407500755041838,0.005528079239092767
1772565879429063200,3.217063232421875,-0.01647884111404419,-0.008472242932207882,0.003817978252423927
1772565879438995200,3.2269951171875,-0.005106383228302001,0.002081628579646349,-0.005929727975698187
1772565879448926200,3.23692626953125,-0.009448796346783637,-0.004253565791249275,0.003116661582654342
1772565879458858200,3.246858154296875,-0.0057113633841276166,-0.010231690352782607,-0.0013430669057182968
1772565879468790300,3.256790283203125,-0.006313420930504798,0.005029354203026741,-0.005335314879659563
1772565879478721000,3.266720947265625,-0.015596797582507132,-0.010626315693557261,0.009578916399320587
1772565879488653000,3.276653076171875,-0.01829261253774166,-0.007193692630063742,-0.008345447347918524
1772565879498584300,3.286584228515625,-0.012458499556779861,-0.005079458688758314,-0.006310242592729627
1772565879508516400,3.296516357421875,-0.015306874725222587,-0.00034673107843846083,0.005708733035624027
1772565879518447000,3.306447021484375,-0.011869301491975784,0.0013452040638774632,-0.011258823177125303
1772565879528379100,3.316379150390625,-0.02608779645860195,0.004614690721221268,-0.000494185858266428
1772565879538311200,3.326311279296875,-0.02085807911157608,-0.007931231390684843,-0.001960970475198701
1772565879548242200,3.3362421875,-0.010686229187250137,-0.0016350355896167456,-0.0009930296253412962
1772565879558174200,3.34617431640625,-0.025656419304013252,-0.006497088668029755,0.0010792557372245938
1772565879568105200,3.356105224609375,-0.014440613284707068,-0.001562006886024028,-0.007920563866198063
1772565879578037200,3.366037353515625,-0.014594927063584328,-0.0013589768609032033,-0.006167418322246521
1772565879587968000,3.375968017578125,-0.02896656676530838,-0.009594415362551808,0.0018564963205717504
1772565879597900000,3.385900146484375,-0.013109656941890716,-0.008459858374670148,-0.007317465140204876
1772565879607832300,3.395832275390625,-0.021194179198145865,0.002372610882855952,0.004237847632309421
1772565879617763300,3.405763427734375,-0.029430677145719526,-0.00319006474558264,-0.004755240836227312
1772565879627695000,3.415695068359375,-0.027635610422492025,-0.007205784926656633,-0.009315634953789412
1772565879637626000,3.425626220703125,-0.0312269129127264,-0.010805106326565147,-0.0007930044080596417
1772565879647558100,3.43555810546875,-0.01132569613456726,-0.0026255261979997156,-0.005156962638068944
1772565879657489400,3.445489501953125,-0.005340776506066322,0.006911094562709331,0.0036137152514420447
1772565879667421200,3.455421142578125,-0.01835924803316593,-0.005416490357089788,0.0017350436316803098
1772565879677352200,3.465352294921875,-0.005642974323034286,0.007578947354294359,-0.004482725771469995
1772565879687284200,3.4752841796875,-0.0063946694731712335,-0.004977112559136003,0.00857073487062007
1772565879697216300,3.48521630859375,-0.01732230620086193,-0.0024117921157740057,-0.00029273586887866256
1772565879707147000,3.49514697265625,-0.012088497200608252,0.0006277765095233917,-0.00613389051198028
1772565879717079000,3.5050791015625,-0.01358662680387497,-0.006425576068088412,0.002670589182432741
1772565879727010300,3.51501025390625,0.0006266074657440185,-0.0015271365020424128,-0.001500074965180829
1772565879736942300,3.5249423828125,-0.004011573728919029,-0.0012493972728960215,0.006260457767406478
1772565879746873000,3.534873046875,-0.005811316627264022,-0.008624072493053973,0.01521596330506727
1772565879756805000,3.54480517578125,-0.006712649381160736,0.0005254121135920286,0.008388574103591962
1772565879766737200,3.554737060546875,-0.016893267133831977,-0.004501877996511757,0.0071184263036120675
1772565879776668400,3.56466845703125,-0.005523731857538223,-0.007984185420628637,0.004342120857536792
1772565879786600200,3.57460009765625,-0.00971884545981884,-0.004050006043165922,-0.00196613070750609
1772565879796531200,3.58453125,-0.03426408865153789,-0.017487470167316495,0.00020387027533724902
1772565879806463200,3.594463134765625,-0.02618891874551773,-0.013709212003927678,-0.009100247770594433
1772565879816394000,3.60439404296875,-0.04055588227212429,-0.007283069680258631,-0.00612893120907247
1772565879826326000,3.614325927734375,-0.029032617738842963,-0.001994023361429572,-0.0032811588288284834
1772565879836258000,3.624258056640625,-0.012573650369048117,-0.0022443083280697463,-0.010307066277088597
1772565879846189300,3.634189208984375,-0.028287936851382253,-0.012941077175643294,0.005613803027477115
1772565879856121300,3.644121337890625,-0.024847441008687018,-0.00634975261921063,0.002826272934488952
1772565879866052000,3.654052001953125,-0.02365267826616764,-0.0037581469571217893,-0.009183788735046982
1772565879875984100,3.663984130859375,-0.04026186776161193,-0.016476247298158705,-0.0014684742505196482
1772565879885915400,3.673915283203125,-0.02963525980710983,-0.01101347011392936,-0.011821032770304008
1772565879895847200,3.68384716796875,-0.027386604097485542,-0.011685889482777566,-0.009580140242027118
1772565879905778200,3.693778076171875,-0.03306815686523914,-0.015487382391281425,-0.0047996827661525455
1772565879915710200,3.703710205078125,-0.01765080750286579,0.0017925277062691748,-0.006322992476448417
1772565879925642200,3.713642333984375,-0.01974222682416439,0.0006663366879336535,-0.0006282696998678147
1772565879935573000,3.723572998046875,-0.015098784932494162,-0.007623005691729486,0.00009473821190185845
1772565879945505000,3.733505126953125,-0.005965045884251594,0.0026165939728729423,0.007793119827937334
1772565879955436300,3.743436279296875,-0.014938625934720038,-0.011243844803702085,0.013140846664598211
1772565879965368300,3.753368408203125,-0.0017687632381916045,0.00009746902510523795,0.006368603450153023
1772565879975299000,3.763299072265625,0.00003039513826370239,0.00815223546391353,0.0030663379012141373
1772565879985231000,3.773231201171875,-0.005210428124666214,0.007618914038501679,0.0025736133476719257
1772565879995163100,3.7831630859375,0.005713116949796676,0.011674619170092045,0.018758540415903552
1772565880005094400,3.793094482421875,0.001970423290133476,0.003395871249679476,0.014103809945238754
1772565880015026200,3.803026123046875,0.012139935126900672,0.0023759718837216494,-0.0011312507859431206
1772565880024957200,3.812957275390625,0.015576923838257789,0.0068724065201357,0.006452135281451046
1772565880034889200,3.82288916015625,0.008983516922593117,0.00808033927148208,0.019541452688211575
1772565880044820200,3.8328203125,0.016605682364106176,0.007973189102578907,0.0019414346576668321
1772565880054752000,3.842751953125,-0.0037526305317878723,-0.00015614040978252888,0.003628337431838736
1772565880064684000,3.85268408203125,-0.022013678887486458,-0.007306870680954307,0.008671117372019217
1772565880074615300,3.862615234375,-0.014088146585226058,0.0018156345872208475,0.00016306334091350434
1772565880084547300,3.87254736328125,-0.013197335225343703,-0.0028167013885453344,0.0036637375387828797
1772565880094478000,3.88247802734375,-0.013205518531799316,0.000402899978775531,-0.007771803045272827
1772565880104410000,3.89241015625,0.0011485855132341385,-0.0003350406406447291,0.003053304889705032
1772565880114341400,3.90234130859375,-0.0024538228929042814,-0.007494301278144121,0.00786114356284961
1772565880124273400,3.9122734375,-0.005308043280243873,-0.00044166108658537265,-0.011299694043630733
1772565880134204200,3.9222041015625,-0.012948328900337218,-0.003578369943425059,0.0016036358043551445
1772565880144136200,3.93213623046875,-0.031215806996822356,-0.009977222401369362,-0.006435056282486766
1772565880154068200,3.942068115234375,-0.031825463327765466,-0.006221066471934318,-0.0059239466888830064
1772565880163999000,3.9519990234375,-0.03407353451550007,-0.018364399132318795,-0.008105236250720918
1772565880173931000,3.961930908203125,-0.02824585127532482,-0.019604882446397093,0.004383083055587485
1772565880183862300,3.9718623046875,-0.03708323772549629,-0.0006823197083547711,0.00437575826565735
1772565880193794300,3.981794189453125,-0.024221418064832686,-0.022260365391243247,-0.0004183898088522255
1772565880203725000,3.99172509765625,-0.03649813131392002,-0.012347075071558355,-0.01276133669456467
1772565880213657000,4.001656982421875,-0.038595395854115484,-0.007823788960836827,0.003032499563694
1772565880223589000,4.011589111328125,-0.03291150499880314,-0.014199260543193667,-0.006097796285292134
1772565880233520400,4.021520263671875,-0.02198912896811962,-0.004326411831751466,-0.01181328785526566
1772565880243452400,4.031452392578125,-0.0314186360925436,-0.0019943156223744154,0.006931516296230256
1772565880253383200,4.041383056640625,-0.009122633132338524,0.0010124284455552697,0.0017371807898394762
1772565880263315200,4.051315185546875,-0.018102058401703834,0.0001749364417977631,-0.001970651618996635
1772565880273246200,4.06124609375,-0.018702362382411956,-0.007117028930969536,0.0013638904980383813
1772565880283178000,4.071177978515625,0.00509293922483921,0.007706099131610244,0.007532377399364486
1772565880293110000,4.081110107421875,0.003895253872871399,0.006930822176486253,0.007763601472508162
1772565880303041300,4.091041259765625,0.0014975450813770293,0.005061959564685821,0.0071466568842530245
1772565880312973300,4.100973388671875,0.014661562559008598,0.01509167933827266,0.00650626748832874
1772565880322904000,4.110904052734375,-0.003599485796689987,0.007416486801579594,0.010022312785265967
1772565880332836000,4.120836181640625,0.007613397613167762,0.008697155995573847,0.007823113107401877
1772565880342767400,4.130767333984375,0.0037128830432891845,0.006220080091245472,0.017425035922974348
1772565880352699400,4.140699462890625,-0.011710311537981032,-0.0006059848028235137,0.010962927236780523
1772565880362630400,4.15063037109375,-0.010522563058137892,0.009679006639774888,-0.001757209797715768
1772565880372561200,4.16056103515625,-0.020856910067796705,-0.00894884746801108,-0.008172182273399085
1772565880382493200,4.1704931640625,-0.01802197890281677,-0.015660601800028234,-0.0035392069768160578
1772565880392424400,4.180424560546875,-0.013092705807089804,-0.0048059937759302555,-0.006677285806834697
1772565880402356500,4.1903564453125,-0.0160948102325201,-0.004207735621836036,0.004185651654191315
1772565880412287200,4.200287353515625,-0.02658054841160774,-0.0062251946577802295,-0.005342493539117276
1772565880422219300,4.21021923828125,-0.03033025633394718,-0.008061963364575058,-0.0025681882538832724
1772565880432150300,4.220150390625,-0.02420388240814209,-0.014563801272958516,-0.015050050419941544
1772565880442082300,4.230082275390625,-0.009546411502361298,-0.003430759899970144,-0.011880681402515619
1772565880452014000,4.24001416015625,-0.029604280146956444,-0.006611380963772535,-0.010467289206944405
1772565880461945300,4.2499453125,-0.0275146143913269,-0.016371617879904807,0.0018718582864850758
1772565880471877400,4.25987744140625,-0.020038579422235487,0.00003101619277149439,0.00612953399727121
1772565880481808400,4.269808349609375,-0.020489245799183844,-0.005533668729662895,0.013291205787565558
1772565880491740200,4.279740234375,-0.014657470905780791,-0.009830854466930031,-0.00656078328769654
1772565880501671400,4.28967138671875,-0.02349193474650383,0.0010783698212355375,0.0009441489823162555
1772565880511603500,4.299603515625,-0.01676467231810093,-0.015072390115913003,0.0047569304698146875
1772565880521535500,4.309535400390625,-0.014376315876841544,-0.0018988558912649749,-0.006869520443305373
1772565880531466200,4.31946630859375,-0.022460253611207008,-0.005968187689408659,-0.00019636282231658695
1772565880541398300,4.329398193359375,-0.015433715975284576,-0.006704813134577125,-0.003922909064777195
1772565880551329300,4.339329345703125,0.0004249474138021469,0.00027068843385204673,-0.003989946419000625
1772565880561261300,4.34926123046875,-0.01200023439526558,-0.010202171997353434,0.00197740102019161
1772565880571192300,4.3591923828125,-0.007968202400207519,-0.005836779862083494,0.0015122311938554048
1772565880581124400,4.369124267578125,-0.020244915649294853,-0.0036482751081697642,-0.0030051366327330468
1772565880591056400,4.379056396484375,-0.021895605465769765,-0.007049206125456839,-0.009225983908958733
1772565880600987400,4.3889873046875,-0.014713585007190704,0.00640497167147696,-0.006030895928386598
1772565880610919200,4.398919189453125,-0.015763970842957494,-0.0027323293070308863,0.00848782409382984
1772565880620850400,4.408850341796875,0.00024549919366836546,-0.0009740509302355348,-0.004826378976833075
1772565880630782500,4.418782470703125,0.0005424363136291504,-0.002689768806938082,-0.00010188947189599275
1772565880640713200,4.428713134765625,-0.013975333860516548,-0.01130388616155833,0.00746377827571705
1772565880650645200,4.438645263671875,-0.018918050959706306,-0.0021939663803204894,-0.008857662053219974
1772565880660577300,4.448577392578125,-0.0287999780267477,-0.003932005686685443,-0.004729823267180472
1772565880670508300,4.45850830078125,-0.007999766582250595,-0.008160254373587668,-0.00828948851013556
1772565880680440300,4.4684404296875,-0.0048608840346336364,0.0015946305139921606,-0.012328772229887545
1772565880690371300,4.478371337890625,-0.0129448217689991,-0.011362247018981725,0.008272756571043283
1772565880700303400,4.488303466796875,-0.016092472144961355,-0.007836776306573302,0.00013559081209823487
1772565880710234400,4.498234375,-0.02343172899186611,0.00001810191227123141,0.002082121769990772
1772565880720166100,4.508166259765625,-0.022086159601807594,-0.009893745368998497,0.009166563605610282
1772565880730098200,4.51809814453125,-0.002788753935694694,0.00234714764803648,-0.0030459435671567913
1772565880740029400,4.528029541015625,-0.019099252745509148,0.0012521737518720328,0.0034042006866075096
1772565880749961500,4.53796142578125,-0.006086626437306404,-0.0076947192210704085,0.00356359249940142
1772565880759892200,4.547892333984375,-0.002799275329709053,0.002384447451122105,-0.003419745315611362
1772565880769824300,4.55782421875,-0.020906594428420064,-0.00016934695122763514,0.008151011621206999
1772565880779755300,4.56775537109375,-0.029439444974064824,-0.006192004774231463,-0.0008955606002360582
1772565880789687300,4.577687255859375,-0.02570142748951912,-0.005716404885426163,-0.0013492409181781113
1772565880799619300,4.587619384765625,-0.029141338810324668,-0.0250569373072125,0.0033823176483623683
1772565880809550300,4.59755029296875,-0.010434884774684905,-0.004628481784556061,-0.014585848707985133
1772565880819482400,4.607482421875,-0.017313538372516632,-0.0025832396925427018,0.0029791436749510465
1772565880829413400,4.617413330078125,-0.010130348870158195,-0.013082440141402184,0.0017880889931693672
1772565880839345200,4.62734521484375,-0.0044482115805149075,0.004435516495723277,-0.008201755427755414
1772565880849276400,4.6372763671875,-0.011631401082873343,-0.00771775303678587,0.007851864277850836
1772565880859208400,4.64720849609375,-0.004601940837502479,0.00005786766707897186,-0.003803155142627656
1772565880869140500,4.657140380859375,-0.01073532902598381,0.00043017157819122073,-0.004250387453474104
1772565880879071200,4.6670712890625,-0.010890227326750756,-0.013379888718016444,0.004280234602466225
1772565880889003300,4.677003173828125,0.0001835398733615875,0.008385331833735108,0.001366082455124706
1772565880898934300,4.686934326171875,-0.005056114345788955,0.0038424277070909737,0.004649195779021829
1772565880908866300,4.6968662109375,-0.0017687632381916045,-0.0021612879534251986,0.0022267361387610434
1772565880918797300,4.70679736328125,-0.011944704815745354,-0.0016808109601028263,-0.0074428268192335955
1772565880928729300,4.716729248046875,-0.014638181683421134,-0.009738664405141026,-0.005090290610026568
1772565880938661400,4.726661376953125,-0.018380875343084333,-0.0053771264610812065,0.0000960259866900742
1772565880948592400,4.73659228515625,-0.016286533412337302,-0.006139635266177356,0.002994268178846687
1772565880958524200,4.746524169921875,-0.031250293788313864,-0.009379092111438512,0.002297773814667016
1772565880968455400,4.756455322265625,-0.022722119417786596,-0.002234079195000231,-0.007126746607385576
1772565880978387500,4.766387451171875,-0.036488194441795345,-0.014780202236305922,0.0013285634563304483
1772565880988318200,4.776318115234375,-0.02212298448085785,-0.013946600956376641,-0.0047145708991214634
1772565880998250200,4.786250244140625,-0.01867956602871418,-0.0009929382937960327,-0.009832516701053827
1772565881008182300,4.796182373046875,-0.022416998991370198,-0.008582790634594857,0.0020345380349084735
1772565881018113300,4.80611328125,-0.01882277389168739,-0.003248790929187089,-0.014507358377985655
1772565881028045300,4.81604541015625,-0.02405658289194107,-0.006605152152385562,-0.008981124036107211
1772565881037976300,4.825976318359375,-0.0315320333391428,-0.013700261512491851,-0.004956051504798233
1772565881047908400,4.835908447265625,-0.008031915286183357,0.0026805443208664653,-0.010489354908280074
1772565881057839400,4.84583935546875,-0.016706804651021957,-0.009881086816824971,0.0009173888395540416
1772565881067771400,4.855771484375,-0.004729366609454154,-0.007056147322896868,-0.010622169241402298
1772565881077703200,4.865703125,0.00485328525006771,0.006744085699040442,0.004317041215207427
1772565881087634400,4.875634521484375,-0.0021826047360897064,0.004760821193642914,0.00524321614941582
1772565881097566500,4.88556640625,-0.0032329905718564986,-0.007127988716401159,-0.004227408436685801
1772565881107497200,4.895497314453125,-0.01655073730647564,0.003852090584579855,0.0019689071864821017
1772565881117429200,4.90542919921875,-0.02523088736832142,-0.007438844763860106,0.0023942199264653024
1772565881127360300,4.9153603515625,-0.008767828345298767,-0.0028584764373488724,0.0051617301447317
1772565881137292300,4.925292236328125,-0.00981295348405838,-0.007092186750657856,0.007929112498834729
1772565881147223300,4.935223388671875,-0.008170446974039076,-0.004681563678663223,0.006158650493901223
1772565881157155300,4.9451552734375,-0.007274374917149543,0.009903189050778746,0.003196640616841614
1772565881167087400,4.95508740234375,-0.016099486407637593,0.0027790545255877075,0.01328534230235964
1772565881177018400,4.965018310546875,-0.007277882048487663,0.002325958729535341,0.0043889739402569825
1772565881186950100,4.9749501953125,-0.019551672688126562,-0.0033463878184556957,0.0041053712259046735
1772565881196881400,4.98488134765625,-0.018053543084859847,-0.003351356254518032,0.01147509627630934
1772565881206813400,4.9948134765625,-0.01850654754936695,0.0031136750411242245,0.0016211531947366892
1772565881216744400,5.004744384765625,-0.016263737058639524,-0.005682995806168764,0.009743705906439573
1772565881226676200,5.01467626953125,-0.014922259321808814,-0.008115940307825803,0.009150818047206848
1772565881236608300,5.024608154296875,-0.01702127742767334,-0.012063326226733624,-0.00023605551188811657
1772565881246539300,5.034539306640625,-0.018823942935466766,-0.013943440884910523,-0.002475267539732158
1772565881256471300,5.04447119140625,-0.015685644909739494,-0.009908742008730768,-0.010191796733811497
1772565881266402300,5.05440234375,-0.02526303607225418,-0.01476838393434882,-0.015181312116794287
1772565881276334300,5.064334228515625,-0.027058687317371367,-0.015968681368511168,-0.004710808039456606
1772565881286265300,5.074265380859375,-0.019428338569402695,-0.00902147431280464,-0.005735547977313399
1772565881296197400,5.084197265625,-0.02705985636115074,-0.008464205756224691,0.0071611785999499255
1772565881306129200,5.094129150390625,-0.02242225968837738,-0.007868870211578905,-0.002811860816646367
1772565881316060400,5.104060302734375,-0.014639935249090194,0.0012402275857515631,0.009451828554086387
1772565881325992400,5.113992431640625,-0.025715456014871595,-0.009028178048226981,0.018055150520056486
1772565881335923500,5.12392333984375,0.002264437800645828,-0.0026385135437361896,0.00494827005714178
1772565881345855200,5.133855224609375,-0.015100538498163223,-0.008083371478784828,0.005708513839915394
1772565881355786200,5.1437861328125,-0.013157003214955328,-0.012664178196713328,-0.002193235727958381
1772565881365718800,5.15371875,-0.011661796221137046,0.004486114171799272,-0.012527582737617194
1772565881375650800,5.16365087890625,-0.028572014489769933,-0.007831880935747175,0.004497676745429635
1772565881385582000,5.17358203125,-0.010614917516708374,-0.009318192237056792,-0.002113631153106689
1772565881395514000,5.18351416015625,-0.007771803045272827,0.002730557475052774,0.0015875979850068687
1772565881405444900,5.19344482421875,-0.017346856120228765,-0.0026059995136223733,0.017167882824130357
1772565881415377000,5.203376953125,-0.00447860671877861,0.0048193099152296776,0.01187596869478002
1772565881425308000,5.213307861328125,-0.002390110006928444,0.005180106051638722,0.020546437612827866
1772565881435240000,5.223239990234375,-0.005086509484052658,0.006400843485631048,0.014408811640646307
1772565881445171700,5.233171630859375,-0.01287292557656765,0.0015443250988610088,0.004446841607335955
1772565881455103000,5.24310302734375,-0.02274900742471218,-0.004545662339311093,0.004839421121496707
1772565881465035000,5.253034912109375,-0.012425766330957412,-0.0039563546766527,-0.006732778853736817
1772565881474966000,5.262966064453125,-0.019605448701977727,0.0006072634444572032,0.0026278460192494094
1772565881484897800,5.272897705078125,-0.035465865656733514,-0.006680354546755552,0.00940729529261589
1772565881494829000,5.2828291015625,-0.013770166677236555,-0.009127126644365489,-0.008069763078540564
1772565881504761000,5.292760986328125,-0.0284340673238039,-0.004732928539719432,0.005138696329016238
1772565881514693000,5.302693115234375,-0.026785131072998045,-0.011083521409146486,0.002047799375280738
1772565881524624000,5.312623779296875,-0.026330373042821882,-0.0004668503267690539,0.0028427308789454398
1772565881534556000,5.322555908203125,-0.03126549135744572,-0.006112290601525456,0.008586206434387712
1772565881544487000,5.33248681640625,-0.012855974441766739,0.0028750805122777817,-0.0038924956602044403
1772565881554419000,5.3424189453125,-0.02168459306359291,-0.0001467149943113327,0.004220485505554825
1772565881564350000,5.352349853515625,-0.021534955459833145,-0.007785612374916672,0.0034658494796603917
1772565881574282000,5.362281982421875,-0.004773205751180649,-0.0016987302092835307,0.0023671127238310873
1772565881584214000,5.372214111328125,-0.011805588605999945,-0.0025262670746073125,0.014047065656166523
1772565881594145000,5.38214501953125,-0.037997429960966105,-0.005284808535128831,0.009922587870992719
1772565881604076800,5.392076904296875,0.010339023184776306,-0.010416107008978723,0.00022299510091543196
1772565881614008000,5.402008056640625,-0.019438275441527365,-0.009957586119137704,0.006307794907316565
1772565881623940000,5.411940185546875,-0.022284897044301033,-0.001733162201847881,-0.010836962769553064
1772565881633870800,5.421870849609375,0.01916705728471279,-0.005438537792116403,-0.0007805011195130646
1772565881643803000,5.431802978515625,-0.010910685592889786,-0.014521185973938554,-0.007115348430536687
1772565881653735000,5.44173486328125,-0.017945991057157516,-0.002457951078750193,-0.001505326529033482
1772565881663666000,5.451666015625,-0.015405074402689933,-0.004849412792548537,-0.0019683591972105203
1772565881673598000,5.461597900390625,-0.021994974187016486,-0.017711780442483723,-0.009592917525209486
1772565881683529000,5.471529052734375,-0.021252046865224836,0.002346252598892897,0.005485482206381857
1772565881693461000,5.4814609375,0.0013397241711616515,-0.0014223061543889343,0.02485560604883358
1772565881703392000,5.49139208984375,0.009115618869662284,0.0005360431054607034,0.00586523877158761
1772565881713323800,5.50132373046875,-0.007504676541686057,0.003944719037786126,0.01873378043398261
1772565881723255800,5.511255859375,-0.028767244800925254,-0.006722896780539303,0.01984820794928819
1772565881733187000,5.52118701171875,-0.013662030127644538,0.00003945522755384445,-0.004099160680826753
1772565881743119000,5.531119140625,-0.017561375653743744,0.0007418861421756446,0.019446659677382558
1772565881753049900,5.5410498046875,-0.0017138181805610656,0.015535660246107726,0.023171799414046106
1772565881762982000,5.55098193359375,-0.002329319730401039,0.014916103575658052,0.01897728859996423
1772565881772913000,5.560912841796875,-0.006833060890436172,-0.004486863090470433,0.03464808300044387
1772565881782845000,5.570844970703125,-0.004607201534509659,0.0005328282350674272,0.015845566445495934
1772565881792777000,5.58077685546875,-0.023629297390580176,-0.003286108998581767,-0.0022943580148741603
1772565881802708000,5.5907080078125,-0.011528525230288505,-0.008538841895014047,0.00005390387801453471
1772565881812640000,5.600639892578125,-0.010198737931251525,0.012673128688149153,-0.0031890235659666356
1772565881822571000,5.610571044921875,-0.032362638944387435,-0.0045349034832790494,0.0020714177128858865
1772565881832502800,5.620502685546875,-0.032817981496453284,-0.00016023206301033497,-0.008727496334910392
1772565881842434000,5.63043408203125,-0.04150573034286499,-0.006785349291190504,-0.017938702799845486
1772565881852366000,5.640365966796875,-0.050044426107406614,-0.01975114078298211,-0.021631237174849955
1772565881862298000,5.650298095703125,-0.029545827957987783,-0.012293152927234768,-0.005406663082819432
1772565881872228900,5.660228759765625,-0.05288929414451122,-0.03171540881572291,-0.021906382588110864
1772565881882161000,5.670160888671875,-0.07009352692365646,-0.026924064619652924,-0.015081157944258301
1772565881892092000,5.680091796875,-0.06409340972602368,-0.016912647687736898,-0.018827705795131624
1772565881902024000,5.69002392578125,-0.050155485266447065,-0.019204832011833785,-0.014538977358955889
1772565881911955000,5.699954833984375,-0.014517770174145697,-0.0014670586115680634,-0.020812285474780947
1772565881921887000,5.709886962890625,0.005256605353951454,0.00047209275746718047,-0.011953235182072967
1772565881931819000,5.719819091796875,0.00033610008656978605,-0.0016160386282019316,0.010002082847990095
1772565881941750000,5.72975,0.012023615270853041,0.008708097514696419,0.01218238602913916
1772565881951681800,5.739681884765625,0.01443359902203083,0.013117383590620011,0.012012162295076996
1772565881961613000,5.749613037109375,0.026262568503618237,0.0035980427582748232,0.02320970200533047
1772565881971545000,5.759545166015625,0.03075578826963901,0.020002996652200816,0.020845840684510765
1772565881981475800,5.769475830078125,0.020877952855825423,0.0016299940883181987,0.02116131810816005
1772565881991407900,5.779407958984375,0.023714637586474418,0.009691555594094098,0.02419336101412773
1772565882001340000,5.78933984375,0.006197685596346855,0.017742029450275004,0.02621410798570141
1772565882011271000,5.79927099609375,0.0019978958189487456,0.0029306100917980073,0.01592858682014048
1772565882021203000,5.809202880859375,0.010518471404910088,0.00883859202656895,0.008573876675777137
1772565882031134000,5.819134033203125,-0.018524667727947235,0.002157598158996552,0.01801825257577002
1772565882041066000,5.82906591796875,-0.03050678194463253,-0.0157558971343562,0.002234334923326969
1772565882050997000,5.8389970703125,-0.03351063993573188,-0.010989011526107787,-0.012582600860483944
1772565882060929000,5.848928955078125,-0.04503974968791008,-0.01918386228904128,0.002266976817604154
1772565882070860800,5.85886083984375,-0.020956278789043426,-0.012036931410152465,0.0004731704697012901
1772565882080792000,5.8687919921875,-0.028743279403448105,-0.006913797976449132,0.0030029812082648277
1772565882090724000,5.87872412109375,-0.0392307711482048,-0.015974654451571403,0.008823430990055203
1772565882100654800,5.88865478515625,-0.036245617857575414,-0.013849351126980035,-0.010706340393517165
1772565882110587000,5.8985869140625,-0.053606502503156656,-0.01960369513630867,0.0028304741855710745
1772565882120518000,5.908517822265625,-0.049264089384675025,-0.02636390998624265,-0.008950527968443929
1772565882130450000,5.918449951171875,-0.02636485983431339,-0.007834182490687817,-0.02289449857631698
1772565882140382000,5.9283818359375,-0.011546645408868789,-0.008870211007539182,-0.001318900578841567
1772565882150313000,5.93831298828125,0.0046188919723033905,-0.00615437617758289,-0.010115827154461294
1772565882160245000,5.948244873046875,-0.009742226335406303,-0.011545768626034259,0.01681046595489606
1772565882170176000,5.958176025390625,0.007028875723481178,-0.015434008236229419,0.04913706547152251
1772565882180107800,5.968107666015625,0.05761690718829632,0.11849674342898651,-0.14154455113718287
1772565882190039000,5.9780390625,0.07485153510570526,0.14677669790331274,-0.10736003052787854
1772565882199971000,5.98797119140625,-0.01136836623251438,-0.1580572031892836,0.16147672930918633
1772565882209903000,5.997903076171875,-0.07231704819202422,-0.307468085521087,0.15098220503544435
1772565882219833900,6.007833740234375,-0.19038228660225867,0.1973122685285285,0.09608688656445592
1772565882229766000,6.017765869140625,-0.06829729115664959,0.030979861082788555,-0.14801093413969502
1772565882239697000,6.02769677734375,0.1358306122034788,-0.11526956154340877,-0.1165594734897837
1772565882249629000,6.03762890625,-0.013927987587451934,0.05170428561102599,0.22590914346491917
1772565882259560000,6.047559814453125,-0.02893324901759624,0.054589924049936234,-0.10224551879204809
1772565882269492000,6.057491943359375,0.007261515435576438,-0.017626805572770535,0.023983846449293196
1772565882279424000,6.067424072265625,-0.023389058893918988,-0.013893098937161267,0.02040030714040622
1772565882289355000,6.07735498046875,-0.0335667540371418,0.009219517635554075,0.00480575631391257
1772565882299286800,6.087286865234375,0.020884382596611975,0.041139015922322865,-0.01302928518205881
1772565882309218000,6.097218017578125,-0.0026122283250093457,-0.006277673763688653,0.01323315545739606
1772565882319150000,6.107150146484375,-0.04360474844872951,-0.033833204687293617,0.008816562857851385
1772565882329081000,6.1170810546875,-0.0020054946035146714,-0.02148335313675925,0.02678794408459216
1772565882339012900,6.127012939453125,0.007111293309926986,0.00886087692361325,0.0072906136658973985
1772565882348945000,6.13694482421875,-0.029407296270132062,0.001955773710273206,-0.013554660763032734
1772565882358876000,6.1468759765625,-0.011749474504590034,0.01804605389814824,-0.0003466032142750919
1772565882368807700,6.1568076171875,0.023874212062358856,-0.0029237236932851372,-0.006925926805660128
1772565882378738700,6.16673876953125,0.009821136790513992,0.04477404795642942,-0.012231321471091358
1772565882388670700,6.176670654296875,0.003067570877075195,-0.032832740674167867,0.057199905618932095
1772565882398601500,6.1866015625,-0.060247255691885944,-0.06722593559809029,0.01719572067912668
1772565882408533500,6.196533447265625,-0.024168226572871206,-0.03900609554685652,-0.04432378343828022
1772565882418465500,6.206465576171875,-0.006046878948807716,0.01321750123053789,-0.001968487061373889
1772565882428396800,6.216396728515625,-0.054392099922895426,0.026979137541446832,0.024122633865475654
1772565882438328600,6.22632861328125,0.004248305094242096,-0.013233776511903852,-0.004247428311407566
1772565882448259600,6.236259521484375,0.020571663385629654,0.0011931735736317932,-0.06708789710057898
1772565882458191600,6.246191650390625,-0.05602876121401786,-0.03099940603347495,0.011748889982700347
1772565882468122600,6.25612255859375,-0.03404080128967762,-0.004213325112406164,-0.021359836354944855
1772565882478054400,6.266054443359375,-0.018180384334921834,-0.005083897401858121,-0.024082484518177807
1772565882487986700,6.275986572265625,-0.013975918382406234,0.015868180136103183,-0.00026321751344949006
1772565882497917700,6.285917724609375,0.0071317515760660165,-0.03177471952121705,0.0016585077967494724
1772565882507849700,6.295849609375,-0.025184125617146492,-0.011363653524778783,0.0432310014992021
1772565882517780500,6.305780517578125,-0.05945347496569156,0.005748407458886504,0.02537970298817381
1772565882527712500,6.31571240234375,-0.0045353053420782085,0.009971797307580708,-0.048479313948843625
1772565882537643800,6.325643798828125,0.008048866420984268,-0.013078238890320061,0.019107070725783704
1772565882547575800,6.335575927734375,-0.009303834918141364,0.004419752671010792,0.016395236217509955
1772565882557507600,6.345507568359375,-0.001527355697751045,-0.02568809308391064,0.004147621198743581
1772565882567438600,6.3554384765625,-0.018128946408629415,0.011546755006723105,0.008037906635552644
1772565882577370600,6.36537060546875,-0.028900515791773794,-0.02019453716892749,0.0016382869926281273
1772565882587301600,6.375301513671875,-0.03189619047641754,-0.03804115950483829,-0.00792695707436651
1772565882597233400,6.3852333984375,-0.02875263175368309,0.0077915671916678544,0.007455485371407121
1772565882607164700,6.39516455078125,0.01703939760625362,0.013798515988886356,-0.03494733994165435
1772565882617096700,6.4050966796875,0.014359364742040633,-0.008969250935222953,0.013932809893041848
1772565882627028700,6.41502880859375,0.003441664886474609,0.01790195098603144,0.02908679561149329
1772565882636959500,6.42495947265625,-0.0344248321712017,-0.014726006097346544,0.0591651412772946
1772565882646891500,6.4348916015625,-0.0028548049092292785,-0.017296806433424353,0.002551072722300887
1772565882656822800,6.44482275390625,-0.011379472148418427,0.00041882820026949044,0.008931841534283011
1772565882666754800,6.4547548828125,-0.017218845826387403,-0.005043912451341748,0.015612141282111405
1772565882676685600,6.464685546875,0.00597089110314846,-0.019204210957325992,0.007590473395306617
1772565882686617600,6.47461767578125,-0.01572422335445881,0.015776866857148707,0.02359051801646128
1772565882696549600,6.484549560546875,-0.01138882449865341,-0.002056676801480353,-0.017980203854013232
1772565882706480400,6.49448046875,-0.0024099837511777876,-0.01536961949681863,-0.025985614725761115
1772565882716412700,6.50441259765625,-0.01676759492754936,0.0008356288402341306,0.0018537929068319497
1772565882726343700,6.51434375,-0.03995674733519554,-0.021370832672994583,0.018402831446565685
1772565882736275700,6.524275634765625,-0.01422317114174366,-0.009816077022906392,0.006178926096949726
1772565882746206500,6.53420654296875,-0.03367489058673381,-0.023030345116741954,0.014062464154697954
1772565882756138500,6.544138427734375,-0.023797639694809913,-0.0002395626432262361,0.002404997048806399
1772565882766070500,6.554070556640625,-0.023345804274082182,0.0003748063954524696,0.009442238741833716
1772565882776001800,6.564001708984375,-0.018260463833808898,-0.019311068865284324,-0.007874806762021035
1772565882785933600,6.57393359375,0.0022504092752933503,0.0036373883879743515,-0.030250834422186016
1772565882795864600,6.583864501953125,-0.006711480337381362,0.011256576421111822,0.014374580577481538
1772565882805796600,6.593796630859375,0.0007668927192687987,0.011674692235328256,0.01020418129134923
1772565882815727600,6.6037275390625,-0.03680325174033642,-0.019087580574024467,0.00625186346899718
1772565882825659400,6.613659423828125,-0.052661915129423136,-0.010949099640827626,0.0006221504863351583
1772565882835591700,6.623591796875,-0.015244915404915809,-0.009685710375197231,0.021250622093118725
1772565882845522700,6.633522705078125,-0.02079144361615181,-0.014883516480308025,-0.01694028461333364
1772565882855454700,6.643454833984375,-0.012262100201845169,-0.006442983860615641,-0.003529945958126336
1772565882865385500,6.653385498046875,0.007194879940152167,0.017135076533071697,0.004709255403187126
1772565882875317500,6.6633173828125,-0.006578793868422508,-0.0182571028329432,-0.012064403938967733
1772565882885249500,6.67324951171875,-0.019597849917411803,0.00832404836686328,0.028571923158224672
1772565882895180800,6.683180908203125,-0.027532734569907187,-0.007937003544345497,-0.011572145176306366
1772565882905112600,6.693112548828125,-0.038304303953051566,-0.019799400371499357,0.022272165426891297
1772565882915043600,6.703043701171875,0.00658171647787094,0.017754340942576528,0.03126687959693372
1772565882924975600,6.7129755859375,-0.004206804040074348,-0.03127818644223734,-0.008443290832359344
1772565882934906600,6.72290673828125,-0.007941898915171624,0.04183370192190632,-0.028516265714541075
1772565882944838400,6.73283837890625,0.0427905094563961,0.000003799392282962799,0.02818137120436877
1772565882954769700,6.742769775390625,-0.009901216289401054,-0.03776031500315293,0.022830749157723037
1772565882964701700,6.75270166015625,-0.05345452681183815,0.0016209522653371094,0.014576825151313096
1772565882974633700,6.7626337890625,-0.020538930159807203,0.018987791727669536,-0.030521358459256586
1772565882984564500,6.772564453125,-0.023383213675022125,-0.014063560133241115,-0.012379771764762699
1772565882994496500,6.78249658203125,-0.0064770870596170425,-0.0049377851957455275,0.008048848154675214
1772565883004427800,6.792427734375,-0.01560731897652149,0.0026297091827727852,-0.015813563872035592
1772565883014359800,6.80235986328125,-0.027278467547893523,-0.01253052361337468,-0.012183756002318113
1772565883024291600,6.81229150390625,-0.012764204505085945,-0.0016675130871124564,-0.009363492683507502
1772565883034222600,6.82222265625,-0.01636193673610687,-0.0049781720050610595,0.024521241261623798
1772565883044154600,6.832154541015625,-0.014576222363114356,0.011758461528643965,0.015786438403092323
1772565883054085600,6.842085693359375,-0.0145873282790184,-0.013359156457241624,0.015176599409058689
1772565883064017400,6.852017333984375,-0.026411621585488317,-0.0012159516610205172,0.01069435769477859
1772565883073948700,6.86194873046875,-0.014145429730415344,0.013266820264980196,0.004488086933176964
1772565883083880700,6.871880615234375,-0.013703531181812285,0.010966635297518222,-0.016489417306985703
1772565883093812700,6.881812744140625,-0.008023147457838059,-0.01803323094919324,0.031522680988907814
1772565883103743500,6.891743408203125,-0.007578326299786567,-0.01379011348672211,0.008093271818291396
1772565883113675500,6.901675537109375,-0.025832944914698598,-0.01179035450424999,0.012488912961352615
1772565883123606800,6.911606689453125,-0.004736380872130394,-0.005058854292146861,-0.011591105605103074
1772565883133538800,6.921538818359375,-0.0053343467652797695,0.011233780067414045,-0.007340425890684127
1772565883143469600,6.931469482421875,-0.014915245059132574,-0.02679278465649113,0.015451342963520437
1772565883153401600,6.941401611328125,-0.011323942568898201,-0.0388071206423454,-0.00031091084638610483
1772565883163333600,6.951333740234375,-0.01895195322930813,0.020548702635150403,0.003151321904081851
1772565883173264400,6.961264404296875,-0.015662848556041716,-0.002639700853824615,-0.0006530753475613892
1772565883183196700,6.97119677734375,-0.002949497455358505,-0.01284127006297931,0.009883077844511716
1772565883193127700,6.981127685546875,-0.03736556179821491,-0.017536350810341536,0.0292094173441641
1772565883203059700,6.991059814453125,-0.02285363684296608,-0.0165848953044042,0.0014851057249121366
1772565883212990500,7.000990478515625,-0.020459435182809828,0.0046635530979372555,0.005241042458638549
1772565883222922500,7.010922607421875,-0.020759879434108734,-0.007347220957651734,0.0030770510914735496
1772565883232854500,7.0208544921875,-0.007892214554548263,0.0031055647999048233,-0.011093312150798737
1772565883242785800,7.030785888671875,-0.02374970889985561,0.011900317684747279,0.009585592735279352
1772565883252717600,7.040717529296875,-0.032579496565461157,0.00860832693465054,0.01844661578936502
1772565883262648600,7.050648681640625,-0.010730068328976631,-0.006964468717761337,-0.0020493885441683233
1772565883272580600,7.06058056640625,-0.021802081963419914,-0.026606504836771634,0.02182115199007094
1772565883282511600,7.07051171875,-0.02360124033987522,-0.010690448704641312,0.015965722226444632
1772565883292443400,7.080443359375,-0.010136778610944747,0.002371898496802896,0.0018696845957078038
1772565883302375700,7.090375732421875,-0.019259411743283272,-0.002943615703843534,0.009303213863633572
1772565883312306700,7.100306640625,0.003488426637649536,-0.013426942730136214,-0.004415642751473933
1772565883322238700,7.11023876953125,-0.02269055523574352,-0.004199168722890318,0.0076483958613127465
1772565883332169500,7.12016943359375,-0.024184593185782432,0.0007227065176703036,0.005889770424645393
1772565883342101500,7.1301015625,-0.01161678803563118,0.002474025430716574,-0.004569646003097295
1772565883352033500,7.140033447265625,-0.02179214509129524,-0.011400953327864408,0.013621003997512161
1772565883361964800,7.14996484375,-0.011910802546143531,-0.0039048984840512274,0.013316303696203976
1772565883371896300,7.159896240234375,-0.02582242352068424,0.0009204393131658434,0.010800978140719234
1772565883381827300,7.169827392578125,-0.02761807476580143,-0.0009620864978060126,0.014596461433544754
1772565883391759400,7.17975927734375,-0.01564706646502018,0.009595072949677706,-0.0020733356753364204
1772565883401690400,7.1896904296875,-0.009059504768252373,-0.00729001087769866,0.01952761595910415
1772565883411622400,7.199622314453125,-0.018486673805117607,-0.009335252969712018,0.04315020961426198
1772565883421553400,7.209553466796875,-0.017286065843701362,0.02255836195712909,-0.0790434338375926
1772565883431485400,7.2194853515625,0.006818447843194008,-0.0127439837009646,0.04175431654276326
1772565883441417200,7.229417236328125,-0.006807926449179649,-0.02370966915041208,0.010658555729035287
1772565883451348200,7.23934814453125,-0.041376551005244254,0.0027275252677500246,-0.006035645168740302
1772565883461280300,7.2492802734375,-0.04346913937032223,0.011225359298940748,-0.002510905108693987
1772565883471211500,7.25921142578125,0.0014221417576074599,-0.021188425310794262,0.0045160891849547625
1772565883481143300,7.269143310546875,-0.012796937730908392,0.008173826241213827,0.024287158511113374
1772565883491075300,7.279075439453125,-0.010856325057148933,0.0008994695903733372,-0.00834598620403558
1772565883501006300,7.28900634765625,0.00770107589662075,-0.011434672934375703,-0.007682243331987411
1772565883510938400,7.2989384765625,-0.029558102917671202,-0.003172602154128253,0.03231724716639146
1772565883520869400,7.308869384765625,-0.009064180943369865,0.001677048100437969,-0.004629778692498803
1772565883530801400,7.318801513671875,-0.0021767595171928405,-0.005895177252124995,-0.0010226210460066794
1772565883540732400,7.328732421875,-0.018331190982460974,-0.010108082239422946,0.01168389845509082
1772565883550664400,7.33866455078125,-0.0136941788315773,-0.002662807734776288,0.006034403059724718
1772565883560596200,7.34859619140625,-0.016989713245630263,-0.007643792751431465,0.009077095223870128
1772565883570527200,7.35852734375,-0.015495675295591354,-0.022188012541085482,-0.0008167962756007909
1772565883580459300,7.368459228515625,-0.015642390289902688,-0.00025307971192523835,0.011075612097326666
1772565883590390300,7.378390380859375,-0.02775952906310558,-0.007950557145662606,0.013613478278182446
1772565883600322300,7.388322265625,-0.0005254851788282394,0.0006914893954992294,-0.0012707688544876872
1772565883610253300,7.39825341796875,-0.005009937116503715,-0.00014693419001996516,0.016074351966381073
1772565883620185300,7.408185302734375,-0.018925065222382544,-0.00247899386677891,0.0021254494550637898
1772565883630117400,7.418117431640625,-0.0138379712164402,0.012921166898775845,-0.0009443133790977299
1772565883640048400,7.42804833984375,-0.02730944720804691,0.006277290171198546,0.017236344950459895
1772565883649980400,7.43798046875,-0.011154431220889091,-0.006609590865485369,0.0066363144756294784
1772565883659911400,7.447911376953125,-0.005169511592388153,-0.0000259929577820003,0.010269702541921288
1772565883669843500,7.457843505859375,-0.027614567634463308,-0.009075524321291596,0.006211586257535964
1772565883679774200,7.467774169921875,-0.03240121738910675,0.0016010054558515548,-0.007065335276350378
1772565883689706200,7.477706298828125,-0.030454174974560735,0.005994290245044976,0.006366977748647332
1772565883699638300,7.48763818359375,-0.017137597283720968,-0.007919011229928583,0.0019588424501940606
1772565883709569300,7.4975693359375,-0.01608662692606449,-0.004918075848277658,0.006564308685343712
1772565883719501300,7.507501220703125,-0.018476736932992933,-0.0124486357498914,0.013265614688582717
1772565883729432300,7.517432373046875,-0.017877601996064186,-0.011887129409611225,0.0030944954166188835
1772565883739364400,7.5273642578125,-0.015333178210258484,-0.0029006716112606225,0.0067846003725193435
1772565883749296400,7.53729638671875,-0.018325345763564108,-0.009253474704083055,0.01174094413826242
1772565883759227400,7.547227294921875,-0.01608136622905731,-0.005840086064022034,-0.003770568047277629
1772565883769159400,7.557159423828125,-0.029254736056923865,-0.0007812317718751728,0.002943469573371112
1772565883779090400,7.56709033203125,-0.029256489622592925,-0.011139872972574084,0.0006173099144361913
1772565883789022200,7.577022216796875,-0.01414075355529785,0.007123769199009984,0.00780051768310368
1772565883798953200,7.586953125,-0.010701426756381988,-0.0022265900082886216,0.007190094167180359
1772565883808885200,7.59688525390625,-0.005317395630478858,-0.006088800128083676,0.012955397961940616
1772565883818817300,7.6068173828125,-0.007563713252544403,0.0035872656359337268,0.016974460877571255
1772565883828748300,7.616748291015625,-0.02102934402525425,-0.007179189180675893,0.001598393373657018
1772565883838680300,7.626680419921875,-0.01623918713927269,0.008203709922824055,0.010040095037128776
1772565883848611300,7.636611328125,-0.017437457013130188,-0.004852883391268551,0.003975442969612777
1772565883858543400,7.64654345703125,-0.023872458496689796,-0.009132003748882562,0.004301131260022521
1772565883868474400,7.656474365234375,-0.017887538868188856,-0.0033480865851975975,-0.00308285977775231
1772565883878406400,7.666406494140625,-0.021182488760352135,-0.011914601938426493,0.00892197772739455
1772565883888338400,7.67633837890625,-0.01460135680437088,0.0011900865674018858,0.00957923605972901
1772565883898269400,7.68626953125,-0.015050854137539862,0.006637154725845903,0.0074601067475974555
1772565883908201200,7.696201171875,0.0032090251743793485,-0.005980243453383445,0.00472339352639392
1772565883918132200,7.70613232421875,-0.0042716859698295594,0.008719751419872045,0.008967789630498737
1772565883928064300,7.716064208984375,-0.02252805815041065,0.005843995054159313,-0.0011729893021285532
1772565883937995500,7.72599560546875,-0.01684533633887768,-0.01020471101431176,0.009069112846814095
1772565883947927300,7.73592724609375,-0.0190881468296051,-0.0069505680565722285,-0.0014609759306535124
1772565883957859300,7.745859375,-0.027917934495210645,-0.0032081301252357658,0.009019757279753685
1772565883967790300,7.755790283203125,-0.0054763855844736095,-0.014100823403708636,-0.0001726896857842803
1772565883977722400,7.765722412109375,-0.011160276439785956,-0.006051573390234262,0.004053111315704882
1772565883987653400,7.7756533203125,-0.019388591080904006,0.004147146274708211,0.006310333924274891
1772565883997585400,7.78558544921875,-0.009060673812031746,-0.005001589413266629,-0.0012836831349879502
1772565884007516400,7.795516357421875,-0.001727262184023857,-0.004967632344737649,0.013277542588394135
1772565884017448400,7.805448486328125,-0.013851999741792678,-0.005621420078352093,0.010345580789726227
1772565884027380200,7.815380126953125,-0.0074181673020124435,0.007388977740146219,0.011278733453992754
1772565884037311200,7.825311279296875,-0.03345101870298386,-0.005164579688943923,0.009373119028378278
1772565884047243300,7.8352431640625,-0.015047347006201743,-0.004690751632116735,-0.004014021414332092
1772565884057174300,7.84517431640625,-0.011005962660908699,0.0038382812549360096,0.0038361440967768427
1772565884067106300,7.855106201171875,-0.022677695754170415,-0.004362432993203401,0.00796995596587658
1772565884077037300,7.865037353515625,-0.011157353830337524,0.00003426759578287601,-0.000522160710580647
1772565884086969300,7.87496923828125,-0.02641980489194393,-0.0018831651317887006,0.004948233524523675
1772565884096901400,7.8849013671875,-0.02178396178483963,-0.006955463427398353,0.004941858582664281
1772565884106832400,7.894832275390625,-0.017743746483325957,-0.00418015349516645,-0.000958524567540735
1772565884116764400,7.904764404296875,-0.02657061153948307,-0.012976477282587438,0.01103918907707557
1772565884126695400,7.9146953125,-0.010110475125908852,-0.007119805409945547,-0.0006011076983064412
1772565884136627500,7.92462744140625,-0.011009469792246818,-0.002550579531956464,0.0003824965115636587
1772565884146559200,7.934559326171875,-0.01505319222509861,-0.005430701545532792,0.003688442721776664
1772565884156490200,7.944490234375,-0.011010054314136505,0.003158025639504194,-0.0002624868610873818
1772565884166422300,7.95442236328125,-0.019090484917163846,0.000241864198166877,0.011443002371303737
1772565884176353300,7.964353271484375,-0.012808628168702124,-0.009704689070302993,-0.00043882980868220324
1772565884186285300,7.974285400390625,-0.011160860961675644,-0.000848944979533553,0.002713405410852283
1772565884196216300,7.98421630859375,-0.02223579720556736,0.002620411631464958,0.012277882292866707
1772565884206148400,7.9941484375,-0.012211831319332123,-0.005273538222443312,0.002151077086664736
1772565884216080400,8.004080322265626,-0.018495441633462905,0.005014923818875104,-0.00008194266241043806
1772565884226011400,8.014011474609376,-0.012809212690591812,-0.009992018111702054,-0.001397372642531991
1772565884235943400,8.023943359375,0.0011111761122941971,-0.00012905147345736623,-0.0014134104618802666
1772565884245874400,8.03387451171875,-0.015344284126162528,-0.0010809819034300744,0.011687990108318625
1772565884255806200,8.04380615234375,-0.012503507742285728,-0.00036075960379093884,-0.0036173319806344804
1772565884265737200,8.0537373046875,-0.01220364801287651,0.00613379004728049,0.006501070723403245
1772565884275669200,8.063669189453124,-0.02342471472918987,-0.010969082982931285,0.007373579241614788
1772565884285601300,8.073601318359374,-0.006216390296816826,0.0007906206547282636,0.0014756072442047297
1772565884295532300,8.0835322265625,-0.02865969277322292,-0.0006877448021434247,0.006078625793941319
1772565884305464300,8.09346435546875,-0.021178981629014014,-0.012898480142932385,0.003525488978717476
1772565884315395300,8.103395263671874,-0.008759060516953467,-0.00008470087507739662,0.0013755261369049548
1772565884325327400,8.113327392578125,-0.017136428239941597,0.010161383329238742,0.01597238942924887
1772565884335258400,8.12325830078125,-0.020279986962676046,0.00027551073944196103,-0.010572484880778938
1772565884345190400,8.1331904296875,-0.022225275811553,0.00027461569029837843,0.004708122892025858
1772565884355122400,8.143122314453125,-0.019676175850629807,-0.007953370157256723,0.005474138828460127
1772565884365053400,8.153053466796875,-0.017579495832324026,0.005771514339838177,-0.000845291717723012
1772565884374986000,8.162986083984375,-0.014440613284707068,-0.0007184322013519704,0.006859948897361755
1772565884384916700,8.172916748046875,-0.006357844594120979,-0.014113427156955002,0.004419917067792266
1772565884394848800,8.182848876953125,-0.026709143227338788,0.0027768443021923303,0.0014882475300692021
1772565884404780800,8.19278076171875,-0.02490881580710411,0.0016668189673684536,0.004894402711745351
1772565884414711800,8.2027119140625,-0.01518295608460903,-0.004687719424813985,0.0014265987370163202
1772565884424643800,8.212643798828125,-0.017571897047758103,-0.0031669943972490724,0.005623027513548731
1772565884434574800,8.222574951171875,-0.020115736311674116,-0.008111410263180732,0.005301248213276267
1772565884444507000,8.2325068359375,-0.010236731854081154,-0.006783011203631758,-0.0016631291729398072
1772565884454437600,8.242437744140625,-0.013529343658685683,-0.004972326786164194,0.010625767704285681
1772565884464369700,8.25236962890625,-0.006347907721996307,-0.00793196204304695,0.013032609650306403
1772565884474301700,8.2623017578125,-0.013527005571126937,0.0036399274049326775,0.001887494247034192
1772565884484233000,8.27223291015625,-0.01981061588525772,-0.011165244875848293,0.006580309972073883
1772565884494164700,8.282164794921876,-0.013975333860516548,-0.0036475627221167085,-0.0012079327513463795
1772565884504095700,8.292095703125,-0.02056172651350498,0.004703720711544156,0.0020636545315384862
1772565884514027800,8.30202783203125,-0.013230652973055838,-0.012415318002179264,-0.001585479093156755
1772565884523959000,8.311958984375,-0.0038069910675287244,0.006295739143341779,0.0036514899785630404
1772565884533890800,8.321890869140624,-0.019368132814764974,-0.002431117870751768,0.0024686916684731838
1772565884543822800,8.33182275390625,-0.019217910689115523,-0.004330868811160325,0.0042269700452685355
1772565884553753900,8.34175390625,-0.0064963762819767,-0.005521265905816108,-0.00008629004396498203
1772565884563686000,8.351685791015624,-0.0070972647845745085,-0.0060333801464177664,-0.000510360674932599
1772565884573616600,8.36161669921875,-0.01697100854516029,0.0004944324534386397,0.010822715048491954
1772565884583548700,8.371548583984374,-0.007542670464515686,-0.00466168993441388,0.003948737625777721
1772565884593480700,8.381480712890625,-0.01681903285384178,-0.0012064897129312156,0.010596048419456928
1772565884603412000,8.391411865234375,-0.012476619735360146,0.004651570399198681,-0.009902202670089899
1772565884613343700,8.40134375,-0.018164017722010612,-0.004920834060944616,0.0077417732331901785
1772565884623274800,8.411274658203125,-0.009485036703944206,-0.006724376351572573,0.002970613308623433
1772565884633206800,8.421206787109375,-0.012179098093509673,-0.0011202910005114971,0.00012870441358536481
1772565884643138000,8.431137939453125,-0.029086393752694128,-0.01302300157174468,0.004024232281092554
1772565884653069800,8.44106982421875,-0.016068506747484206,-0.00720576666034758,0.0058714127840474245
1772565884663001900,8.451001953125,-0.019960253489017487,0.0026566337223164734,0.013447455795202403
1772565884672932900,8.460932861328125,-0.01307633919417858,-0.008900076422840356,0.01056148856272921
1772565884682865000,8.470864990234375,-0.012023615270853041,-0.0033847653337754306,-0.0027036146692000326
1772565884692795600,8.480795654296875,-0.023987609308958054,-0.004296455084905028,0.011605901315435766
1772565884702727700,8.490727783203125,-0.016655951246619224,-0.005663359523937106,0.010312226509395986
1772565884712659000,8.500658935546875,-0.013811667731404303,-0.0006174743112176656,-0.003168090375792235
1772565884722591000,8.510591064453125,-0.02308452298939228,-0.011972798399068415,0.013930106479302047
1772565884732522800,8.520522705078125,-0.006320435193181037,-0.00003030380671843886,0.0049247978500090535
1772565884742453800,8.530453857421875,-0.010955693778395652,0.0019152590367943047,0.004141501985210925
1772565884752385800,8.5403857421875,-0.009605448213219642,-0.010586915264930576,0.006758223822247236
1772565884762316800,8.55031689453125,-0.004366963037848472,-0.001075794271659106,-0.001162139114551246
1772565884772248800,8.560248779296876,-0.02456687050163746,-0.006953581997565924,-0.0028227292705327272
1772565884782179800,8.570179931640626,-0.014841010779142379,-0.00901418605549261,0.0011958039221353829
1772565884792111900,8.58011181640625,-0.01125379994213581,0.0014015373609960078,-0.002625325268600136
1772565884802044000,8.5900439453125,-0.020080080476403236,-0.00592296030819416,0.00978264967733994
1772565884811974700,8.599974609375,-0.016489947029948233,-0.0015566548574715853,0.0012834274066612123
1772565884821906700,8.60990673828125,-0.028012042519450185,-0.0059976877785287794,0.011387070932984352
1772565884831838000,8.619837890625,-0.017236381483078003,-0.012565046937484293,0.015325232365820556
1772565884841770000,8.62977001953125,-0.00931318726837635,0.004563015332911163,-0.007103986786305904
1772565884851700700,8.63970068359375,-0.0290659354865551,-0.007749134555738419,0.0055088996145874255
1772565884861632800,8.6496328125,-0.015593290451169013,-0.00748686689035967,0.0025909480749629434
1772565884871564800,8.659564697265624,-0.005265373182296753,-0.0015664273328147827,-0.00576444527823478
1772565884881495800,8.669495849609374,-0.021271336087584494,-0.014414748191088437,0.00695935415122658
1772565884891427800,8.679427734375,-0.014384499183297157,0.006256576176732778,-0.003413187710661441
1772565884901358800,8.68935888671875,-0.021416882038116453,0.007357833683211356,0.008167542630899697
1772565884911291000,8.699290771484375,-0.012442717465758323,-0.007819003187865018,0.013194193420186639
1772565884921223000,8.709222900390625,-0.013491934257745742,-0.006481069114990532,-0.0003012297025881708
1772565884931153700,8.719153564453125,-0.026361352702975273,-0.00960239773960784,-0.0007748568300157785
1772565884941085700,8.729085693359375,-0.012444471031427382,-0.005802475733682513,-0.006802428290154785
1772565884951017000,8.739016845703125,-0.005112812969088554,0.0036394890135154124,0.0069933477523736656
1772565884960948700,8.74894873046875,-0.01139934589266777,-0.004096420734468848,0.005100757205113768
1772565884970879700,8.758879638671875,-0.007813304099440574,-0.0026383126143366097,0.0040755240769125515
1772565884980811800,8.768811767578125,-0.016790975803136824,-0.003995828170515596,0.008996851328201591
1772565884990743800,8.778743896484375,-0.021731354814767838,-0.014323909836169331,-0.0015649112291634083
1772565885000674800,8.7886748046875,-0.019339491242170333,0.0005161328285932541,0.0014162600060924886
1772565885010606800,8.79860693359375,-0.026074352455139158,-0.01195049523571506,0.004320201286673545
1772565885020537900,8.808537841796875,-0.0178507139891386,-0.00860474673807621,0.0008362498947419225
1772565885030470000,8.818469970703125,-0.018299626800417898,-0.00198496327213943,0.0013850794165395199
1772565885040400600,8.828400634765625,-0.019044307687878608,-0.004710150452330708,0.007521993002668022
1772565885050332700,8.838332763671875,-0.002881692916154861,0.01155495657948777,0.011668481690250336
1772565885060264700,8.8482646484375,-0.015750526839494704,-0.002387059533316642,0.009745952662453055
1772565885070196000,8.858196044921876,-0.02248188092112541,-0.014137027228251099,0.0010089213142171502
1772565885080127700,8.868127685546876,-0.018890578430891036,0.0009306501799263059,0.0013826499974355102
1772565885090058800,8.878058837890626,-0.020984335839748382,-0.007913074679486452,0.0001429521346464753
1772565885099990800,8.88799072265625,-0.002435702714323997,0.0007512019597925245,-0.0020504297237843275
1772565885109922800,8.8979228515625,-0.015157237121462821,0.0003925795141607523,0.00592248538415879
1772565885119853800,8.907853759765626,-0.023684826970100402,-0.0035107845999300478,0.0038705030241049823
1772565885129785900,8.917785888671874,-0.007521043154597282,-0.01021315004909411,0.005952569995168596
1772565885139716900,8.927716796875,-0.011109423035383224,-0.004749733544047921,-0.0006984305929392576
1772565885149649000,8.93764892578125,-0.018740356305241585,-0.009233308698888868,0.011044486306700855
1772565885159579600,8.94757958984375,-0.004072948527336121,0.003380399685911834,0.010591883700992911
1772565885169511700,8.95751171875,-0.017095511707663536,-0.01141319175492972,0.00012088643331080674
1772565885179443700,8.967443603515624,-0.013654431343078612,-0.0012610146454535424,-0.010722341680247336
1772565885189375000,8.977375,-0.011558920368552206,-0.0016557678503915667,-0.008609733440447598
1772565885199306800,8.987306640625,-0.02263093400299549,-0.007908727297931909,0.014160718631092459
1772565885209237800,8.99723779296875,-0.015148469293117523,-0.006599270400870591,0.0040127975716255605
1772565885219169800,9.007169677734375,-0.007964110746979712,-0.012173581668175757,-0.001283445672970265
1772565885229100800,9.017100830078125,-0.016193009909987448,-0.006206910082418471,0.010935746968910098
1772565885239032800,9.02703271484375,-0.009454641565680504,0.0040033721561543644,-0.004752637887187302
1772565885248964900,9.03696484375,-0.014395605099201202,-0.007647683475259691,0.00745831664931029
1772565885258896000,9.046895751953125,-0.018586627048254013,-0.0004261529901996255,0.0035901882453821597
1772565885268828000,9.056827880859375,-0.009310849180817603,0.0012319164151325822,0.005021883282624185
1772565885278758700,9.066758544921875,-0.021283026525378227,-0.010569927597511559,0.00866409397618845
1772565885288690700,9.076690673828125,-0.004977203890681266,-0.007449895880836993,-0.003498290444537997
1772565885298622700,9.086622802734375,-0.00976677625477314,-0.011760087230149655,0.008982274813577532
1772565885308554000,9.096553955078125,-0.0078209028840065,-0.013770111878309397,-0.00039475320493802425
1772565885318485800,9.10648583984375,-0.018747370567917823,-0.007714921758882701,-0.0019775654169730842
1772565885328416800,9.116416748046875,-0.014708324310183525,-0.01132171407919377,0.011083484876528382
1772565885338348800,9.126348876953125,-0.00812193165719509,-0.006624423108436167,-0.0037503655094653365
1772565885348279800,9.13627978515625,-0.020391630643606183,0.003764814159926027,0.006610230186302215
1772565885358211800,9.1462119140625,-0.01949380502104759,-0.0068752560643479226,0.0016788564650341868
1772565885368144000,9.156143798828126,-0.0136550158649683,0.0039327728716656565,0.009458477490581572
1772565885378075000,9.166074951171876,-0.024584406158328055,-0.004616846145689487,0.013446706876531243
1772565885388007000,9.1760068359375,-0.0094721772223711,-0.0013689502656459808,0.007096826393157243
1772565885397937700,9.185937744140626,-0.0009475099831819534,0.010287731388956308,0.0007604995111003518
1772565885407869700,9.19586962890625,-0.019952070182561874,-0.00933978301435709,0.008702179230563342
1772565885417801000,9.205801025390626,-0.013367431095242499,0.002246701214555651,0.009382380047068
1772565885427732700,9.215732666015626,-0.018157003459334374,0.002084039732441306,-0.0007030702354386448
1772565885437664800,9.225664794921874,-0.024745149677991865,-0.011095723303593695,-0.0006306443200446665
1772565885447595800,9.235595703125,-0.012476035213470458,-0.0025934322929941117,-0.0020841310639865694
1772565885457527800,9.24552783203125,-0.02654430805444717,-0.006919405733328312,0.01417706697769463
1772565885467458800,9.255458740234374,-0.01397825646996498,-0.009047248074878007,-0.006585132277663797
1772565885477390800,9.265390869140624,-0.015923545318841933,-0.007859389997180551,0.0032505079622380433
1772565885487323000,9.275322998046875,-0.0259504338145256,-0.014798340681195258,0.006757730631902814
1772565885497254000,9.28525390625,-0.005150222370028495,0.00003638648763298988,-0.015720752755738795
1772565885507186000,9.29518603515625,-0.014428922846913337,0.004196520108077675,0.0024067688807845114
1772565885517116700,9.30511669921875,-0.017122399714589117,-0.012589158465433865,0.007992350460775196
1772565885527048700,9.315048583984375,-0.008454524612426757,-0.0007017733274959027,0.00012105996324680745
1772565885536980000,9.32497998046875,-0.025371757143735883,0.00479022995121777,-0.007808207799214869
1772565885546911700,9.334911865234375,0.010389292067289353,-0.004084511100966483,-0.015427806824306025
1772565885556843800,9.34484375,-0.021941782695055007,-0.011145772990398109,0.021158495963411406
1772565885566774800,9.35477490234375,-0.05190320571660995,-0.00018043460082262753,-0.004887105321278795
1772565885576706800,9.364706787109375,-0.014384499183297157,0.0049248161163181065,-0.006544508006330579
1772565885586637800,9.374637939453125,-0.0057411740005016325,0.0029476890907622873,0.01163697230713442
1772565885596569900,9.38456982421875,-0.02355330954492092,0.004714114241395145,0.02325751406927593
1772565885606500900,9.3945009765625,-0.0042220016092062,-0.013608126249630004,0.012497598591307177
1772565885616433000,9.404432861328125,-0.0209095170378685,-0.0027095877522602674,0.018292539472505448
1772565885626364700,9.41436474609375,-0.039863223832845684,-0.0037521190751343965,0.0858047994649969
1772565885636295700,9.424295654296875,-0.05562719467580318,0.007204049627296626,-0.01672302513346076
