time,seconds_elapsed,z,y,x
1772445409883954200,0.0989541015625,-0.1444236685037613,-0.15260580591559408,-0.015819463889859615
1772445409893887000,0.108886962890625,-0.20959844372570513,-0.1553852075010538,-0.041187275510840116
1772445409903819000,0.118819091796875,-0.2554787358909845,-0.154642572440207,-0.005826148870214819
1772445409913752000,0.128751953125,-0.25441958222687244,-0.14358648702725768,0.05357490178849548
1772445409923683800,0.138683837890625,-0.20827567068934438,-0.1237815702304244,0.054042555832862854
1772445409933617000,0.148616943359375,-0.1468278070360422,-0.10729396128803491,0.034501550669223065
1772445409943549000,0.158548828125,-0.09073182580471038,-0.09914704132005572,0.015177110865712166
1772445409953482000,0.16848193359375,-0.02295592817366123,-0.09498568385690451,0.024320896383933723
1772445409963414000,0.1784140625,0.02024550017118454,-0.10218129444941877,0.021183767401985822
1772445409973347000,0.18834716796875,0.042894554352760315,-0.12647270901054145,0.026600495221093295
1772445409983279000,0.198279052734375,0.09855448225438594,-0.12256050400286912,0.058912280761078
1772445409993212000,0.2082119140625,0.1476899768233299,-0.11033376737534999,0.11153802859857678
1772445410003145000,0.21814501953125,0.18499474834501742,-0.12400164272189139,0.11654277808330953
1772445410013077000,0.228076904296875,0.155860423797369,-0.11553981158584356,0.08422028848621994
1772445410023010000,0.238010009765625,0.08489946638941764,-0.08365326572060584,0.014012231804803012
1772445410032942000,0.247942138671875,0.0037777649730443954,-0.08783332788422703,-0.019122268294915555
1772445410042875100,0.257875244140625,-0.06218260766863823,-0.12001432665139436,0.023030527779832482
1772445410052807000,0.267806884765625,-0.08686521350443363,-0.1292249303281307,0.08910170385222882
1772445410062740000,0.277739990234375,-0.09989888260066508,-0.1343365742534399,0.126185599164851
1772445410072672000,0.287672119140625,-0.07112813066840172,-0.11589300893768667,0.11677899799197912
1772445410082604800,0.297604736328125,-0.05373626636266708,-0.11002163268625735,0.04829897067956626
1772445410092536800,0.307536865234375,-0.04944236856102943,-0.11865998943299054,-0.007876103669963776
1772445410102470000,0.317469970703125,-0.04517652781009674,-0.11851005956828593,0.006461268435977399
1772445410112402000,0.32740185546875,-0.04533376419842243,-0.12938114380314947,0.059561282721720635
1772445410122335000,0.3373349609375,-0.10062719687521457,-0.13327800511121748,0.10049695809166878
1772445410132268000,0.34726806640625,-0.12284545842409134,-0.10657719132080673,0.08186141386777163
1772445410142200000,0.357199951171875,-0.13051964631378649,-0.06394815603643655,0.0389958298811689
1772445410152132900,0.3671328125,-0.15595511634349823,-0.051763066593557595,-0.012055983170494437
1772445410162065200,0.377065185546875,-0.16741759060025213,-0.054417234364151953,-0.010604359590075909
1772445410171998000,0.386998046875,-0.11498948422670363,-0.04388634186908603,0.044724801987223325
1772445410181930000,0.396929931640625,-0.06080898122787475,-0.059500528977811336,0.0693039474485442
1772445410191863000,0.406863037109375,-0.029872575694322584,-0.07392404499724507,0.038760998211987314
1772445410201794800,0.416794921875,-0.0300637143522501,-0.05679901493415236,0.019700762302614746
1772445410211728000,0.426727783203125,-0.03072714669704437,-0.03047229515314102,0.012182057235576211
1772445410221660000,0.436659912109375,-0.0587806902706623,-0.038253888940066094,-0.006383143432158976
1772445410231593000,0.446593017578125,-0.0718868400812149,-0.027182605957984923,0.015992135309334844
1772445410241525000,0.45652490234375,-0.06635843204855918,-0.0008773673564195632,0.06455129129504784
1772445410251458000,0.4664580078125,-0.032494156369566915,0.02612608264237642,0.04291417236868292
1772445410261390800,0.476390869140625,0.012979893082380295,0.054793081939220424,-0.03837563388990238
1772445410271323000,0.486322998046875,0.07439034733474253,0.08954860736951231,-0.11478440837496891
1772445410281256000,0.496255859375,0.13865326840877532,0.10146730096116661,-0.15603861164217814
1772445410291188000,0.50618798828125,0.18398878617286682,0.09543810379952192,-0.14678332857349888
1772445410301121000,0.51612109375,0.21115502551794052,0.0998490521095693,-0.1058424107728526
1772445410311053000,0.526052978515625,0.22726620236337183,0.10446166047155857,-0.06969411580991
1772445410320986000,0.535986083984375,0.23352292467057703,0.11240355938673019,-0.05401175883579999
1772445410330918100,0.545918212890625,0.23312603430747986,0.11630860400125384,-0.030496644143108275
1772445410340851000,0.555850830078125,0.20909867751002312,0.08282675176858902,-0.01155711200395599
1772445410350783000,0.565782958984375,0.2156388929337263,0.05598886759504675,0.01207761048041284
1772445410360715800,0.5757158203125,0.2653969033151865,0.04242752136290073,0.031095249357074497
1772445410370647800,0.585647705078125,0.3552747426390648,0.016926877142488955,0.038240591067075724
1772445410380580900,0.595580810546875,0.4531026641845703,0.008086860343813895,0.03451382562890649
1772445410390514000,0.605513916015625,0.49612873596251006,0.018646394411474466,0.025301386188110335
1772445410400446000,0.615446044921875,0.4735942480713129,0.01947948423475027,-0.02915377816678956
1772445410410379000,0.62537890625,0.419286903822422,-0.0008878887504339218,-0.05430438510682434
1772445410420311000,0.63531103515625,0.343679581913352,-0.02290624381303787,-0.0002866349216550588
1772445410430244000,0.645244140625,0.2656581845998764,-0.0465082148052752,0.019136452083894983
1772445410440176000,0.655176025390625,0.16289105308651924,-0.046788493051379915,0.002152757587097585
1772445410450109000,0.66510888671875,0.0516004233777523,-0.0568877161309123,-0.02136477739154361
1772445410460041000,0.675041015625,-0.033710546422004696,-0.06865034237802028,-0.04337223660079762
1772445410469974000,0.68497412109375,-0.087698157197237,-0.06330109030455351,-0.08387699147388339
1772445410479906000,0.694906005859375,-0.12388415382206439,-0.087629183614254,-0.12708723331284708
1772445410489839000,0.704839111328125,-0.14656477218568323,-0.1263489365004003,-0.15165239591458812
1772445410499771000,0.71477099609375,-0.1963718824058771,-0.13632175672128796,-0.1662622465526685
1772445410509704000,0.724703857421875,-0.27912849154770375,-0.13741408200263977,-0.19664078074144198
1772445410519637000,0.734636962890625,-0.3739303432703018,-0.14868278725296258,-0.1863377787181176
1772445410529569000,0.744569091796875,-0.4677560434371233,-0.14572583714351056,-0.1621806032622233
1772445410539501800,0.754501708984375,-0.5540098470449447,-0.14276771799027918,-0.12465374082191846
1772445410549433900,0.764433837890625,-0.6023433775812387,-0.16109320988431572,-0.10216384099111891
1772445410559367000,0.774366943359375,-0.5436655631631613,-0.16806991702914237,-0.08348854014556854
1772445410569299000,0.784298828125,-0.4015928416997194,-0.19408304081633687,-0.09784594125938602
1772445410579232000,0.79423193359375,-0.17409399962425232,-0.23477307086214422,-0.15831404576087368
1772445410589164000,0.8041640625,0.04985094936192035,-0.2570097448505461,-0.24995525976177305
1772445410599097000,0.81409716796875,0.18554186083376406,-0.2806980789519846,-0.32146066277734936
1772445410609029000,0.824029052734375,0.22475918797850608,-0.3268840760655701,-0.3657778338117525
1772445410618962200,0.833962158203125,0.20916297491788863,-0.36766412248238917,-0.4061361842177808
1772445410628894000,0.84389404296875,0.18978139809966085,-0.41349166154712436,-0.42610378076303745
1772445410638827300,0.8538271484375,0.15602350540459156,-0.458555522762984,-0.4303507341504097
1772445410648760300,0.86376025390625,0.1720195314377546,-0.4939094524778425,-0.44635286113079636
1772445410658692000,0.873692138671875,0.19740531710684298,-0.5309888908110558,-0.4716979129306972
1772445410668625200,0.883625244140625,0.22091712559759616,-0.574648292056471,-0.4975250856917351
1772445410678557200,0.89355712890625,0.23830489825010298,-0.6256308757968246,-0.5111951895279809
1772445410688490200,0.903490234375,0.20906068358719349,-0.6706311702571809,-0.4845977995794266
1772445410698422300,0.91342236328125,0.1625274804711342,-0.7050036877192556,-0.4241427828883752
1772445410708355000,0.92335498046875,0.08714403044581413,-0.711165132958442,-0.37262181795500215
1772445410718287000,0.933287109375,-0.03946691799163818,-0.692513039458543,-0.32902532587796446
1772445410728220200,0.94322021484375,-0.19331249483525753,-0.6758294695526361,-0.28919938358189534
1772445410738152200,0.953152099609375,-0.3147749744683504,-0.6559354131676256,-0.2115516418864019
1772445410748085200,0.963085205078125,-0.36276071448028085,-0.6189850080415606,-0.0969083955477923
1772445410758017300,0.973017333984375,-0.3548497952252626,-0.5785143198348581,-0.007242911199806258
1772445410767950300,0.982950439453125,-0.2886000842481851,-0.567569878102839,0.06457538455668836
1772445410777883400,0.99288330078125,-0.17101649187505244,-0.5653295518301427,0.10888013450093567
1772445410787815400,1.0028154296875,0.0053343467652797695,-0.5306827474713325,0.15973441568650304
1772445410797748200,1.012748291015625,0.17300854247510433,-0.49435690398439763,0.19874599112607538
1772445410807680300,1.02268017578125,0.26371757192611694,-0.49286374281719325,0.21443375492766498
1772445410817613000,1.032613037109375,0.34824703595936296,-0.5252572152912617,0.2451764097210951
1772445410827545000,1.042545166015625,0.42666590815782546,-0.5662833454236388,0.31967575212195515
1772445410837478100,1.05247802734375,0.5082856222242117,-0.6037637657731771,0.3472241226524114
1772445410847410200,1.06241015625,0.5486334147036075,-0.6453399310037493,0.33891229444630444
1772445410857343200,1.07234326171875,0.5307049593031407,-0.6838619693607092,0.3130467259036377
1772445410867275300,1.082275146484375,0.48366029953360556,-0.7133744795709848,0.24615780370756982
1772445410877208300,1.092208251953125,0.376449632614851,-0.7461293327033519,0.16515253174509853
1772445410887140400,1.102140380859375,0.24380934088528156,-0.761852971535921,0.07410268949978054
1772445410897073200,1.1120732421875,0.09517360764443873,-0.8021183464288711,0.012969074860843829
1772445410907006200,1.122006103515625,-0.04074468284249305,-0.8182179789669811,-0.04439082079250365
1772445410916938200,1.131938232421875,-0.1737368567496538,-0.8310932426311075,-0.11680230580233036
1772445410926871300,1.141871337890625,-0.2570721425622701,-0.8496290162749588,-0.2132716340794228
1772445410936803000,1.151802978515625,-0.3213239577203989,-0.8722421223603188,-0.25569857092043385
1772445410946736400,1.161736328125,-0.2836252184450626,-0.8903715071603655,-0.23957933863271028
1772445410956668200,1.171668212890625,-0.16834931849241255,-0.8817939406901597,-0.26194820589972656
1772445410966601200,1.181601318359375,-0.017263269490003584,-0.8628864111244678,-0.3249330881282687
1772445410976533200,1.191533203125,0.09293021263182162,-0.8587950501576066,-0.382725023089908
1772445410986466000,1.201466064453125,0.15709025785326958,-0.8512751760467886,-0.4049993622075766
1772445410996398300,1.2113984375,0.13858137221634387,-0.8134855436176062,-0.42663364985603835
1772445411006331100,1.2213310546875,0.13319851013422013,-0.7581060400925577,-0.39417240937538445
1772445411016263200,1.23126318359375,0.15884616160988807,-0.691844492547214,-0.3301600289963186
1772445411026196200,1.2411962890625,0.19815584321320057,-0.6450180055730045,-0.32216479245871305
1772445411036129300,1.25112939453125,0.2578004568368196,-0.6171694830521941,-0.31153836716730143
1772445411046061300,1.261061279296875,0.30765666689574717,-0.5761937679328024,-0.271592049894575
1772445411055994400,1.270994384765625,0.3218769154280424,-0.5558690650455653,-0.21217271466050297
1772445411065926400,1.280926513671875,0.3309422654151916,-0.5594672356680035,-0.13734043224453926
1772445411075859200,1.290859130859375,0.3518628883689642,-0.5659875773474574,-0.07268527414964046
1772445411085791200,1.300791259765625,0.391807945266366,-0.6134817344501614,-0.05315575849439483
1772445411095724000,1.31072412109375,0.42056466867327685,-0.6848156168237328,-0.06630935047613457
1772445411105656000,1.320656005859375,0.43216392105221746,-0.7428576175563038,-0.09635602236203848
1772445411115589000,1.330589111328125,0.40719373044669627,-0.7690450749970972,-0.15549277779506518
1772445411125521200,1.340521240234375,0.31016718841195107,-0.7938349405996501,-0.16466807269640266
1772445411135454200,1.3504541015625,0.12228782454133033,-0.7883798900641501,-0.1385971908399835
1772445411145386200,1.36038623046875,-0.19198563014566897,-0.751545220272243,-0.08079294438604265
1772445411155319300,1.3703193359375,-0.5735007294565438,-0.7168525309450924,-0.01042618087842129
1772445411165251300,1.380251220703125,-0.9408803359091281,-0.7010347840882838,0.09505386285544372
1772445411175184100,1.39018408203125,-1.237035950103402,-0.6774408502720296,0.23844547576457262
1772445411185117200,1.4001171875,-1.406070912772417,-0.6600877105414867,0.25473878597756844
1772445411195049200,1.41004931640625,-1.4289520221441983,-0.587401390645653,0.19841221086075528
1772445411204982300,1.419982177734375,-1.2790887929350137,-0.49700288844853635,0.09720656564361416
1772445411214914300,1.429914306640625,-1.0110971969515086,-0.4006725119844079,-0.047436225503543386
1772445411224847400,1.439847412109375,-0.6867196968793868,-0.31294030638709663,-0.18599528542337937
1772445411234779100,1.449779052734375,-0.3517442304253578,-0.21526377601101992,-0.3167373605825007
1772445411244712200,1.459712158203125,-0.055984337550401685,-0.12463818705976008,-0.4426050163719803
1772445411254644200,1.469644287109375,0.23166297601759434,-0.02610562437623739,-0.5355750130249187
1772445411264577000,1.479576904296875,0.47057753059864044,-0.012938099767267704,-0.689358886276558
1772445411274509300,1.48950927734375,0.6637216831296682,0.05373042114377021,-0.742991838395223
1772445411284442000,1.499442138671875,0.7897609691590071,0.1027248998068273,-0.7637883965779095
1772445411294374100,1.5093740234375,0.8379466156572103,0.11123831499963999,-0.818329549582675
1772445411304307200,1.51930712890625,0.8028016525179147,0.1568468044862151,-0.8535071728825568
1772445411314239200,1.5292392578125,0.6925146468937396,0.19209332830384374,-0.8445746554948389
1772445411324172300,1.53917236328125,0.5118628961890935,0.2039301888309419,-0.7723620905905961
1772445411334105300,1.549105224609375,0.28623861581385135,0.23569486188217997,-0.6852361803233623
1772445411344037400,1.559037353515625,-0.014921674799919127,0.256686358115077,-0.6139190298888832
1772445411353970200,1.56897021484375,-0.3255027047097683,0.2775422452695668,-0.5317985997587442
1772445411363902200,1.578902099609375,-0.5398562340080738,0.26927418313995,-0.3777182277785614
1772445411373835300,1.588835205078125,-0.7120528755784035,0.21115400260463354,-0.2244522409211844
1772445411383767000,1.59876708984375,-0.8582634274989366,0.16793123921081424,-0.09635585796525702
1772445411393700000,1.6087001953125,-0.9431330832719802,0.15082316028252243,-0.004549607862066477
1772445411403632000,1.618632080078125,-0.9469470886021852,0.11386311054527759,0.07227591246403753
1772445411413565200,1.628565185546875,-0.8658768251121044,0.10688596500903368,0.11524053637832403
1772445411423497200,1.638497314453125,-0.7319067460834979,0.12263283858671783,0.09943983198786153
1772445411433430300,1.64843017578125,-0.5688368292987346,0.1475691269226372,0.012963161143288016
1772445411443362300,1.6583623046875,-0.3889788593202829,0.1542529886007309,-0.07126746607385576
1772445411453295000,1.668295166015625,-0.16486439898610114,0.19440175137668847,-0.13023549561016262
1772445411463227400,1.678227294921875,0.051150926044583316,0.21328312358781695,-0.1800449439179152
1772445411473160200,1.68816015625,0.2417845570594072,0.2728467809297144,-0.24837566242013126
1772445411483093200,1.69809326171875,0.39461014320552346,0.3529594514340162,-0.32582426481433213
1772445411493025300,1.708025390625,0.491548422434926,0.4234906391225755,-0.37420601840652523
1772445411502958300,1.717958251953125,0.5010013104349375,0.49013987081125376,-0.3471205892127007
1772445411512890000,1.72789013671875,0.5209533806174993,0.5505724199421703,-0.30069795206533745
1772445411522823400,1.737823486328125,0.5795943701565265,0.6289588511757552,-0.30950766505729405
1772445411532755200,1.747755126953125,0.6732265935778617,0.6727670132420956,-0.29995286931907755
1772445411542688300,1.757688232421875,0.7876245416522025,0.7398872234433889,-0.3111993810039013
1772445411552620300,1.767620361328125,0.8980027326911687,0.8037544231981039,-0.3691285690117627
1772445411562553000,1.777552978515625,1.0080155975490808,0.8311560787342488,-0.4275168258987367
1772445411572485000,1.787485107421875,1.126278988879919,0.822743785828352,-0.3986016239944845
1772445411582418200,1.797418212890625,1.168868422806263,0.8053782250076532,-0.36366533516980704
1772445411592350200,1.80735009765625,1.1355588584005831,0.7923094845980405,-0.3548545809982344
1772445411602283300,1.817283203125,1.0491823051959275,0.785566732339561,-0.34259843561314046
1772445411612215300,1.82721533203125,0.9182160841584205,0.764135821776092,-0.31403288739677515
1772445411622148400,1.8371484375,0.7542734761923551,0.6948441127546131,-0.24979619674254208
1772445411632080400,1.847080322265625,0.4881757311314344,0.6285540697671472,-0.1087931868698448
1772445411642013700,1.857013671875,0.1744464663237333,0.5686538739472627,0.01621328551303595
1772445411651946800,1.86694677734375,-0.17657821765542028,0.4756649168655276,0.15946889661811292
1772445411661878800,1.876878662109375,-0.5625812760353088,0.3890976633943617,0.29979188833739606
1772445411671811800,1.886811767578125,-0.9154676622331142,0.25177520519793034,0.4781072685163468
1772445411681744000,1.896743896484375,-1.1520353614270686,0.08346928745582699,0.6885659092679619
1772445411691677000,1.906677001953125,-1.2838053000628948,-0.06202697871550917,0.7932245536163449
1772445411701608700,1.916608642578125,-1.2626169660836457,-0.20684753758236765,0.7750631662428379
1772445411711541800,1.926541748046875,-1.0472247413873672,-0.3080167323797941,0.687572660446912
1772445411721473800,1.936473876953125,-0.6752841106295585,-0.4208930238448083,0.5726303398301824
1772445411731406600,1.946406494140625,-0.23814123212099073,-0.5453238517642021,0.40643224455490706
1772445411741338600,1.956338623046875,0.18042670977711678,-0.6480386685684323,0.2782373513942584
1772445411751271700,1.966271728515625,0.5100666604220867,-0.7238822834514081,0.19535273195859043
1772445411761203700,1.97620361328125,0.7002104620933532,-0.7766692862652241,0.15884601547941565
1772445411771136800,1.98613671875,0.7478454889714717,-0.7845236530274152,0.14438432287406175
1772445411781068800,1.99606884765625,0.6777776810109615,-0.7656466647304594,0.14980813802108167
1772445411791001900,2.006001953125,0.49870589297413825,-0.7283223117254674,0.18578323184158652
1772445411800935000,2.015934814453125,0.26644378201961516,-0.6651388564512133,0.25723606441970914
1772445411810867000,2.025866943359375,0.023460370564460754,-0.5925929679393768,0.31726781419739125
1772445411820799700,2.0357998046875,-0.16352175220549106,-0.49981940717399115,0.3968664707649499
1772445411830731800,2.045731689453125,-0.2980868745177984,-0.42434068008065223,0.42923170352522283
1772445411840664800,2.055664794921875,-0.3432639868497848,-0.37510727809518574,0.40926001532673834
1772445411850596600,2.0655966796875,-0.3435083169996738,-0.33482144493609667,0.35522977098617703
1772445411860529700,2.07552978515625,-0.3129565268695354,-0.29970921502262354,0.32274624560847875
1772445411870461700,2.085461669921875,-0.2624509129911661,-0.2973905628167093,0.31524595298096536
1772445411880394800,2.095394775390625,-0.18208266029059886,-0.3137326258085668,0.35780539362784475
1772445411890326800,2.105326904296875,-0.10393675981462001,-0.33016865069419143,0.41679695017021146
1772445411900259800,2.115259765625,-0.031603929531574246,-0.3604009996116161,0.4916480103518814
1772445411910191900,2.12519189453125,0.05689443813264369,-0.38438846279010175,0.5615956259988248
1772445411920124700,2.135124755859375,0.12057575992643832,-0.3895959683053195,0.6444749847374857
1772445411930056700,2.145056640625,0.1802373246848583,-0.40409781025797126,0.7119292491987347
1772445411939989800,2.15498974609375,0.24916356139481066,-0.4421306037932634,0.7556907956443727
1772445411949921800,2.164921875,0.3259329128205776,-0.5033997498787939,0.7702605152014642
1772445411959854800,2.174854736328125,0.4089350211560726,-0.5643937322847545,0.8388748364180326
1772445411969786600,2.18478662109375,0.45899055317938325,-0.6365621657863259,0.9047766838055104
1772445411979720000,2.194719970703125,0.44162440783679485,-0.6961984499730169,0.9108127490993588
1772445411989653000,2.204653076171875,0.33539982934594154,-0.7333093063578009,0.8969467938974499
1772445411999584800,2.214584716796875,0.2101841346591711,-0.7539186714053153,0.8991029490180313
1772445412009517600,2.224517578125,0.07156243043243884,-0.7676577122919261,0.940971813584864
1772445412019449600,2.23444970703125,-0.07940379158258437,-0.7836936319440603,0.9410689903490245
1772445412029382700,2.244382568359375,-0.22050211505591868,-0.8131595265336334,0.9227879221186042
1772445412039314700,2.254314697265625,-0.3434861051678657,-0.8141649041838943,0.8746289444316178
1772445412049247700,2.264247802734375,-0.39860067414641376,-0.8118987128175794,0.7682469103567302
1772445412059179800,2.2741796875,-0.3956108446806669,-0.7975194743312894,0.6251520062386989
1772445412069112800,2.28411279296875,-0.33743747265338897,-0.7751996521040797,0.5015705616902559
1772445412079044900,2.294044921875,-0.2617266903698444,-0.7325928286515175,0.3966285703558475
1772445412088978000,2.30397802734375,-0.13057809850275515,-0.6844217952005565,0.3262712779294699
1772445412098910000,2.313909912109375,0.03401157519519329,-0.6237826175816357,0.2819759899333119
1772445412108842800,2.3238427734375,0.18846388576030731,-0.568956510155648,0.2244169138794765
1772445412118774500,2.3337744140625,0.3297662073731422,-0.530306899896264,0.1706398953813128
1772445412128707600,2.34370751953125,0.4138058420628309,-0.536013879366219,0.1185171834288165
1772445412138639600,2.3536396484375,0.5213859268158674,-0.532294128190726,0.09926025590356438
1772445412148572700,2.36357275390625,0.6008008243143558,-0.5867373737789691,0.1268148004464805
1772445412158505700,2.373505615234375,0.6596165858983993,-0.723503805527836,0.13319752375353128
1772445412168437800,2.383437744140625,0.7102513791143894,-0.7358022922173142,0.16042996020261197
1772445412178370800,2.393370849609375,0.7394494165480137,-0.7252309215813875,0.06571116538727656
1772445412188302800,2.403302734375,0.7224871758311987,-0.6867101983986794,-0.0394643607083708
1772445412198235600,2.413235595703125,0.5998579905062914,-0.605207534840703,-0.058015258856117725
1772445412208167700,2.423167724609375,0.24728490804135797,-0.4933125094980001,-0.002605944714695215
1772445412218100700,2.433100830078125,-0.2656318811148405,-0.3077858462333679,0.09960289532877505
1772445412228032800,2.44303271484375,-0.9036766866743564,-0.0519784629099071,0.3052218774968758
1772445412237965800,2.4529658203125,-1.6195049891382456,0.22221542177982628,0.5871338988158852
1772445412247897900,2.46289794921875,-2.0933096650898455,0.47118725999481975,0.7687377626135945
1772445412257831000,2.472830810546875,-2.290147411441803,0.6131352591000497,0.7987523771271109
1772445412267762700,2.4827626953125,-2.207843806764483,0.7170940115507691,0.7955914288781583
1772445412277695700,2.49269580078125,-1.8410247568041085,0.7839027446500957,0.7727507976472378
1772445412287627800,2.502627685546875,-1.3170757015019654,0.7615773694649338,0.7044754991266876
1772445412297560600,2.512560546875,-0.7837877399682999,0.6708768886465579,0.5935521683603525
1772445412307492600,2.52249267578125,-0.2826625108927488,0.5081183028332888,0.4260803633548319
1772445412317425700,2.53242578125,0.15016367346048354,0.3239044757328927,0.23944245091266927
1772445412327358700,2.542358642578125,0.49622459755241866,0.1298581136651337,0.05115187589265406
1772445412337290800,2.552290771484375,0.7876286333054303,-0.026921032412350176,-0.08275821657702326
1772445412347223800,2.562223876953125,1.0146475829094648,-0.17980799335688352,-0.14741137907765806
1772445412357155800,2.57215576171875,1.1763941421359776,-0.29114786903485657,-0.22699505727179348
1772445412367089000,2.5820888671875,1.2813842103958129,-0.3280986394871026,-0.3393050200909376
1772445412377021000,2.59202099609375,1.293622345200181,-0.34772352354191244,-0.4304354898244142
1772445412386953700,2.60195361328125,1.1937182019025088,-0.33749468273334204,-0.45353046114258466
1772445412396885800,2.6118857421875,0.9748340434372424,-0.2989311433222145,-0.49957880335114896
1772445412406818800,2.62181884765625,0.6666033760458231,-0.24749445913881063,-0.49499936660639937
1772445412416750600,2.63175048828125,0.30205636267066,-0.14832695955261588,-0.3784665984604507
1772445412426683600,2.64168359375,-0.07046119119226932,-0.02222681018151343,-0.21719474407359957
1772445412436615700,2.65161572265625,-0.36752339883744717,0.14606464064382016,-0.0762506613139063
1772445412446548700,2.661548828125,-0.568310175076127,0.3179404527619481,0.08264905711412429
1772445412456480800,2.671480712890625,-0.6649170303940772,0.47895387540832157,0.16923026604540645
1772445412466413800,2.681413818359375,-0.6488555379092693,0.5941618977565318,0.2204753001142293
1772445412476345900,2.691345947265625,-0.5126385567367077,0.7039085128936916,0.24700784466564654
1772445412486278700,2.701278564453125,-0.2640758838444948,0.7695736289158464,0.20466347154155373
1772445412496210700,2.711210693359375,0.06475918015837669,0.8307438446715474,0.1550274070393294
1772445412506143700,2.721143798828125,0.3216179722309112,0.9207785550575703,0.09268617474287748
1772445412516076800,2.731076904296875,0.413680754378438,1.000217417953536,0.1116002801798284
1772445412526008800,2.7410087890625,0.395252532762289,1.077432175059244,0.13017726261690257
1772445412535942000,2.75094189453125,0.30425474949777126,1.1349210719536988,0.13563267847858368
1772445412545873700,2.760873779296875,0.14468728787600993,1.13426158513166,0.17608897283375263
1772445412555807000,2.770806884765625,-0.02804360670149326,1.1563601658236236,0.22241554746180772
1772445412565738800,2.78073876953125,-0.19002865085899828,1.169016818301007,0.22924254393763838
1772445412575671600,2.790671630859375,-0.3350432709932327,1.1579830908503383,0.2092635126829147
1772445412585603800,2.800603759765625,-0.446452558645606,1.1455276600334792,0.15147190651483833
1772445412595536600,2.81053662109375,-0.5182184026956558,1.1167844536952674,0.06468246166035532
1772445412605468700,2.82046875,-0.5018856920540332,1.0251917002122848,-0.03957848860733211
1772445412615401700,2.830401611328125,-0.4167547549962997,0.9092964993175119,-0.15929551281258464
1772445412625333800,2.840333740234375,-0.2849725414007902,0.7791531389702111,-0.3488886948637664
1772445412635266800,2.850266845703125,-0.13121873449385166,0.6447067476667463,-0.5436589872919023
1772445412645198800,2.86019873046875,0.06881283946335315,0.5231423420291393,-0.6811152279358357
1772445412655132000,2.8701318359375,0.25822715781629085,0.39441571661196645,-0.7665837994500995
1772445412665063700,2.880063720703125,0.4205640841513872,0.28039807309210296,-0.8117697526756673
1772445412674996700,2.889996826171875,0.5533049136459827,0.19138452244736254,-0.8323645046759396
1772445412684928800,2.8999287109375,0.6456394984722137,0.12198365396298468,-0.819560918008536
1772445412694861600,2.909861572265625,0.672813921123743,0.0652466714143753,-0.8251377682927995
1772445412704793600,2.919793701171875,0.6130974113076925,0.022822437987104056,-0.820438431495428
1772445412714726700,2.9297265625,0.5550175627827644,-0.01255428808145225,-0.7905776193041354
1772445412724659700,2.93965966796875,0.4710965860366821,-0.05423471740409731,-0.7756410391960292
1772445412734591700,2.949591796875,0.359026788648963,-0.09451938151940703,-0.7178415419824421
1772445412744524800,2.95952490234375,0.14476736737489698,-0.12094357032552361,-0.6290898571442812
1772445412754456800,2.969456787109375,-0.06772855135798454,-0.15157960467301307,-0.5272166787959635
1772445412764389600,2.9793896484375,-0.2100871040254831,-0.19895313107073306,-0.3961967548098415
1772445412774322000,2.989322021484375,-0.32371582129299636,-0.24388350210003554,-0.28137955841012297
1772445412784254700,2.999254638671875,-0.4530757761776447,-0.28236791186034677,-0.2381382364463061
1772445412794186800,3.009186767578125,-0.57292965157032,-0.31670594253093004,-0.15032171356640756
1772445412804119800,3.019119873046875,-0.6166489663094282,-0.36624760674796997,-0.09185732270330191
1772445412814051600,3.029051513671875,-0.5918693298399448,-0.37143889178074896,-0.10820435413122176
1772445412823984600,3.038984619140625,-0.49026948854029173,-0.3884679141234606,-0.12575067834630607
1772445412833916700,3.048916748046875,-0.36739246593415736,-0.41282121493965385,-0.13262151396386324
1772445412843849700,3.058849609375,-0.2584557058751583,-0.4414949362382293,-0.15286394539512693
1772445412853781800,3.06878173828125,-0.16635025362968445,-0.45725817642882466,-0.17064597806222737
1772445412863714800,3.07871484375,-0.05019581727683544,-0.4547829454217106,-0.1471538241200149
1772445412873646800,3.088646728515625,0.06586918722689152,-0.42929603746570644,-0.13238266370669008
1772445412883579600,3.09857958984375,0.1842939065992832,-0.3885616568215191,-0.14652444017529487
1772445412893511700,3.10851171875,0.25948621796667576,-0.3640983928248286,-0.16996588684357702
1772445412903444700,3.11844482421875,0.36044659231901166,-0.36112756032049653,-0.19047814819216727
1772445412913377800,3.128377685546875,0.461674677696824,-0.3396709307938814,-0.17777137296274304
1772445412923309800,3.138309814453125,0.5228998385101556,-0.32621596754565835,-0.15909356049969792
1772445412933243000,3.148242919921875,0.5333575196385383,-0.3397309904180467,-0.1358689714524895
1772445412943174700,3.158174560546875,0.5541314275979995,-0.35538675164617595,-0.15981281468495726
1772445412953107700,3.168107666015625,0.5507376935064793,-0.3774578598093241,-0.19967143540792165
1772445412963039700,3.178039794921875,0.5404045155405998,-0.401863036943227,-0.22921127201654015
1772445412972972500,3.18797265625,0.518859623208642,-0.45199879459589715,-0.2161087754677981
1772445412982904600,3.197904541015625,0.47315410308837885,-0.5103424816887825,-0.19878486183173955
1772445412992837600,3.207837646484375,0.42785950185656546,-0.5764475965633988,-0.1825670828066766
1772445413002769700,3.217769775390625,0.353911053070426,-0.6326319136653095,-0.16327040779292581
1772445413012702700,3.22770263671875,0.2565641930401325,-0.6993159244064241,-0.17066358678415416
1772445413022634800,3.237634765625,0.09912848275005817,-0.7628915208034217,-0.13671039071269334
1772445413032567800,3.24756787109375,-0.10010697239339351,-0.830277250073105,-0.05709536753222346
1772445413042499800,3.257499755859375,-0.2949240265727043,-0.8862048159349709,0.01065371515713632
1772445413052433000,3.267432861328125,-0.4682628239154815,-0.9134402480587362,0.01108509231172502
1772445413062365000,3.277364990234375,-0.5933405714362859,-0.9379269659962505,0.0009754209034144878
1772445413072297700,3.287297607421875,-0.7252478727161884,-0.9585739596404135,0.01160268644504249
1772445413082229500,3.2972294921875,-0.8775169940233231,-0.9611189679481088,0.018408274806663395
1772445413092162600,3.30716259765625,-0.9859978270083666,-1.0005091674417257,0.029329335663095115
1772445413102094600,3.317094482421875,-1.0852198332607745,-1.0104824260540306,0.02552314831316471
1772445413112027600,3.327027587890625,-1.102302485486865,-0.9777508076667785,0.015752645731344817
1772445413121960700,3.336960693359375,-1.0335352387309074,-0.9405258233830333,0.0440940663356334
1772445413131892700,3.346892822265625,-0.8670482069790363,-0.916047069556266,0.022173545624315737
1772445413141825800,3.35682568359375,-0.6320493645370007,-0.875842704135552,-0.04925101070739329
1772445413151757800,3.3667578125,-0.37542204313278194,-0.825136891509965,-0.1250230216588825
1772445413161690600,3.376690673828125,-0.14841303040087223,-0.763003237549588,-0.18354075014442203
1772445413171622700,3.38662255859375,0.06614332799315452,-0.7117459285210818,-0.21282069370783865
1772445413181555700,3.3965556640625,0.23360943391025066,-0.6881742065366357,-0.24724676798805592
1772445413191487700,3.40648779296875,0.3550526243209839,-0.6958601579293608,-0.2792882121540606
1772445413201420800,3.4164208984375,0.44901568713188167,-0.7074768728997558,-0.2967806872900575
1772445413211352800,3.426352783203125,0.4646300203710794,-0.7398741447661071,-0.26404030107446014
1772445413221286000,3.436285888671875,0.41234044568538664,-0.7911961165286601,-0.24005305709168315
1772445413231217700,3.4462177734375,0.3570353225708008,-0.831598707935214,-0.20883447361588478
1772445413241150700,3.456150634765625,0.33702830733060835,-0.8705155177634208,-0.15660188981443643
1772445413251082800,3.466082763671875,0.31648060934245587,-0.8688371362224221,-0.1211940014226362
1772445413261015600,3.476015625,0.21713176183998584,-0.8280475182596594,-0.11643486072942615
1772445413270947600,3.485947509765625,0.028992870250344274,-0.7758726559948176,-0.11863430700246244
1772445413280880600,3.495880615234375,-0.28507424820959565,-0.6731427877519279,-0.10601279890369623
1772445413290812700,3.505812744140625,-0.6733639562219381,-0.5196382794309408,-0.08193864382244646
1772445413300745700,3.515745849609375,-1.0612485905647278,-0.36993484389334913,-0.08638159470595419
1772445413310677800,3.525677734375,-1.3894231448322534,-0.20694529886841773,-0.0774299707589671
1772445413320610800,3.53561083984375,-1.5836358033776283,-0.02425086335502565,-0.12378642906863242
1772445413330543900,3.5455439453125,-1.6374568254142998,0.1044423712491989,-0.22245145902540533
1772445413340476000,3.555475830078125,-1.510645385968685,0.1650876132827252,-0.3643338090158999
1772445413350408700,3.56540869140625,-1.1947457913845776,0.19172091479487716,-0.48843792573157696
1772445413360340700,3.5753408203125,-0.7385942610234022,0.21537673486620187,-0.6254395910084247
1772445413370273800,3.585273681640625,-0.2806856578618288,0.21917064725644886,-0.7660751192755997
1772445413380205600,3.59520556640625,0.08022855196893215,0.2062424112960696,-0.8780848570391535
1772445413390138600,3.605138671875,0.415275330093503,0.18106186587549744,-0.993902243457362
1772445413400070700,3.615070556640625,0.6996481520354747,0.15512611817345023,-1.119604771813005
1772445413410003700,3.625003662109375,0.9626227966398,0.11110416722595691,-1.1206186250306664
1772445413419935700,3.634935791015625,1.145534893491864,0.04909603934139013,-1.035124115357548
1772445413429868800,3.644868896484375,1.2072691728711127,0.014960691636055706,-0.9315855610802769
1772445413439800800,3.65480078125,1.1355448298752306,0.0020041794292628766,-0.8319218024097382
1772445413449733600,3.664733642578125,0.9759966574758291,0.06404694023579359,-0.7199658406600355
1772445413459665700,3.674665771484375,0.7689508208423852,0.1479848681166768,-0.5625119736587628
1772445413469598700,3.6845986328125,0.5770955390781164,0.25169497956857084,-0.37366891585513945
1772445413479530800,3.69453076171875,0.3973889602690935,0.3534402206882834,-0.15771565974261612
1772445413489463800,3.7044638671875,0.2402203764826059,0.4666546580664813,0.0007116554006934165
1772445413499395600,3.7143955078125,0.11276830104589462,0.6113002987578511,0.12797423614729195
1772445413509328600,3.72432861328125,0.06502163048684596,0.7676645804241299,0.2502025125211105
1772445413519260700,3.7342607421875,0.07924129449725151,0.8816882883585989,0.36878655064105986
1772445413529193700,3.74419384765625,0.14774959805607796,0.9902924554623663,0.4803901187565177
1772445413539126500,3.75412646484375,0.25078093346357344,1.093609768204391,0.5472939462607727
1772445413549058600,3.76405859375,0.40131694736778734,1.1479070294506848,0.604255860139057
1772445413558991600,3.77399169921875,0.5903454812735319,1.170546146760136,0.7264421970672905
1772445413568923600,3.783923583984375,0.7458686359405517,1.1751786288663744,0.7977231802098452
1772445413578856700,3.793856689453125,0.9233721517473459,1.1583492207489907,0.7688548131220042
1772445413588788700,3.803788818359375,1.1193588342279195,1.117784862909466,0.7391785637173801
1772445413598721800,3.8137216796875,1.27527244951725,1.0527138403229415,0.746013597369194
1772445413608653800,3.82365380859375,1.287753160905838,0.9543651097737252,0.7521009544588625
1772445413618587000,3.8335869140625,1.1117980435848236,0.8658265562295914,0.6922763080932199
1772445413628519000,3.843518798828125,0.7177619008749723,0.7985948484778403,0.5800915790889412
1772445413638451500,3.853451416015625,0.1944587422609329,0.6968453695744276,0.508350869480148
1772445413648383500,3.863383544921875,-0.2739355990797281,0.5815770684063434,0.4668771417107433
1772445413658316300,3.87331640625,-0.7275503044396638,0.4961911336742341,0.45635110805388535
1772445413668248300,3.883248291015625,-1.2064064185619354,0.43688525048568844,0.41639315514229236
1772445413678181400,3.893181396484375,-1.6535738474786281,0.30943375957086683,0.32732049472145736
1772445413688113400,3.903113525390625,-1.9752210458040236,0.15449147353172302,0.24531481354478746
1772445413698046500,3.91304638671875,-2.1022481738269327,0.048093145909160376,0.13653015704127028
1772445413707978500,3.922978515625,-2.0205074637293814,-0.08731865636035799,-0.00161278722519055
1772445413717911600,3.93291162109375,-1.7169518024116754,-0.18966463985219598,-0.1340260469995439
1772445413727843600,3.942843505859375,-1.2888222514420746,-0.22735797230005264,-0.25287311996985223
1772445413737776600,3.952776611328125,-0.7849854253202676,-0.23865531912297008,-0.39614385557882487
1772445413747708700,3.962708740234375,-0.303591317152977,-0.22628946628570556,-0.48457770663946864
1772445413757641500,3.972641357421875,0.14055121098458767,-0.18582783816829324,-0.4585372564539313
1772445413767574500,3.982574462890625,0.5611246474862098,-0.1008542836293578,-0.3935017435722053
1772445413777506300,3.99250634765625,0.9198094908297061,-0.021350538803637027,-0.29375034315083176
1772445413787439600,4.002439697265625,1.221483576184511,0.03219897281527519,-0.16399758955631405
1772445413797371400,4.012371337890625,1.434967336910963,0.12255728913247585,-0.011146905501559376
1772445413807304400,4.022304443359375,1.4952403115659951,0.1830178953140974,0.12936132485782728
1772445413817236500,4.032236572265625,1.4400462476104496,0.23431845896244047,0.31076153757590796
1772445413827169500,4.04216943359375,1.3074024487495421,0.3048040539436042,0.5296183331102132
1772445413837101600,4.0521015625,1.1582172649323939,0.3683708094470203,0.7209035599015653
1772445413847034400,4.062034423828125,0.9263380158156156,0.41929070321470496,0.8600916658394038
1772445413856966400,4.07196630859375,0.6592524287611246,0.4227496114969253,0.9992315487213432
1772445413866899500,4.0818994140625,0.4399170193970203,0.397731197835505,1.15668610984236
1772445413876831500,4.09183154296875,0.2736731487512588,0.3580480067446828,1.2690867466196416
1772445413886764500,4.1017646484375,0.15696575469076632,0.29887860941737887,1.2933112334243952
1772445413896696600,4.111696533203125,0.06238543676435947,0.21516645311638713,1.2787611684158444
1772445413906629600,4.121629638671875,-0.0392044676631689,0.10801394612565636,1.1985804741766304
1772445413916561400,4.1315615234375,-0.13984920019507407,-0.010604249992221593,1.0566003994327038
1772445413926494500,4.141494384765625,-0.1801683511018753,-0.149553870999068,0.9725273739300667
1772445413936426500,4.151426513671875,-0.1546188993036747,-0.24329846875369548,0.8824277816142886
1772445413946359300,4.161359375,-0.14004969120323657,-0.35219358162805436,0.7496783304218202
1772445413956291300,4.171291259765625,-0.13330723120570181,-0.47072154217921197,0.6201466722320765
1772445413966224400,4.181224365234375,-0.12563888853490351,-0.5827745345626026,0.55851223649811
1772445413976156400,4.191156494140625,-0.13832652067244053,-0.6798845170971006,0.5279018115159124
1772445413986089500,4.20108935546875,-0.157464351862669,-0.765577910343185,0.46135750150643284
1772445413996022500,4.2110224609375,-0.1530804376900196,-0.8161693758741021,0.3962124638356268
1772445414005954600,4.22095458984375,-0.15600187809467314,-0.8433552697677165,0.34305224379524585
1772445414015887600,4.2308876953125,-0.16336510033905505,-0.8553085962813347,0.2602268437335267
1772445414025819600,4.240819580078125,-0.19702888500988483,-0.8798340387940407,0.19512886007484048
1772445414035752400,4.25075244140625,-0.22649872512221336,-0.9127998312633484,0.15092473922716454
1772445414045684500,4.2606845703125,-0.2257125431805849,-0.9115921359740197,0.14197616575378924
1772445414055617500,4.270617431640625,-0.17994973991513252,-0.9067902155850082,0.12812864125771448
1772445414065549300,4.28054931640625,-0.13734861555099487,-0.918299086266756,0.08347214613319374
1772445414075482400,4.290482421875,-0.12647300127148628,-0.9212790519256144,0.045714087019208816
1772445414085414400,4.300414306640625,-0.11587795749902724,-0.9158962629087268,0.047332765129068866
1772445414095347500,4.310347412109375,-0.11594400847256182,-0.9188506557349115,0.09217769549777731
1772445414105279500,4.320279541015625,-0.12035773326158523,-0.9275701148938387,0.1496023589164484
1772445414115212500,4.330212646484375,-0.14704349561333654,-0.9456373942431062,0.16678201437676324
1772445414125144600,4.34014453125,-0.19214228201210498,-0.9519719310268759,0.20518700222531333
1772445414135077400,4.350077392578125,-0.2320125201076269,-0.9788803962185978,0.2617051178588532
1772445414145009400,4.360009521484375,-0.2943833438247442,-1.0034882563177496,0.34159543258305636
1772445414154942500,4.3699423828125,-0.34171091218888755,-1.0131026184897869,0.4614386039186269
1772445414164874500,4.37987451171875,-0.40950200738906856,-1.0332584676161407,0.5495384007193148
1772445414174807600,4.3898076171875,-0.5375350975841283,-1.0534623206026852,0.590435607242398
1772445414184739300,4.3997392578125,-0.6646113254457712,-1.0692778755024075,0.6210821995165199
1772445414194672600,4.409672607421875,-0.7187187632083892,-1.078321817375347,0.6808457633446902
1772445414204604400,4.4196044921875,-0.7322656425237655,-1.0975476191099733,0.706993107970804
1772445414214537500,4.429537353515625,-0.6657505586087703,-1.1364602642197161,0.6836177853412926
1772445414224469500,4.439469482421875,-0.5369359626471996,-1.167587516150251,0.6902521818544716
1772445414234402300,4.44940234375,-0.33052433226406575,-1.1734586001407354,0.6397210682086646
1772445414244335400,4.45933544921875,-0.16490414647459983,-1.1268369150236248,0.5476674192156642
1772445414254267400,4.469267333984375,-0.08699497736394404,-1.0014248209819197,0.4152532278595492
1772445414264200400,4.479200439453125,-0.1327893448114395,-0.8474049104847013,0.31289719789773224
1772445414274132500,4.489132568359375,-0.3098784345984459,-0.6559023876808583,0.3010331571027636
1772445414284065500,4.4990654296875,-0.6451385632127523,-0.44376448860540985,0.37493429614845664
1772445414293997600,4.50899755859375,-1.0342214674293995,-0.2242076915755868,0.4651177308227867
1772445414303930600,4.5189306640625,-1.393269298866391,-0.0477443324714899,0.5525204852700233
1772445414313862700,4.528862548828125,-1.5779203483402728,0.10615268229842185,0.626961832139641
1772445414323795500,4.53879541015625,-1.5046043522387742,0.20822525567635894,0.7501768545284867
1772445414333727200,4.548727294921875,-1.1819950308829545,0.2852811689585447,0.8276004320792854
1772445414343660300,4.558660400390625,-0.7040829196125269,0.3058206836402416,0.776343780637905
1772445414353592300,4.56859228515625,-0.21280513081252575,0.3445112104319036,0.6653873513195663
1772445414363525400,4.578525390625,0.21261633024215698,0.37150238547101616,0.536240162402764
1772445414373457400,4.58845751953125,0.5863987894743681,0.3647412207730114,0.35223873594403265
1772445414383390500,4.598390380859375,0.9130869045764207,0.3777629071705043,0.20550551185626537
1772445414393322500,4.608322509765625,1.145883853060007,0.3935736397646367,0.11993471294338814
1772445414403255600,4.618255615234375,1.265936465895176,0.4342630852885544,0.05004886482050642
1772445414413187600,4.6281875,1.2630091802716255,0.502260955107212,-0.027070140293147412
1772445414423120400,4.638120361328125,1.161708614179492,0.5499823450945317,-0.08813907849830575
1772445414433052400,4.648052490234375,0.9785264682143926,0.5800377300098538,-0.12798663897113874
1772445414442985500,4.6579853515625,0.7333131057500839,0.605740911065042,-0.13803056080001405
1772445414452917500,4.66791748046875,0.44110944405198094,0.6185203131392598,-0.11079180420800111
1772445414462850600,4.6778505859375,0.12134908238649368,0.6293187705293297,-0.05342870738399215
1772445414472783600,4.68778369140625,-0.1449678583830595,0.6684340986043215,-0.012813715335773303
1772445414482715400,4.69771533203125,-0.37668987111151214,0.7579226463496684,-0.03549985012472607
1772445414492648400,4.7076484375,-0.5605325268119573,0.9015868747882545,-0.09413750606235116
1772445414502580500,4.71758056640625,-0.6314022988051176,1.080600210636109,-0.14927596737314014
1772445414512513300,4.72751318359375,-0.6095359194338321,1.2296661519877612,-0.19913404059559106
1772445414522445600,4.737445556640625,-0.45368426346480845,1.3267711660861967,-0.16670597173217683
1772445414532378400,4.74737841796875,-0.1963414872676134,1.4057741217829287,-0.18918726813141257
1772445414542310400,4.757310302734375,0.12051263156235217,1.457337866412103,-0.20624197290465235
1772445414552243500,4.767243408203125,0.4386421771556139,1.4896286091640591,-0.1697969600174576
1772445414562175500,4.777175537109375,0.7234311786830425,1.4856838170610367,-0.15713433445701375
1772445414572108500,4.787108642578125,0.9133522775143385,1.4538602534294127,-0.1827512802671641
1772445414582040600,4.79704052734375,0.9985071799695491,1.4299176523059605,-0.19273911539409308
1772445414591973600,4.8069736328125,1.0534066448926924,1.4016218244090675,-0.108146733059315
1772445414601905700,4.81690576171875,1.0263871205419302,1.3415211375810205,-0.009415369001217186
1772445414611838500,4.82683837890625,0.8673726166278123,1.2529881369948386,0.07448619065834208
1772445414621770500,4.8367705078125,0.5879314058691263,1.1555533064201473,0.1933080195895396
1772445414631703300,4.846703369140625,0.2565431502521038,1.0285429834015667,0.3181540224473923
1772445414641636000,4.856635986328125,-0.06952712521255015,0.8720772871874273,0.46574762622416016
1772445414651569200,4.866569091796875,-0.3345283072084188,0.6990615843191742,0.5795584220603108
1772445414661501200,4.876501220703125,-0.5072539410889149,0.49162747902050613,0.6595951047189533
1772445414671434200,4.886434326171875,-0.6216764390826225,0.31324294259548185,0.7260561934243888
1772445414681366300,4.8963662109375,-0.6686813513636589,0.1393470958918333,0.7536413888338953
1772445414691299300,4.90629931640625,-0.6693786859780549,-0.031602175965905185,0.7643610088340937
1772445414701231400,4.9162314453125,-0.6949690543085336,-0.16397607184424995,0.7492574746612459
1772445414711164200,4.9261640625,-0.7130541615754366,-0.28558804295063017,0.6987164972085506
1772445414721096000,4.936095947265625,-0.6772989575833082,-0.384982921551913,0.6656041358754038
1772445414731029000,4.946029052734375,-0.5999485913991928,-0.4622434174954891,0.6333950800575315
1772445414740962000,4.955962158203125,-0.49599371140599247,-0.4995639711081981,0.5757405442725867
1772445414750894000,4.96589404296875,-0.42266427130103107,-0.5335577183857559,0.5170312387377023
1772445414760827100,4.9758271484375,-0.4206032471179962,-0.5306608279004693,0.48186110462453213
1772445414770759200,4.98575927734375,-0.43816754538118835,-0.4935850428290665,0.4353544972544536
1772445414780692200,4.995692138671875,-0.4744833058655262,-0.4290371673338115,0.3932831323854625
1772445414790624300,5.005624267578125,-0.49017713408172126,-0.339263226775825,0.34427930137217044
1772445414800557000,5.01555712890625,-0.4414221632629633,-0.2671585061602294,0.2910813796699047
1772445414810489000,5.025489013671875,-0.34086744710206984,-0.2023565097734332,0.22737295067347585
1772445414820422100,5.035422119140625,-0.17203823613822458,-0.1509720672339201,0.19299979389058425
1772445414830354200,5.045354248046875,-0.03159165457189083,-0.09403832000419497,0.14584033036865293
1772445414840287200,5.055287353515625,0.06863222219944,-0.02681932560354471,0.13549685020446778
1772445414850219300,5.06521923828125,0.18084873458147047,0.01632262763902545,0.13895948481373488
1772445414860152300,5.07515234375,0.2935211740374565,0.026220482927560806,0.14578914817068725
1772445414870084000,5.085083984375,0.3850076176017523,0.04584229824244976,0.14979447482191025
1772445414880017200,5.09501708984375,0.43346272869110103,0.07489815072640776,0.182078897430934
1772445414889949200,5.10494921875,0.4769739536374807,0.07964680655822158,0.19579521502908317
1772445414899882000,5.114882080078125,0.5162620079308748,0.06477203963994979,0.20903131136223674
1772445414909814000,5.12481396484375,0.5390197831839323,0.00448839746043086,0.24447898377515373
1772445414919747000,5.1347470703125,0.5652028567105531,-0.06425444550663233,0.28391094005126505
1772445414929679000,5.14467919921875,0.5830109006017447,-0.12441577648073435,0.3099118619440123
1772445414939612200,5.154612060546875,0.613159955149889,-0.18485241726487875,0.3231455105917528
1772445414949544200,5.164544189453125,0.6053028119087219,-0.24114275202453134,0.30249687297977507
1772445414959477200,5.174477294921875,0.593273351418972,-0.266060774051398,0.271142899621278
1772445414969409300,5.1844091796875,0.558880667951703,-0.3068010729797184,0.26047398689500983
1772445414979342300,5.19434228515625,0.480748211479187,-0.34267946496009827,0.28598617542274296
1772445414989274000,5.204274169921875,0.42656887752413747,-0.35223873594403265,0.29723931777775287
1772445414999207000,5.21420703125,0.3956657897382974,-0.33838805137649175,0.2689369870748371
1772445415009140200,5.22414013671875,0.38597909298241134,-0.3353616892926395,0.22748581819711253
1772445415019072000,5.234072021484375,0.38889877982139587,-0.3322287980943918,0.20435066099902613
1772445415029005000,5.244005126953125,0.3623194004535675,-0.33032515643015503,0.19810634151566772
1772445415038937000,5.25393701171875,0.3476391331940889,-0.3620261165954172,0.21925651717530562
1772445415048870100,5.2638701171875,0.33527649522721764,-0.4097233950547874,0.2574607400210574
1772445415058802200,5.27380224609375,0.32180092758238316,-0.4952436236910522,0.25279618227612227
1772445415068735200,5.2837353515625,0.2873386860102415,-0.6076305242039263,0.23720053547108544
1772445415078667300,5.293667236328125,0.26289222701787945,-0.680674863757193,0.2144399654727429
1772445415088600000,5.30360009765625,0.21487492282390594,-0.7463219326660037,0.2006192193857394
1772445415098532000,5.313531982421875,0.11898819847404957,-0.8166760102219879,0.1813966690541245
1772445415108465200,5.323465087890625,-0.011653028392791748,-0.8892802047923207,0.17589465583804995
1772445415118397200,5.333397216796875,-0.13658289187550543,-0.9361774189151822,0.20347303791427984
1772445415128330200,5.343330322265625,-0.2734299876451492,-0.9722440269440412,0.2413778759546578
1772445415138262000,5.353261962890625,-0.4208370558738708,-0.9845474820695816,0.2529969655452296
1772445415148195000,5.363195068359375,-0.5556581987738609,-0.9666057287961244,0.2313720302470028
1772445415158127000,5.373127197265625,-0.6702046154081821,-0.8885521827787161,0.17782756012938916
1772445415168060200,5.38306005859375,-0.8018880448043346,-0.7685717583969235,0.10285130266547203
1772445415177992200,5.3929921875,-0.926264366057515,-0.6783613261178135,-0.013601385981589555
1772445415187925000,5.402925048828125,-0.9714227736890315,-0.6186464237369597,-0.13355431956825778
1772445415197857000,5.41285693359375,-0.9023802171230315,-0.5625665168575942,-0.2804789928412065
1772445415207790000,5.4227900390625,-0.7362433139830827,-0.5330313564240932,-0.43688214521314944
1772445415217722000,5.43272216796875,-0.49030455985367294,-0.5716758521169424,-0.5791098745752126
1772445415227655200,5.4426552734375,-0.21016016926169395,-0.6165484285444021,-0.6924401203528047
1772445415237587200,5.452587158203125,0.05271276853382587,-0.67859645004794,-0.7591197471797466
1772445415247520300,5.462520263671875,0.2751782926172018,-0.7045350472941995,-0.7920754566464573
1772445415257452300,5.472452392578125,0.47164311400353903,-0.6701645756587385,-0.868940742727369
1772445415267385300,5.48238525390625,0.5699778160274028,-0.6374205361813307,-0.9788353149678558
1772445415277318100,5.492318115234375,0.5426847354322671,-0.551032877060771,-1.033013845205307
1772445415287250000,5.50225,0.3108358814537525,-0.44368747784644363,-0.9088230365868657
1772445415297183000,5.512182861328125,-0.09528992750048637,-0.2588651634588838,-0.7143887711800635
1772445415307115000,5.522114990234375,-0.5789654246032238,-0.0005406827479600906,-0.4823444311620667
1772445415317048000,5.532048095703125,-1.0606330890148878,0.26488018596470353,-0.3107642775222659
1772445415326980000,5.54197998046875,-1.480562966915965,0.4787055997356772,-0.2540677365818992
1772445415336913200,5.5519130859375,-1.8329624463796614,0.6647831748813391,-0.23506113055590538
1772445415346845200,5.56184521484375,-2.0278578264921903,0.814441675298661,-0.14627483106208963
1772445415356778200,5.5717783203125,-2.047028390908241,0.924760537365824,-0.08427483168505132
1772445415366710300,5.581710205078125,-1.858174629047513,1.0007973367333411,-0.1158797110646963
1772445415376643000,5.59164306640625,-1.4653116217702626,1.047658602759987,-0.27440252247173336
1772445415386575000,5.6015751953125,-0.931984497269988,1.0693810436159372,-0.4719406721780076
1772445415396508200,5.611508056640625,-0.3377361633390188,1.0058657260388135,-0.6036338557831943
1772445415406440000,5.62143994140625,0.24528175152540205,0.8900262008540332,-0.6966261738657951
1772445415416373200,5.631373291015625,0.739178198391199,0.7588162341885268,-0.7737063448064029
1772445415426305000,5.641304931640625,1.1459691932559013,0.6369578871056437,-0.7791996084604412
1772445415436238000,5.651238037109375,1.4589239665597675,0.55897945215106,-0.7413941939402371
1772445415446170000,5.661170166015625,1.6108645865648985,0.459281937341392,-0.6891526961799711
1772445415456103200,5.671103271484375,1.6176964784115553,0.3229112269118428,-0.5898369472295045
1772445415466035200,5.68103515625,1.5045511607468127,0.28002704782262444,-0.4254746525466442
1772445415475968000,5.690968017578125,1.2821534412026405,0.2973569528080523,-0.21943835828192532
1772445415485900300,5.700900390625,0.9875473945379256,0.35238340511173005,-0.04009174449224956
1772445415495833000,5.7108330078125,0.6789484783560037,0.44331572192460295,0.12194157752008176
1772445415505765000,5.72076513671875,0.3412058852761984,0.5666678146965801,0.22775025955326852
1772445415515698200,5.7306982421875,0.08162380571961403,0.7029163600511849,0.3216422298893332
1772445415525630200,5.740630126953125,-0.07109247483313083,0.8317750874154269,0.4435622805641964
1772445415535563300,5.750563232421875,-0.12623159373104573,0.9436055230893194,0.5224252432683483
1772445415545495000,5.7604951171875,-0.10481529621481894,1.0451644478566944,0.48382776505500075
1772445415555428000,5.770427978515625,0.02502981183826923,1.1242628267519175,0.3742469349388033
1772445415565360000,5.780360107421875,0.2749070744603872,1.1889153316654264,0.3554213845681399
1772445415575293200,5.790293212890625,0.5348270076692104,1.1679488237433135,0.369656501876004
1772445415585226000,5.80022607421875,0.7757488104194402,1.1217369615361095,0.3654809332244098
1772445415595158000,5.810157958984375,0.9607394671112298,1.0967299460515378,0.37262821116317063
1772445415605091000,5.820091064453125,1.0043062216371297,1.0624698029227555,0.37649292376730586
1772445415615023000,5.830023193359375,0.9113280782103538,1.0104662055715918,0.39705435801986605
1772445415624956200,5.8399560546875,0.7093056226968765,0.9023241030216217,0.4722217541417107
1772445415634888200,5.84988818359375,0.39030221687853334,0.7576373996675014,0.5588063971390947
1772445415644821000,5.859821044921875,-0.02974164279103279,0.6103323305085301,0.5996455898646265
1772445415654753000,5.8697529296875,-0.4816764322400093,0.45374490761086345,0.6437672017943114
1772445415664686000,5.87968603515625,-0.8813573028385638,0.26617227160185575,0.6663032971207052
1772445415674617900,5.889617919921875,-1.2658067020356654,0.04651201419755816,0.6130236154191195
1772445415684551000,5.899551025390625,-1.5811141759455203,-0.1604275855824351,0.6288465499076992
1772445415694482700,5.909482666015625,-1.7655045286566018,-0.31022242573052644,0.6378066128894686
1772445415704415700,5.919415771484375,-1.7980729193061589,-0.39606004975289105,0.5350308962108568
1772445415714347800,5.92934765625,-1.672703495362401,-0.40587592584639787,0.34361364053767174
1772445415724280800,5.93928076171875,-1.42180624204278,-0.3620224633336067,0.12828803307050837
1772445415734212900,5.949212890625,-1.1014479144841431,-0.3068973729610443,-0.016385043617058545
1772445415744146000,5.95914599609375,-0.7378963418871164,-0.2375441430106759,-0.08389920330569148
1772445415754078000,5.969077880859375,-0.4075748387187719,-0.13184768004715441,-0.0937408348949626
1772445415764011000,5.979010986328125,-0.11083353359103203,-0.0035933483168482778,-0.07334281104318797
1772445415773943000,5.988943115234375,0.18696809424459934,0.0930380569204688,-0.07048191431988962
1772445415783875800,5.998875732421875,0.4607008642286062,0.1699232898108661,-0.05306262315111235
1772445415793808000,6.008807861328125,0.7191022095680236,0.24339067708179354,-0.057699123845342544
1772445415803741000,6.018740966796875,0.9363345091730355,0.2689190860919654,-0.03302134031513706
1772445415813672700,6.028672607421875,1.0802174949288368,0.28503143198117614,0.01903235238860361
1772445415823605800,6.038605712890625,1.1173761359781027,0.29605653773397206,0.026843108337931333
1772445415833537800,6.048537841796875,1.0498387232780455,0.31119200141504405,0.004644410006050021
1772445415843470800,6.058470947265625,0.9669745621085166,0.3432319842763245,0.046988363005034624
1772445415853403000,6.06840283203125,0.8296288691669702,0.31556451741084457,0.12277785481428727
1772445415863336000,6.0783359375,0.5993202303677797,0.23812983394414186,0.1601614089269191
1772445415873268000,6.08826806640625,0.33331016359031196,0.18012407356873153,0.198809978006687
1772445415883200800,6.09820068359375,0.09461889637112617,0.1568318991780281,0.2687594020182267
1772445415893132800,6.1081328125,-0.04927168816924095,0.09705635265111923,0.30069762327177446
1772445415903065900,6.11806591796875,-0.09662439097464084,-0.01988981860131025,0.30091124775614586
1772445415912998000,6.127997802734375,-0.05460194328129291,-0.12955255484730005,0.28373404911439865
1772445415922931000,6.137930908203125,-0.007311784318089484,-0.2318701890274882,0.2692249919696711
1772445415932863000,6.147863037109375,0.03208557556867599,-0.35173575485795733,0.25807255177646876
1772445415942796000,6.157796142578125,0.04944061499536037,-0.45303135251402854,0.23302357858000322
1772445415952727800,6.167727783203125,0.08890636394321919,-0.5502658382110297,0.2364513428052887
1772445415962660900,6.177660888671875,0.13260054424107073,-0.6214848620332777,0.31652455808203667
1772445415972593000,6.187593017578125,0.14881401241719722,-0.6549237519070505,0.3640499505732208
1772445415982526000,6.19752587890625,0.14227730412483214,-0.7002544473655521,0.37693175357598807
1772445415992458000,6.2074580078125,0.11984160043299197,-0.7026749525107443,0.39006095546856523
1772445416002390800,6.217390869140625,0.08631459388434887,-0.7071817624107003,0.4357170834891498
1772445416012322800,6.22732275390625,0.04758008182048797,-0.7151004265807569,0.5105914149485529
1772445416022255900,6.237255859375,0.015334347254037857,-0.728970254240185,0.5582801813079044
1772445416032188000,6.24718798828125,-0.049965515652298925,-0.7307099375143646,0.5778839860420674
1772445416042121000,6.257120849609375,-0.1588409009128809,-0.7238597793586552,0.5511627870507538
1772445416052053000,6.267052978515625,-0.23641923063397405,-0.7077296055518091,0.5382972410630434
1772445416061986000,6.276986083984375,-0.2594692668318748,-0.7078687217615545,0.547047679882124
1772445416071917800,6.286917724609375,-0.26966332858800884,-0.7002088546581566,0.5117854105060919
1772445416081851000,6.296850830078125,-0.30201778422594067,-0.6864249517165124,0.44329723641984164
1772445416091784000,6.306783935546875,-0.3512175762027502,-0.6477826479807496,0.38803861932810396
1772445416101715700,6.3167158203125,-0.4266729224205017,-0.6225768950536846,0.3910354995891452
1772445416111648800,6.326648681640625,-0.49418227806985376,-0.5969295358389616,0.3728740026177838
1772445416121580800,6.336580810546875,-0.5470721567362546,-0.6052735858142375,0.35251558012403544
1772445416131513900,6.346513916015625,-0.5457318480432033,-0.6139204181283712,0.31321510474048553
1772445416141446000,6.35644580078125,-0.4850052844017744,-0.6349691975064575,0.2925001786929555
1772445416151379000,6.36637890625,-0.40354163767993445,-0.6465685960158706,0.2782826335744001
1772445416161311000,6.37631103515625,-0.32525136029720303,-0.6728009155116975,0.314110811471194
1772445416171244000,6.386244140625,-0.2749900765687227,-0.7041818499423563,0.3528112020697444
1772445416181176000,6.396176025390625,-0.21662147423028943,-0.7344882870092988,0.37721089931093155
1772445416191108900,6.40610888671875,-0.15315174936056136,-0.7812614363610744,0.39942758995722977
1772445416201041000,6.416041015625,-0.1152829142153263,-0.8476558165058493,0.4388062086109072
1772445416210974000,6.425973876953125,-0.11183423506617546,-0.8730917249269783,0.5424943274267018
1772445416220905700,6.43590576171875,-0.12066636081933975,-0.817578512019664,0.6567606119453907
1772445416230838800,6.4458388671875,-0.18842296922802923,-0.7096390924349427,0.7550519132189453
1772445416240770800,6.455770751953125,-0.3456055815398693,-0.5866482341907918,0.8645021757580339
1772445416250704000,6.465703857421875,-0.5125912104636431,-0.45564884153604507,1.0160837531924247
1772445416260636000,6.475635986328125,-0.7455734523862599,-0.33966537783592937,1.2129641696423292
1772445416270569000,6.48556884765625,-0.9928045844137668,-0.16882818805053829,1.3639442740522325
1772445416280501000,6.4955009765625,-1.217024843209982,0.030596213793754577,1.475245863546431
1772445416290433800,6.505433837890625,-1.3162047638863323,0.20644319456517696,1.5091868577234446
1772445416300365800,6.51536572265625,-1.2656138098120688,0.36111747731789945,1.5708540632158516
1772445416310299000,6.525298828125,-1.0582108303040265,0.46240927558168765,1.575845149501413
1772445416320231000,6.53523095703125,-0.7544248673617839,0.5515168611854314,1.5020003072202204
1772445416330164000,6.5451640625,-0.4324228642493486,0.6174956462666392,1.3825306088395415
1772445416340096000,6.555095947265625,-0.17330372602939606,0.6458228922151029,1.2549535918489099
1772445416350029000,6.565029052734375,0.025001754787564275,0.6364820862874389,1.1476172527238726
1772445416359960800,6.5749609375,0.14287410097420214,0.5883097376622259,1.0409368932895362
1772445416369894000,6.584893798828125,0.2334948676198721,0.5042467220969498,0.908558028975129
1772445416379826000,6.594825927734375,0.2810112365543842,0.4387978061087429,0.8009522252589464
1772445416389758700,6.6047587890625,0.2802361605286598,0.3713369657762348,0.726439566718787
1772445416399690800,6.614690673828125,0.2734685660898685,0.31270635150074955,0.6539511074826121
1772445416409623800,6.624623779296875,0.2398421908199787,0.24980258995071053,0.5823439611256123
1772445416419555800,6.634555908203125,0.18050152857899665,0.188440212623775,0.47442836080789563
1772445416429489000,6.644489013671875,0.08435001581311226,0.12252557881996035,0.38632812561579044
1772445416439421000,6.6544208984375,0.005524900901317596,0.06999474272429942,0.3303081322301179
1772445416449354000,6.66435400390625,-0.02570435009896755,0.03677811729907989,0.29131440297449007
1772445416459286000,6.6742861328125,-0.0569072976142168,0.01605550113543868,0.2515406475233845
1772445416469219000,6.684218994140625,-0.12969956210255623,0.04988733584955334,0.16091178890280425
1772445416479150800,6.69415087890625,-0.24946926634311675,0.14076529212668537,0.08809983333330601
1772445416489083600,6.704083740234375,-0.38758302104771136,0.28028979041203855,0.02159198287669569
1772445416499016000,6.714015869140625,-0.4658902495652437,0.4389033123098314,-0.021177629922144114
1772445416508948700,6.72394873046875,-0.5025894564092159,0.6047422554165125,-0.039230917278677224
1772445416518880800,6.733880859375,-0.43692835897505283,0.7544118617497384,-0.05650456203222275
1772445416528813800,6.743813720703125,-0.3127560358613729,0.845452899634093,-0.10303279671221971
1772445416538745900,6.753745849609375,-0.1550444312393665,0.934634719517827,-0.17892584022749214
1772445416548679000,6.763678955078125,-0.008212532550096512,1.02745518816486,-0.254690106263943
1772445416558611000,6.77361083984375,0.14413082303702832,1.1070723302371799,-0.3076474241433665
1772445416568544000,6.7835439453125,0.32382045071125026,1.1617306798808276,-0.34359807764235883
1772445416578476000,6.79347607421875,0.45267830129265785,1.1842371107213199,-0.3688991076374426
1772445416588408800,6.803408935546875,0.5198065486699343,1.225505525176972,-0.38523236626833673
1772445416598340900,6.8133408203125,0.5423369449079036,1.2745825675569473,-0.4095975036527961
1772445416608274000,6.82327392578125,0.4942074125111103,1.3310498663187027,-0.4221490517878905
1772445416618205700,6.833205810546875,0.4140016568958759,1.3731592616431414,-0.44668428504224866
1772445416628138800,6.843138671875,0.3027092736214399,1.4450076694101095,-0.4691726322367787
1772445416638070500,6.853070556640625,0.18502923513650893,1.5243310892328619,-0.4693772514307871
1772445416648003600,6.863003662109375,0.10630582703351973,1.5501429913595317,-0.4327975427806377
1772445416657935400,6.872935302734375,0.09124445150196552,1.5717621179714798,-0.3862016862245276
1772445416667868400,6.882868408203125,0.1351993285626173,1.5798144915238022,-0.3614414851078763
1772445416677800400,6.892800537109375,0.2094955678731203,1.5662851478651165,-0.34141857817880805
1772445416687733500,6.9027333984375,0.27896190280914307,1.5043965547069906,-0.33629071377106007
1772445416697665500,6.91266552734375,0.3548942188888788,1.4014730635881423,-0.3242690347289666
1772445416707598300,6.922598388671875,0.38725276618003845,1.304923345284909,-0.30287396266385913
1772445416717530400,6.9325302734375,0.3635375440716743,1.1441241499111057,-0.2881561033403501
1772445416727463400,6.94246337890625,0.2995078472316265,0.9745268771842122,-0.2448965881327167
1772445416737395500,6.9523955078125,0.21982816131711005,0.8024892255678773,-0.2157448740588501
1772445416747328500,6.96232861328125,0.18215338743925094,0.6036126668646932,-0.22351050309166312
1772445416757260500,6.972260498046875,0.14826689992845057,0.39732320155650375,-0.25558241546116767
1772445416767193600,6.982193603515625,0.09498656063973904,0.23193901647999882,-0.29924477584864945
1772445416777125400,6.99212548828125,0.009535890108346939,0.09396744672507047,-0.32917839754782613
1772445416787058400,7.002058349609375,-0.12109013918936253,-0.029057167658209797,-0.35356742726452645
1772445416796990500,7.011990478515625,-0.3051771250396967,-0.11694880160093307,-0.41269291238486766
1772445416806923300,7.02192333984375,-0.5295177953451872,-0.1627531059205532,-0.4115010722517967
1772445416816855600,7.03185546875,-0.7412585117965936,-0.19035992863997817,-0.3549216914176941
1772445416826788400,7.041788330078125,-0.9143138160228729,-0.17067220848202705,-0.3271447728283703
1772445416836720400,7.051720458984375,-1.035479358536005,-0.11987170331031083,-0.3038261488221586
1772445416846653400,7.0616533203125,-1.0759130757331847,-0.04474631969928741,-0.29478666392862796
1772445416856585500,7.07158544921875,-0.9984230088174343,0.026843144870549437,-0.33113208889886736
1772445416866518500,7.0815185546875,-0.8190086909532547,0.1119749587111175,-0.34497612452991305
1772445416876450600,7.091450439453125,-0.5699959362059831,0.21673896313011645,-0.347537280254811
1772445416886383600,7.101383544921875,-0.2628817056238651,0.264147341645509,-0.3561876197002828
1772445416896315600,7.111315673828125,0.09075988285541534,0.2979996346257627,-0.4047887151315808
1772445416906248400,7.12124853515625,0.4419306973069906,0.33866599153503774,-0.43841041422635313
1772445416916180500,7.131180419921875,0.7472621361255646,0.332902605702728,-0.4243911681588739
1772445416926113300,7.14111328125,0.9856962137132882,0.31807883831933137,-0.41124695136025546
1772445416936045300,7.15104541015625,1.0935831724584102,0.2888002829954028,-0.40868806065768
1772445416945978400,7.160978271484375,1.0436024592369795,0.2695999079629779,-0.37446079688519235
1772445416955910400,7.170910400390625,0.8680681976765394,0.2620904091157019,-0.29420879097543656
1772445416965843500,7.180843505859375,0.6517623652666806,0.22338950706049798,-0.1852835752237588
1772445416975775500,7.190775390625,0.48796121159791944,0.15485285419002173,-0.04894347912818193
1772445416985708500,7.20070849609375,0.33520810616612434,0.0761925744511187,0.033295170554146165
1772445416995640600,7.210640625,0.22866379420161245,0.006787906574457884,0.0774604024298489
1772445417005573600,7.22057373046875,0.1629974360704422,-0.06423734824135899,0.1300112584002316
1772445417015505700,7.230505615234375,0.10648410620987414,-0.10891820148900151,0.17853687744252383
1772445417025438500,7.2404384765625,0.05083996039927006,-0.1125325925938785,0.18287359147258103
1772445417035370200,7.250370361328125,-0.06705167500972747,-0.13533259955346583,0.17631182180419563
1772445417045303600,7.260303466796875,-0.2051642606705427,-0.12267623933702707,0.1809940613362938
1772445417055235300,7.2702353515625,-0.2660463071346283,-0.07531871422603725,0.2352595392048359
1772445417065168400,7.28016845703125,-0.2872036614537239,-0.03882920460999012,0.21780688462257383
1772445417075100400,7.290100341796875,-0.2375847672820091,-0.007486994754523038,0.13553513638824224
1772445417085033500,7.300033447265625,-0.1340221014767885,0.032522797942161556,0.10440773832723498
1772445417094965500,7.309965576171875,-0.05807984852492809,0.025764263592660427,0.06322028015330433
1772445417104898600,7.319898681640625,0.013149404430389403,-0.009610124388337134,0.0026540216401219367
1772445417114830600,7.32983056640625,0.008093874606490135,-0.041256285626441236,-0.04015044327639043
1772445417124763400,7.339763427734375,-0.035361236238479615,-0.09399360407963395,-0.07732508561238646
1772445417134695400,7.3496953125,-0.10807575931549071,-0.1380531105585396,-0.06489098984450102
1772445417144628500,7.35962841796875,-0.20368191315829753,-0.1818039894796908,-0.04637947385907173
1772445417154560500,7.369560546875,-0.2904705542951822,-0.22799656246453523,-0.026815160885080694
1772445417164493600,7.37949365234375,-0.4276578418046236,-0.2728001653090119,0.0030376141302287576
1772445417174425300,7.38942529296875,-0.5835457381308078,-0.32254780042693015,0.021780162392556666
1772445417184358400,7.3993583984375,-0.7263654785692691,-0.3989898195944726,0.07492949571274221
1772445417194290400,7.40929052734375,-0.8264449784338473,-0.44335210841223593,0.14896087354198098
1772445417204223500,7.419223388671875,-0.8590671450972557,-0.4909934189006686,0.19835041593723
1772445417214155500,7.429155517578125,-0.8323726149171591,-0.5254110906787216,0.12738266346231103
1772445417224088300,7.43908837890625,-0.672235828974843,-0.5245896912932395,0.055239510532468554
1772445417234020400,7.449020263671875,-0.4715665416359901,-0.5203051458418368,-0.015181494779884815
1772445417243953400,7.458953369140625,-0.279508430776,-0.519142093411833,-0.04984773449152708
1772445417253885400,7.468885498046875,-0.1375999599635601,-0.47590983153730626,-0.05212218222953379
1772445417263818500,7.478818603515625,-0.03113455845415592,-0.424025915043056,-0.09960684085153043
1772445417273750500,7.48875048828125,0.11266776328086853,-0.37546588227450844,-0.12829977830722927
1772445417283683600,7.49868359375,0.26443361124098297,-0.32424276777654887,-0.14059015475548803
1772445417293615600,7.50861572265625,0.3658732935428619,-0.26444880881011484,-0.17509082864187656
1772445417303548700,7.518548583984375,0.3934171340286731,-0.19182751697450875,-0.1908888478849083
1772445417313480400,7.52848046875,0.4229962797343731,-0.11350582154020666,-0.23031433788761496
1772445417323413200,7.538413330078125,0.4565940134316683,-0.038286329904943704,-0.2618102770000696
1772445417333345500,7.548345458984375,0.43781975485682484,0.04979132812917232,-0.30233335298113523
1772445417343278300,7.5582783203125,0.36353637502789493,0.22105200402364134,-0.3217272778242826
1772445417353210400,7.56821044921875,0.1966366708219051,0.4210305326193571,-0.37972558554559943
1772445417363143400,7.578143310546875,-0.14102233562767505,0.5872999760977924,-0.4651381160236895
1772445417373075500,7.588075439453125,-0.6131722301095723,0.745747786039859,-0.48034876383282243
1772445417383008500,7.598008544921875,-1.0307651894956826,0.9369558559417724,-0.38157596265263855
1772445417392940500,7.6079404296875,-1.3079518993258477,1.0746344340994953,-0.23220431635268032
1772445417402873600,7.61787353515625,-1.3982681300669908,1.1114433849282561,-0.10526771615743637
1772445417412805600,7.6278056640625,-1.2383090387791393,1.106180642094463,-0.04447751269526779
1772445417422738400,7.637738525390625,-0.7371814716160296,1.0435717718377708,-0.027696912155672906
1772445417432670500,7.64767041015625,-0.12182605224847792,0.9278532426841557,-0.13033566804900765
1772445417442603300,7.657603271484375,0.4628694404393434,0.8385732231229543,-0.19758534984886644
1772445417452535300,7.667535400390625,0.9423024776667356,0.7296279874965548,-0.18961517468728123
1772445417462468400,7.67746826171875,1.3304717741698027,0.6411744818873704,-0.1771710689820349
1772445417472400400,7.687400390625,1.584703140348196,0.4741457444742322,-0.18928038977496325
1772445417482333400,7.69733349609375,1.6509680488944052,0.36178836231678724,-0.13424502351246773
1772445417492265500,7.707265380859375,1.6134271305292844,0.3169648857280612,-0.02679433729276061
1772445417502198500,7.717198486328125,1.458283330568671,0.22445815920531748,0.029836481467634436
1772445417512130600,7.727130615234375,1.2188701788157223,0.14288710658624768,0.05120331381894648
1772445417522062600,7.7370625,0.8741501479387283,0.13067922078967092,0.0914111133057624
1772445417531995600,7.74699560546875,0.3587017944782972,0.1757788839712739,0.1126906326998025
1772445417541928400,7.756928466796875,-0.1323275725185871,0.21741423204317686,0.12631591101363301
1772445417551860500,7.766860595703125,-0.5052694892734289,0.23496654760763047,0.1550814022488892
1772445417561792300,7.776792236328125,-0.7627759315997362,0.2570078451544046,0.1659078436244279
1772445417571725300,7.786725341796875,-0.9656459438532591,0.2963296555869281,0.1438235837187618
1772445417581657300,7.7966572265625,-1.1239303799271583,0.36021176064983007,0.07891366997808218
1772445417591590400,7.80659033203125,-1.244687926161289,0.45120209126025435,0.022248802817612885
1772445417601522400,7.8165224609375,-1.2757681240797043,0.5044670868493616,-0.029864538518339395
1772445417611455500,7.82645556640625,-1.2087620417773723,0.5209662400990724,-0.09580145721919835
1772445417621387500,7.836387451171875,-1.0329033705681563,0.5323838523007929,-0.12509689061269164
1772445417631320600,7.846320556640625,-0.6925608241230249,0.5439841275930405,-0.09612272506281733
1772445417641253000,7.856253173828125,-0.28007658605277536,0.5460018971562385,-0.13812266866341233
1772445417651186000,7.86618603515625,0.12687924398481845,0.5331136278800666,-0.2652468273200095
1772445417661118000,7.876117919921875,0.4259107058763504,0.40509222812280055,-0.5074269595682621
1772445417671051000,7.886051025390625,0.612564911866188,0.30221462197229265,-0.5530877637639642
1772445417680983000,7.895983154296875,0.7363198863506317,0.3355329542063176,-0.2975334784187376
1772445417690916000,7.905916015625,0.7615718165069818,0.26377105567902326,-0.42850050317384303
1772445417700847900,7.915847900390625,0.7957026341676712,0.14528013920262456,-0.5333639128467068
1772445417710781000,7.925781005859375,0.6923509807646274,0.09561492167115211,-0.4691362457491457
1772445417720713000,7.935712890625,0.5596089822262525,0.06812383428588509,-0.401467936678417
1772445417730646000,7.94564599609375,0.32527766378223893,0.1109143437422812,-0.2999059066385031
1772445417740578000,7.955578125,0.03491699960231781,0.23350261253491042,-0.2279113318664953
