time,seconds_elapsed,z,y,x
1772445462569621000,0.05362109375,-0.12239572405815125,0.41877949237823486,0.321056991815567
1772445462579553000,0.063552978515625,-0.1436469405889511,0.3760347068309784,0.3337648808956146
1772445462589485000,0.073485107421875,-0.1524209827184677,0.31743210554122925,0.32206323742866516
1772445462599417000,0.0834169921875,-0.14347301423549652,0.31907087564468384,0.29430896043777466
1772445462609350000,0.093349853515625,-0.12492144107818604,0.3496551513671875,0.2817625403404236
1772445462619282000,0.103281982421875,-0.1177900955080986,0.37949687242507935,0.2761341631412506
1772445462629214000,0.1132138671875,-0.11259826272726059,0.3577311336994171,0.2796284854412079
1772445462639146000,0.12314599609375,-0.09876467287540436,0.2366926223039627,0.27168193459510803
1772445462649078000,0.133078125,-0.0773232951760292,0.07116972655057907,0.24610574543476105
1772445462659010000,0.143010009765625,-0.03286479413509369,-0.09039923548698425,0.22922612726688385
1772445462668942000,0.152942138671875,0.022868772968649864,-0.21079035103321075,0.23212258517742157
1772445462678875000,0.162875,0.06633997708559036,-0.28642186522483826,0.26116275787353516
1772445462688806700,0.172806640625,0.0837426707148552,-0.3012021481990814,0.3049914538860321
1772445462698738700,0.18273876953125,0.0866987556219101,-0.2598375380039215,0.3439229428768158
1772445462708670700,0.192670654296875,0.0755600854754448,-0.17200036346912384,0.35305118560791016
1772445462718602500,0.2026025390625,0.06557370722293854,-0.07743832468986511,0.3287811279296875
1772445462728534500,0.212534423828125,0.05275218188762665,-0.011303245089948177,0.27274850010871887
1772445462738467300,0.22246728515625,0.04880998283624649,0.010297168046236038,0.19517414271831512
1772445462748399600,0.232399658203125,0.027943849563598633,-0.003117174841463566,0.10517633706331253
1772445462758331600,0.24233154296875,-0.011881547048687935,-0.030109990388154984,0.012220931239426136
1772445462768263700,0.252263671875,-0.060795560479164124,0.004059698432683945,-0.08248960226774216
1772445462778195700,0.26219580078125,-0.052118416875600815,-0.02099556475877762,-0.20249627530574799
1772445462788127500,0.27212744140625,-0.058551546186208725,-0.20432783663272858,-0.3429300785064697
1772445462798060500,0.282060546875,-0.08877749741077423,-0.3406714200973511,-0.4374532997608185
1772445462807992600,0.29199267578125,-0.0913945883512497,-0.407473623752594,-0.48162367939949036
1772445462817924600,0.301924560546875,-0.07884572446346283,-0.5111035704612732,-0.5214650630950928
1772445462827856600,0.311856689453125,-0.07366987317800522,-0.6162757873535156,-0.5803041458129883
1772445462837788700,0.32178857421875,-0.09108816832304001,-0.7104751467704773,-0.6391243934631348
1772445462847720700,0.331720703125,-0.12767760455608368,-0.8457016944885254,-0.694465696811676
1772445462857652500,0.341652587890625,-0.1870114952325821,-0.9529768824577332,-0.664559543132782
1772445462867585500,0.35158544921875,-0.22296203672885895,-1.0235322713851929,-0.5799234509468079
1772445462877517600,0.361517578125,-0.15619266033172607,-0.9928785562515259,-0.5414927005767822
1772445462887449600,0.37144970703125,-0.11349845677614212,-0.8792603611946106,-0.4915267825126648
1772445462897381600,0.381381591796875,-0.07526203244924545,-0.7104665637016296,-0.4387441873550415
1772445462907313700,0.391313720703125,-0.010186627507209778,-0.5186824798583984,-0.3590967655181885
1772445462917245700,0.40124560546875,0.019094524905085564,-0.31567060947418213,-0.21400795876979828
1772445462927178500,0.411178466796875,0.0010843654163181782,-0.1207362562417984,-0.020086701959371567
1772445462937110500,0.421110595703125,-0.10677144676446915,-0.10077018290758133,0.17799533903598785
1772445462947042600,0.43104248046875,-0.2437697798013687,-0.25536906719207764,0.3462866246700287
1772445462956974600,0.440974609375,-0.36891987919807434,-0.4139442443847656,0.41629260778427124
1772445462966906600,0.45090673828125,-0.4363633692264557,-0.44031113386154175,0.353957861661911
1772445462976838700,0.460838623046875,-0.3992554247379303,-0.38694608211517334,0.17438870668411255
1772445462986771500,0.470771484375,-0.2584575414657593,-0.1486826241016388,-0.10825524479150772
1772445462996703700,0.480703857421875,-0.049154601991176605,0.3701237142086029,-0.40514427423477173
1772445463006635500,0.490635498046875,0.16474011540412903,1.0269551277160645,-0.6182655692100525
1772445463016567600,0.500567626953125,0.33364468812942505,1.5228989124298096,-0.6234873533248901
1772445463026499600,0.51049951171875,0.413291335105896,1.6534312963485718,-0.37997907400131226
1772445463036431600,0.520431640625,0.37123867869377136,1.319488525390625,0.033416230231523514
1772445463046363600,0.53036376953125,0.21135766804218292,0.4994071125984192,0.4967298209667206
1772445463056296700,0.540296630859375,0.020390216261148453,-0.5891714692115784,0.8250452876091003
1772445463066228700,0.550228759765625,-0.020320994779467583,-1.4115383625030518,0.8550466299057007
1772445463076160500,0.560160400390625,0.2098003476858139,-1.4117159843444824,0.4778883755207062
1772445463086092500,0.570092529296875,0.6881022453308105,-0.5693095922470093,-0.1643851101398468
1772445463096024600,0.580024658203125,1.189139723777771,0.4485214948654175,-0.778577983379364
1772445463105956600,0.58995654296875,1.5050194263458252,1.3510870933532715,-1.0879491567611694
1772445463115889700,0.5998896484375,1.605129361152649,2.2211062908172607,-0.9869751334190369
1772445463125821700,0.60982177734375,1.4454014301300049,2.789674758911133,-0.5838351845741272
1772445463135753500,0.61975341796875,0.9489700198173523,2.54414701461792,-0.07785224169492722
1772445463145685500,0.629685546875,0.011789507232606411,0.6419277191162109,0.07201448082923889
1772445463155617500,0.639617431640625,-1.0258417129516602,-1.0448096990585327,0.443936824798584
1772445463165549600,0.649549560546875,-1.5000351667404175,-2.077686309814453,0.41106224060058594
1772445463175482600,0.659482666015625,-1.3810527324676514,-1.989000916481018,0.1111050471663475
1772445463185414700,0.66941455078125,-0.8665590286254883,-1.327386736869812,-0.22210566699504852
1772445463195346700,0.6793466796875,-0.2678239941596985,-0.47015929222106934,-0.4312496483325958
1772445463205278500,0.689278564453125,0.15644873678684235,0.33112624287605286,-0.49333858489990234
1772445463215210500,0.69921044921875,0.3299185037612915,0.9004242420196533,-0.39447617530822754
1772445463225142500,0.709142578125,0.3317036032676697,1.1944342851638794,-0.15276288986206055
1772445463235075600,0.71907568359375,0.2264241874217987,1.2558895349502563,0.14282545447349548
1772445463245007600,0.729007568359375,0.06617459654808044,1.1179159879684448,0.3545858860015869
1772445463254939600,0.738939697265625,-0.10023654997348785,0.8750314712524414,0.4535123109817505
1772445463264871700,0.74887158203125,-0.2719222903251648,0.5471758246421814,0.436890184879303
1772445463274803500,0.758803466796875,-0.363010436296463,0.23295052349567413,0.4145791232585907
1772445463284735500,0.768735595703125,-0.24040967226028442,0.009355520829558372,0.4783700704574585
1772445463294668500,0.77866845703125,0.03278903290629387,-0.12514431774616241,0.5529506802558899
1772445463304600600,0.7886005859375,0.3287288248538971,-0.18812063336372375,0.6207206845283508
1772445463314532600,0.79853271484375,0.5737118124961853,-0.22638186812400818,0.712566614151001
1772445463324464600,0.808464599609375,0.6065722703933716,-0.2168453484773636,0.8082215189933777
1772445463334396700,0.818396728515625,0.6148799657821655,-0.18724274635314941,0.8564030528068542
1772445463344328400,0.828328369140625,0.6288051009178162,-0.18402403593063354,0.899541437625885
1772445463354260500,0.838260498046875,0.6038103699684143,-0.1888902336359024,0.9499837756156921
1772445463364193500,0.848193603515625,0.5502904057502747,-0.13846461474895477,1.0285286903381348
1772445463374125600,0.85812548828125,0.4815317392349243,0.10135042667388916,1.0858709812164307
1772445463384057600,0.8680576171875,0.39735934138298035,0.6862136125564575,1.070468544960022
1772445463393989600,0.87798974609375,0.33499130606651306,1.3413103818893433,0.8785477876663208
1772445463403921700,0.887921630859375,0.38695037364959717,1.1231412887573242,0.4851938784122467
1772445463413853400,0.897853515625,0.5308734774589539,0.6432874202728271,0.4927476942539215
1772445463423786500,0.907786376953125,0.7959070205688477,-0.1260330229997635,0.5378991961479187
1772445463433718500,0.917718505859375,1.0221912860870361,-0.5152461528778076,0.6694406867027283
1772445463443650600,0.927650634765625,1.1344517469406128,-0.4121914207935333,0.7709287405014038
1772445463453582600,0.93758251953125,1.1504948139190674,-0.14872176945209503,0.7347065806388855
1772445463463514600,0.9475146484375,1.1798553466796875,0.0017577409744262695,0.5692856907844543
1772445463473446700,0.95744677734375,1.2169544696807861,-0.21438449621200562,0.32232943177223206
1772445463483379700,0.967379638671875,1.2546179294586182,-0.6110149621963501,0.015611318871378899
1772445463493311500,0.9773115234375,1.3309757709503174,-0.8383587002754211,-0.34454289078712463
1772445463503243500,0.987243408203125,1.3956767320632935,-0.6323962211608887,-0.6250243782997131
1772445463513175600,0.997175537109375,1.3176045417785645,-0.2343321144580841,-0.7752972841262817
1772445463523107600,1.007107666015625,1.0175288915634155,-0.0970006138086319,-0.7943050861358643
1772445463533039600,1.01703955078125,0.3945721685886383,-0.18806171417236328,-0.7887200713157654
1772445463542971600,1.0269716796875,-0.5999078154563904,-0.472603976726532,-0.894629716873169
1772445463552904700,1.03690478515625,-1.6956052780151367,-1.069934368133545,-1.0534130334854126
1772445463562836500,1.04683642578125,-2.5551187992095947,-1.5345242023468018,-1.1485185623168945
1772445463572768500,1.0567685546875,-2.876272678375244,-1.2718722820281982,-1.0843454599380493
1772445463582700500,1.066700439453125,-2.7305116653442383,-0.21862637996673584,-0.8638095855712891
1772445463592632600,1.076632568359375,-2.2090036869049072,1.148287057876587,-0.5074842572212219
1772445463602564600,1.086564697265625,-1.3270422220230103,2.3594894409179688,-0.035876549780368805
1772445463612496600,1.09649658203125,-0.2809202969074249,3.006499767303467,0.5444955825805664
1772445463622429700,1.1064296875,0.4966289699077606,3.1162984371185303,1.1246696710586548
1772445463632361500,1.116361572265625,0.5615953803062439,2.496962070465088,0.6087614893913269
1772445463642293500,1.12629345703125,0.2741023600101471,2.119405746459961,-0.053537651896476746
1772445463652225500,1.1362255859375,0.09574657678604126,1.563104271888733,-0.8440024256706238
1772445463662157600,1.146157470703125,0.14005997776985168,0.7674435973167419,-1.6040263175964355
1772445463672089600,1.156089599609375,0.3496934175491333,0.1264917105436325,-2.1403164863586426
1772445463682022700,1.166022705078125,0.6871513724327087,-0.27497076988220215,-2.333987236022949
1772445463691955500,1.17595556640625,1.062830924987793,-0.6932255029678345,-2.1823110580444336
1772445463701887500,1.185887451171875,1.3437212705612183,-1.0659879446029663,-1.8361804485321045
1772445463711819500,1.195819580078125,1.464422583580017,-1.1207492351531982,-1.4699302911758423
1772445463721751600,1.20575146484375,1.4046268463134766,-0.819007396697998,-1.196211576461792
1772445463731683600,1.21568359375,1.2840874195098877,-0.30489858984947205,-0.9762634038925171
1772445463741616400,1.225616455078125,1.1642560958862305,0.2170676589012146,-0.7136363387107849
1772445463751548400,1.23554833984375,1.0113791227340698,0.6353651285171509,-0.419697642326355
1772445463761480400,1.24548046875,0.8885163068771362,0.914059042930603,-0.14959903061389923
1772445463771412700,1.255412841796875,0.8829189538955688,0.847069501876831,0.01756509579718113
1772445463781344500,1.265344482421875,0.9500340819358826,0.19364801049232483,0.05433935672044754
1772445463791276500,1.275276611328125,0.9709486365318298,-0.7913615703582764,-0.09506556391716003
1772445463801208600,1.28520849609375,0.9497911930084229,-1.6619555950164795,-0.4230956435203552
1772445463811141400,1.295141357421875,0.9686985015869141,-2.1438863277435303,-0.7884003520011902
1772445463821073400,1.305073486328125,1.064622163772583,-2.094031810760498,-1.0039019584655762
1772445463831005700,1.315005615234375,1.14517080783844,-1.7212092876434326,-0.9526379704475403
1772445463840937700,1.324937744140625,1.0976258516311646,-1.3829987049102783,-0.6173864603042603
1772445463850869500,1.334869384765625,0.9095818996429443,-1.1841075420379639,-0.10317300260066986
1772445463860801500,1.344801513671875,0.5838008522987366,-1.1644805669784546,0.47115448117256165
1772445463870733600,1.354733642578125,0.11645450443029404,-1.2907401323318481,0.9687040448188782
1772445463880666400,1.364666259765625,-0.3810567557811737,-1.4059315919876099,1.3147213459014893
1772445463890598700,1.3745986328125,-0.7349768877029419,-1.3446305990219116,1.4511845111846924
1772445463900530700,1.38453076171875,-0.8688681125640869,-1.0637201070785522,1.3889546394348145
1772445463910462700,1.394462646484375,-0.779897153377533,-0.6001574993133545,1.185960054397583
1772445463920394500,1.40439453125,-0.5276081562042236,-0.10556217283010483,0.9039512872695923
1772445463930326500,1.414326416015625,-0.20244678854942322,0.3015216290950775,0.5784593820571899
1772445463940259600,1.424259521484375,0.07855398207902908,0.6472995281219482,0.21272160112857819
1772445463950191600,1.434191650390625,0.29022935032844543,0.8779163956642151,-0.13771586120128632
1772445463960123600,1.44412353515625,0.3973004221916199,1.0122276544570923,-0.38702821731567383
1772445463970055700,1.4540556640625,0.4365626275539398,0.9335893988609314,-0.4284760355949402
1772445463979987700,1.46398779296875,0.4333234131336212,0.44915297627449036,-0.30542150139808655
1772445463989919500,1.47391943359375,0.4202089309692383,-0.3027976453304291,-0.170695498585701
1772445463999851500,1.4838515625,0.4818619191646576,-0.8781770467758179,-0.1559745967388153
1772445464009784600,1.49378466796875,0.598775327205658,-0.8538104891777039,-0.2735450267791748
1772445464019716600,1.503716552734375,0.588835597038269,-0.33540672063827515,-0.4128432869911194
1772445464029648600,1.513648681640625,0.31524768471717834,0.29155561327934265,-0.42281806468963623
1772445464039580700,1.52358056640625,-0.17131371796131134,0.72291100025177,-0.24980740249156952
1772445464049512700,1.5335126953125,-0.7986874580383301,0.8540832996368408,0.0116096381098032
1772445464059444500,1.543444580078125,-1.5052427053451538,0.7065675854682922,0.25759172439575195
1772445464069376500,1.55337646484375,-2.125497579574585,0.8034247756004333,0.3550240099430084
1772445464079309600,1.5633095703125,-2.429485559463501,1.684578537940979,0.28007277846336365
1772445464089241600,1.57324169921875,-2.360196113586426,2.9037647247314453,0.18871454894542694
1772445464099173600,1.583173583984375,-2.0049796104431152,3.5223495960235596,0.1341807246208191
1772445464109105700,1.593105712890625,-1.463165521621704,3.2412631511688232,0.0267898291349411
1772445464119037700,1.60303759765625,-0.7920324206352234,2.535971164703369,-0.22892583906650543
1772445464128969500,1.612969482421875,-0.15058627724647522,1.4913655519485474,-0.6656678318977356
1772445464138901500,1.622901611328125,0.31195738911628723,0.24690818786621094,-1.286062479019165
1772445464148834600,1.63283447265625,0.5176490545272827,-0.7583780884742737,-1.8207541704177856
1772445464158766600,1.6427666015625,0.5196967720985413,-1.352353572845459,-1.9745668172836304
1772445464168698600,1.65269873046875,0.39149823784828186,-1.5161288976669312,-1.6928789615631104
1772445464178630700,1.662630615234375,0.14205992221832275,-1.2347861528396606,-1.1334482431411743
1772445464188562400,1.6725625,-0.23581600189208984,-0.5539836287498474,-0.6121419072151184
1772445464198494500,1.682494384765625,-0.6141330003738403,0.30982622504234314,-0.3095005452632904
1772445464208427500,1.692427490234375,-0.8445572257041931,0.93487149477005,-0.14640891551971436
1772445464218359600,1.702359619140625,-0.89589923620224,1.1428295373916626,-0.08140143007040024
1772445464228291600,1.71229150390625,-0.7514084577560425,0.9154875874519348,-0.1511724293231964
1772445464238223600,1.7222236328125,-0.40677762031555176,0.2267450988292694,-0.3630543351173401
1772445464248155600,1.73215576171875,-0.007380254101008177,-0.654303789138794,-0.7345733046531677
1772445464258087400,1.74208740234375,0.3221829831600189,-1.4445691108703613,-1.1181632280349731
1772445464268019500,1.75201953125,0.5063242316246033,-2.0063083171844482,-1.3590869903564453
1772445464277952500,1.761952392578125,0.5028455853462219,-2.1510541439056396,-1.3388677835464478
1772445464287884500,1.771884521484375,0.33605316281318665,-1.771899700164795,-0.9938793778419495
1772445464297816600,1.781816650390625,0.15021805465221405,-0.886106550693512,-0.3508906364440918
1772445464307748600,1.79174853515625,0.026132948696613312,0.1791195124387741,0.47438931465148926
1772445464317680600,1.8016806640625,-0.05144359916448593,0.9668349027633667,1.3129888772964478
1772445464327612400,1.8116123046875,-0.15313276648521423,1.2356674671173096,1.910984754562378
1772445464337544400,1.82154443359375,-0.284722238779068,1.0199759006500244,2.1288607120513916
1772445464347477500,1.8314775390625,-0.3901464343070984,0.5146803259849548,1.9614005088806152
1772445464357409500,1.841409423828125,-0.4231336712837219,0.0325150303542614,1.5512734651565552
1772445464367341600,1.851341552734375,-0.3925318419933319,-0.28819963335990906,1.0783950090408325
1772445464377273600,1.861273681640625,-0.33055421710014343,-0.44619885087013245,0.7195457816123962
1772445464387205600,1.87120556640625,-0.2339613437652588,-0.4393117427825928,0.5637673139572144
1772445464397137400,1.881137451171875,-0.09626606106758118,-0.35809439420700073,0.6042993068695068
1772445464407069400,1.8910693359375,0.01790817454457283,-0.33371037244796753,0.7483413219451904
1772445464417002500,1.90100244140625,0.10876750946044922,-0.4037192761898041,0.8637142777442932
1772445464426934500,1.9109345703125,0.16704341769218445,-0.6384317278862,0.8640296459197998
1772445464436866600,1.920866455078125,0.17579109966754913,-0.9331088662147522,0.7112595438957214
1772445464446798600,1.930798583984375,0.16332966089248657,-1.132292628288269,0.4310123920440674
1772445464456730600,1.940730712890625,0.123556949198246,-1.171830177307129,0.1170552670955658
1772445464466662400,1.950662353515625,0.044605664908885956,-1.0831639766693115,-0.10861629247665405
1772445464476594400,1.960594482421875,-0.10214808583259583,-0.8253085017204285,-0.17558413743972778
1772445464486527500,1.970527587890625,-0.2900487780570984,-0.44885578751564026,-0.09684520214796066
1772445464496459500,1.98045947265625,-0.48068130016326904,-0.03229343518614769,0.07931891083717346
1772445464506391600,1.9903916015625,-0.6308350563049316,0.3610924184322357,0.35103678703308105
1772445464516323600,2.000323486328125,-0.7199510931968689,0.6189658045768738,0.7011960744857788
1772445464526255600,2.010255615234375,-0.7672993540763855,0.6551926136016846,1.0513546466827393
1772445464536187400,2.0201875,-0.8078622221946716,0.4911597669124603,1.2949947118759155
1772445464546119400,2.030119384765625,-0.7986135482788086,0.11203291267156601,1.3838214874267578
1772445464556052500,2.040052490234375,-0.7316821813583374,-0.3076815605163574,1.2896151542663574
1772445464565984500,2.049984619140625,-0.5965810418128967,-0.5144219398498535,1.0428636074066162
1772445464575916500,2.05991650390625,-0.35768380761146545,-0.5941303372383118,0.7707586884498596
1772445464585848600,2.0698486328125,0.0013611437752842903,-0.4509528577327728,0.45592615008354187
1772445464595780600,2.079780517578125,0.3883615732192993,-0.32783040404319763,0.1359039545059204
1772445464605712400,2.08971240234375,0.6157169938087463,-0.30317574739456177,-0.08610200136899948
1772445464615644400,2.09964453125,0.6698092222213745,-0.1449216604232788,-0.19607537984848022
1772445464625577500,2.109577392578125,0.676450252532959,0.19985735416412354,-0.1786344051361084
1772445464635509500,2.119509521484375,0.6484040021896362,0.33811694383621216,-0.01720663532614708
1772445464645441500,2.129441650390625,0.6312422752380371,0.33078277111053467,0.04031292349100113
1772445464655373600,2.13937353515625,0.5321279168128967,0.3813950717449188,-0.11154025793075562
1772445464665305600,2.1493056640625,0.26130232214927673,0.5174541473388672,-0.3604440987110138
1772445464675237400,2.1592373046875,-0.01349303126335144,0.6989754438400269,-0.4912140965461731
1772445464685169400,2.16916943359375,-0.14721494913101196,0.9205835461616516,-0.4873330593109131
1772445464695102700,2.179102783203125,-0.15291038155555725,1.2351603507995605,-0.49746134877204895
1772445464705034500,2.189034423828125,-0.18996863067150116,1.6049816608428955,-0.5668864846229553
1772445464714966500,2.198966552734375,-0.3242422938346863,1.8893412351608276,-0.6005041003227234
1772445464724898600,2.208898681640625,-0.47025439143180847,1.9958984851837158,-0.4623839557170868
1772445464734830600,2.21883056640625,-0.5474530458450317,1.9341870546340942,-0.14254043996334076
1772445464744762600,2.2287626953125,-0.5018095374107361,1.7643694877624512,0.21760490536689758
1772445464754695700,2.23869580078125,-0.323659747838974,1.469648003578186,0.4549967050552368
1772445464764627700,2.248627685546875,-0.07596129179000854,1.060420274734497,0.43771877884864807
1772445464774559500,2.2585595703125,0.18103189766407013,0.5289526581764221,0.1803748458623886
1772445464784491500,2.268491455078125,0.37649303674697876,-0.059746790677309036,-0.13910657167434692
1772445464794423600,2.278423583984375,0.47968173027038574,-0.6099326610565186,-0.3365727663040161
1772445464804355600,2.28835546875,0.5244767069816589,-1.0362294912338257,-0.3242442011833191
1772445464814287600,2.29828759765625,0.49832984805107117,-1.2479462623596191,-0.09255876392126083
1772445464824220700,2.308220703125,0.41035017371177673,-1.1982840299606323,0.26739150285720825
1772445464834152700,2.318152587890625,0.3090387284755707,-0.9269941449165344,0.6628416180610657
1772445464844084500,2.32808447265625,0.20652924478054047,-0.5663772821426392,0.9843687415122986
1772445464854016500,2.3380166015625,0.13605481386184692,-0.1904774010181427,1.1328073740005493
1772445464863948500,2.347948486328125,0.06694753468036652,0.0736771672964096,1.0552867650985718
1772445464873880600,2.357880615234375,0.030171677470207214,0.15292297303676605,0.7795340418815613
1772445464883812600,2.3678125,0.09411291778087616,0.1287483423948288,0.41581788659095764
1772445464893745700,2.37774560546875,0.23074480891227722,0.031139230355620384,0.0796784982085228
1772445464903677700,2.387677734375,0.3815436363220215,-0.09368018805980682,-0.16826385259628296
1772445464913609500,2.397609375,0.4992132782936096,-0.22729231417179108,-0.2842671275138855
1772445464923541500,2.40754150390625,0.5736892819404602,-0.346096396446228,-0.28729408979415894
1772445464933473500,2.4174736328125,0.6004873514175415,-0.3980746269226074,-0.1940682828426361
1772445464943405600,2.427405517578125,0.5295644402503967,-0.41975638270378113,-0.01769745722413063
1772445464953337600,2.437337646484375,0.3817313313484192,-0.45296385884284973,0.1933641880750656
1772445464963270700,2.447270751953125,0.2014777809381485,-0.5113489031791687,0.37428370118141174
1772445464973202700,2.45720263671875,-0.004879910498857498,-0.6123995780944824,0.4862360656261444
1772445464983134500,2.467134521484375,-0.23698265850543976,-0.739957869052887,0.5376920104026794
1772445464993066500,2.47706640625,-0.5413891673088074,-0.8162044286727905,0.5965635776519775
1772445465002998500,2.48699853515625,-0.8850069046020508,-0.7737036943435669,0.7485687136650085
1772445465012930600,2.4969306640625,-1.165023922920227,-0.572928786277771,1.0326555967330933
1772445465022862600,2.506862548828125,-1.3086179494857788,-0.19063372910022736,1.3891290426254272
1772445465032795600,2.516795654296875,-1.266471028327942,0.1321600377559662,1.6924675703048706
1772445465042727700,2.526727783203125,-1.099117398262024,0.25431665778160095,1.7660802602767944
1772445465052659500,2.536659423828125,-0.8667961955070496,0.22380110621452332,1.4958956241607666
1772445465062591500,2.546591552734375,-0.5998667478561401,0.1228775903582573,0.9385886192321777
1772445465072523500,2.5565234375,-0.3070434033870697,0.015526100993156433,0.23206773400306702
1772445465082455600,2.56645556640625,0.02840466797351837,0.07941882312297821,-0.4889582097530365
1772445465092387600,2.5763876953125,0.32491570711135864,0.33643782138824463,-1.044805645942688
1772445465102320600,2.586320556640625,0.5615818500518799,0.7233226299285889,-1.3045611381530762
1772445465112252700,2.596252685546875,0.724459171295166,1.0128252506256104,-1.3017464876174927
1772445465122184400,2.606184326171875,0.7098013162612915,0.97786945104599,-1.1903172731399536
1772445465132116500,2.616116455078125,0.46414098143577576,0.5104828476905823,-1.1272701025009155
1772445465142048500,2.626048583984375,0.012970291078090668,-0.026980765163898468,-1.1850639581680298
1772445465151980500,2.63598046875,-0.4002377986907959,-0.183090478181839,-1.3480627536773682
1772445465161912600,2.64591259765625,-0.6261666417121887,0.1313551962375641,-1.4872435331344604
1772445465171845600,2.655845703125,-0.6658674478530884,0.6885630488395691,-1.4747053384780884
1772445465181777400,2.66577734375,-0.6066569685935974,1.1213302612304688,-1.3491973876953125
1772445465191709400,2.67570947265625,-0.5200155377388,1.3278379440307617,-1.3125860691070557
1772445465201641500,2.685641357421875,-0.415757954120636,1.3437386751174927,-1.4093326330184937
1772445465211573500,2.695573486328125,-0.25791293382644653,1.2171450853347778,-1.556122064590454
1772445465221505500,2.705505615234375,-0.0666920468211174,1.0400360822677612,-1.6359152793884277
1772445465231437600,2.7154375,0.09536183625459671,0.8936045169830322,-1.5196142196655273
1772445465241370600,2.72537060546875,0.24573418498039246,0.9335805177688599,-1.1525394916534424
1772445465251302400,2.735302490234375,0.38302066922187805,0.9460675716400146,-0.6112610101699829
1772445465261234400,2.745234375,0.4445202946662903,0.7811823487281799,-0.09373816102743149
1772445465271166500,2.75516650390625,0.4341299831867218,0.4563363194465637,0.25997835397720337
1772445465281098500,2.765098388671875,0.37718749046325684,0.05089297518134117,0.4421638250350952
1772445465291030500,2.775030517578125,0.306937038898468,-0.3554055392742157,0.5328314304351807
1772445465300963600,2.784963623046875,0.22171993553638458,-0.6643677353858948,0.607280433177948
1772445465310895600,2.7948955078125,0.1516556441783905,-0.8006278276443481,0.7205478549003601
1772445465320827400,2.804827392578125,0.11996398866176605,-0.788973331451416,0.8763136267662048
1772445465330759400,2.814759521484375,0.10801119357347488,-0.712314784526825,1.0577448606491089
1772445465340691500,2.82469140625,0.10246655344963074,-0.5571258664131165,1.1655606031417847
1772445465350623500,2.83462353515625,0.09405309706926346,-0.38938722014427185,1.1510623693466187
1772445465360555800,2.8445556640625,0.1162918210029602,-0.32812121510505676,1.066266655921936
1772445465370488600,2.854488525390625,0.1722368448972702,-0.3511847257614136,0.9680250883102417
1772445465380420600,2.864420654296875,0.257066935300827,-0.36315059661865234,0.8816203474998474
1772445465390352400,2.874352294921875,0.3801358640193939,-0.3725408911705017,0.8205809593200684
1772445465400284400,2.884284423828125,0.5454647541046143,-0.358744353055954,0.7493961453437805
1772445465410216400,2.894216552734375,0.7609403133392334,-0.3117621839046478,0.6117024421691895
1772445465420148700,2.904148681640625,1.0011342763900757,-0.3319571912288666,0.3998251259326935
1772445465430080800,2.914080810546875,1.1373478174209595,-0.514568030834198,0.14239224791526794
1772445465440013600,2.924013671875,1.0803948640823364,-0.6649419069290161,-0.10516482591629028
1772445465449945600,2.933945556640625,0.7933641672134399,-0.5022192597389221,-0.22443927824497223
1772445465459877400,2.94387744140625,0.437801718711853,-0.007823755033314228,-0.05970139801502228
1772445465469809400,2.953809326171875,0.18959376215934753,0.5906385779380798,0.4143492579460144
1772445465479741700,2.96374169921875,0.13219641149044037,0.9755083322525024,1.0738482475280762
1772445465489673700,2.973673828125,0.1182241290807724,0.764012336730957,1.6483373641967773
1772445465499605800,2.983605712890625,0.01905777119100094,0.07239100337028503,1.9332104921340942
1772445465509538600,2.99353857421875,-0.11217588931322098,-0.6261316537857056,1.9052071571350098
1772445465519470600,3.003470703125,-0.1534886360168457,-0.988712728023529,1.732741117477417
1772445465529402400,3.01340234375,-0.03828960657119751,-0.9499567747116089,1.5326581001281738
1772445465539334700,3.023334716796875,0.13586021959781647,-0.509067952632904,1.3139740228652954
1772445465549266700,3.0332666015625,0.283375084400177,0.31579238176345825,1.0508800745010376
1772445465559198700,3.04319873046875,0.4417298436164856,1.370519995689392,0.8631641864776611
1772445465569130800,3.053130859375,0.5896242260932922,2.161205768585205,0.8813740611076355
1772445465579063600,3.0630634765625,0.764026939868927,2.4243295192718506,0.8887036442756653
1772445465588995600,3.07299560546875,0.9611602425575256,2.201796770095825,0.6379422545433044
1772445465598927600,3.082927734375,1.0456733703613281,1.7483664751052856,0.0808916836977005
1772445465608859600,3.092859619140625,0.8982000350952148,0.9842584133148193,-0.48029786348342896
1772445465618791700,3.102791748046875,0.5840128064155579,-0.01937083899974823,-0.759656548500061
1772445465628723700,3.1127236328125,0.26257434487342834,-0.6379600167274475,-0.7595611810684204
1772445465638656500,3.122656494140625,0.0711836963891983,-0.456377238035202,-0.6684221625328064
1772445465648588500,3.132588623046875,0.00635862909257412,0.24153581261634827,-0.5525683164596558
1772445465658520600,3.1425205078125,-0.017518943175673485,0.9451072216033936,-0.4141492247581482
1772445465668452600,3.15245263671875,-0.05269423872232437,1.2906047105789185,-0.29581698775291443
1772445465678384600,3.162384521484375,-0.0959770455956459,1.1437736749649048,-0.24837248027324677
1772445465688316200,3.172316162109375,-0.20190586149692535,0.5690451264381409,-0.3009840250015259
1772445465698248000,3.182248046875,-0.337096244096756,-0.08235174417495728,-0.41197168827056885
1772445465708181000,3.192180908203125,-0.3523090183734894,-0.4923531115055084,-0.45331621170043945
1772445465718113000,3.202113037109375,-0.2653225064277649,-0.4420131742954254,-0.37810972332954407
1772445465728045000,3.212045166015625,-0.15582983195781708,-0.06623607873916626,-0.2678537666797638
1772445465737977000,3.22197705078125,-0.052755698561668396,0.36016392707824707,-0.19406236708164215
1772445465747909000,3.2319091796875,0.044553808867931366,0.5286355018615723,-0.17531158030033112
1772445465757841200,3.241841064453125,0.1238943561911583,0.3593664765357971,-0.24420002102851868
1772445465767773000,3.25177294921875,0.16620585322380066,-0.06396214663982391,-0.3675786852836609
1772445465777706000,3.2617060546875,0.1614830195903778,-0.6462404727935791,-0.47412797808647156
1772445465787638000,3.271637939453125,0.10485809296369553,-1.1179131269454956,-0.46222442388534546
1772445465797570000,3.281570068359375,0.007096108049154282,-1.3512052297592163,-0.26564958691596985
1772445465807502000,3.291502197265625,-0.12037236243486404,-1.3440072536468506,0.06036367639899254
1772445465817434000,3.30143408203125,-0.26902157068252563,-1.0344904661178589,0.41033679246902466
1772445465827366100,3.3113662109375,-0.41429221630096436,-0.4465360939502716,0.673843264579773
1772445465837299200,3.32129931640625,-0.5074306130409241,0.20582805573940277,0.8030409216880798
1772445465847231000,3.33123095703125,-0.49826082587242126,0.7034685015678406,0.8013324737548828
1772445465857163000,3.3411630859375,-0.37715762853622437,0.857042670249939,0.7256004214286804
1772445465867095000,3.351094970703125,-0.22004441916942596,0.664046585559845,0.5530675053596497
1772445465877027000,3.361027099609375,-0.059307243674993515,0.33480304479599,0.2757677137851715
1772445465886959000,3.370958984375,0.10151679068803787,0.007643016055226326,0.010772804729640484
1772445465896891100,3.38089111328125,0.22835390269756317,-0.3054693341255188,-0.11491474509239197
1772445465906824200,3.39082421875,0.30086833238601685,-0.6128793358802795,-0.0883190929889679
1772445465916756000,3.400755859375,0.337846040725708,-0.8943682312965393,0.04676389694213867
1772445465926688000,3.41068798828125,0.38827112317085266,-1.058990240097046,0.23891256749629974
1772445465936620000,3.4206201171875,0.49100786447525024,-1.0985583066940308,0.44424110651016235
1772445465946552000,3.430552001953125,0.5183042287826538,-1.197510004043579,0.6010304689407349
1772445465956484000,3.440484130859375,0.43587109446525574,-1.347909688949585,0.6446639895439148
1772445465966416100,3.450416015625,0.27904605865478516,-1.4406148195266724,0.6269118785858154
1772445465976349200,3.46034912109375,0.09688091278076172,-1.3682619333267212,0.6452845931053162
1772445465986281000,3.470281005859375,-0.03734000399708748,-1.1344118118286133,0.7531247735023499
1772445465996213000,3.480212890625,-0.0357704684138298,-0.8039942383766174,0.9018871188163757
1772445466006145000,3.49014501953125,0.10926821082830429,-0.5390304327011108,0.9602449536323547
1772445466016077000,3.5000771484375,0.3010381758213043,-0.4625920057296753,0.8005380034446716
1772445466026009000,3.510009033203125,0.4934456944465637,-0.38337257504463196,0.37402740120887756
1772445466035942100,3.519942138671875,0.5456326007843018,-0.11389987170696259,-0.12523162364959717
1772445466045874200,3.529874267578125,0.37076443433761597,0.30167868733406067,-0.3916263282299042
1772445466055806000,3.539805908203125,0.06639235466718674,0.5774550437927246,-0.2843984365463257
1772445466065738000,3.549738037109375,-0.10600684583187103,0.8070693016052246,0.12378212064504623
1772445466075670000,3.559669921875,-0.07614658027887344,0.8404933214187622,0.5607730746269226
1772445466085602000,3.56960205078125,0.009935574606060982,0.6738318800926208,0.5972877144813538
1772445466095534000,3.5795341796875,0.015681717544794083,0.18309623003005981,0.1855628937482834
1772445466105467100,3.589467041015625,-0.09494945406913757,-0.574174165725708,-0.38549715280532837
1772445466115399200,3.599399169921875,-0.2323482483625412,-1.0350587368011475,-0.8080084323883057
1772445466125331000,3.6093310546875,-0.29174739122390747,-0.9283621311187744,-0.8890106081962585
1772445466135263000,3.619262939453125,-0.29547014832496643,-0.45648059248924255,-0.6900185942649841
1772445466145195000,3.629195068359375,-0.393943727016449,0.06555010378360748,-0.43243762850761414
1772445466155127000,3.639126953125,-0.6042114496231079,0.39826512336730957,-0.24969571828842163
1772445466165060000,3.64906005859375,-0.7835961580276489,0.5450388789176941,-0.11901654303073883
1772445466174992100,3.6589921875,-0.7854880690574646,0.6996483206748962,-0.0650767832994461
1772445466184924200,3.668924072265625,-0.5655133724212646,0.7518452405929565,-0.10578081011772156
1772445466194856000,3.67885595703125,-0.23602765798568726,0.6247128844261169,-0.21901823580265045
1772445466204788000,3.6887880859375,0.11887849122285843,0.3024674952030182,-0.43285033106803894
1772445466214720000,3.698719970703125,0.4811174273490906,-0.21269023418426514,-0.7017593383789062
1772445466224652000,3.708652099609375,0.7172460556030273,-0.8196741938591003,-0.9714105129241943
1772445466234585000,3.718585205078125,0.7474687695503235,-1.287603497505188,-1.1839978694915771
1772445466244517000,3.72851708984375,0.6159975528717041,-1.4348520040512085,-1.243323802947998
1772445466254449200,3.73844921875,0.33918407559394836,-1.105729579925537,-1.1024307012557983
1772445466264381000,3.748380859375,0.01348239928483963,-0.4292302131652832,-0.7281330823898315
1772445466274313000,3.75831298828125,-0.23084862530231476,0.2854132354259491,-0.1721169650554657
1772445466284245000,3.768244873046875,-0.3240507245063782,0.7613613605499268,0.42783623933792114
1772445466294178000,3.778177978515625,-0.3526790142059326,0.8351007699966431,0.8845957517623901
1772445466304110000,3.788110107421875,-0.41804179549217224,0.5120428204536438,1.0931735038757324
1772445466314042000,3.7980419921875,-0.4615994989871979,-0.00997295044362545,1.011177897453308
1772445466323974000,3.807973876953125,-0.3929271996021271,-0.4255158305168152,0.6968340277671814
1772445466333906000,3.817906005859375,-0.21322551369667053,-0.6172135472297668,0.2778778076171875
1772445466343838000,3.827837890625,0.022920969873666763,-0.5519953966140747,-0.10434810817241669
1772445466353770000,3.83777001953125,0.2329632043838501,-0.34367257356643677,-0.3341129422187805
1772445466363703000,3.847703125,0.39723843336105347,-0.230813667178154,-0.34518131613731384
1772445466373635000,3.857635009765625,0.5405734777450562,-0.24066579341888428,-0.23351620137691498
1772445466383567000,3.867567138671875,0.6470745801925659,-0.4246569573879242,-0.09115959703922272
1772445466393499000,3.877498779296875,0.7101776599884033,-0.7637364864349365,-0.011599523946642876
1772445466403431000,3.887430908203125,0.7812649011611938,-1.1477669477462769,-0.01830429770052433
1772445466413363000,3.897363037109375,0.8526132702827454,-1.4515564441680908,-0.07776594907045364
1772445466423296000,3.9072958984375,0.9157419204711914,-1.5785919427871704,-0.18306973576545715
1772445466433228000,3.91722802734375,0.9345367550849915,-1.4997224807739258,-0.3361314833164215
1772445466443160000,3.92716015625,0.8448936939239502,-1.2144241333007812,-0.48954445123672485
1772445466453092000,3.937092041015625,0.6183565258979797,-0.8030666708946228,-0.5547497868537903
1772445466463023900,3.94702392578125,0.2845210134983063,-0.4372223913669586,-0.4025869071483612
1772445466472956000,3.956955810546875,-0.14182095229625702,-0.27529385685920715,-0.04186876863241196
1772445466482888000,3.966887939453125,-0.5609060525894165,-0.19657425582408905,0.4019262492656708
1772445466492821000,3.976821044921875,-0.9144066572189331,-0.14428620040416718,0.8398574590682983
1772445466502753000,3.9867529296875,-1.1116708517074585,0.01934853382408619,1.0774707794189453
1772445466512685000,3.99668505859375,-1.1370697021484375,0.4395424723625183,1.0006983280181885
1772445466522617000,4.0066171875,-1.0021132230758667,1.2238655090332031,0.5991343855857849
1772445466532548900,4.016548828125,-0.6952692270278931,2.307546377182007,0.07148256152868271
1772445466542481000,4.02648095703125,-0.32474762201309204,3.036040782928467,-0.24290812015533447
1772445466552414000,4.0364140625,-0.12172497063875198,2.5560550689697266,-0.1558108925819397
1772445466562346000,4.046345947265625,-0.18861320614814758,0.808427631855011,0.19015184044837952
1772445466572278000,4.056278076171875,-0.3624925911426544,-1.2213083505630493,0.49347394704818726
1772445466582210000,4.0662099609375,-0.43257981538772583,-2.6835572719573975,0.607297956943512
1772445466592142000,4.07614208984375,-0.3526218831539154,-3.2382047176361084,0.5082805752754211
1772445466602073900,4.086073974609375,-0.15662680566310883,-2.7170188426971436,0.18535391986370087
1772445466612006000,4.096005859375,0.1598852574825287,-1.4619135856628418,-0.28943464159965515
1772445466621939000,4.10593896484375,0.4641101360321045,-0.11890966445207596,-0.8312049508094788
1772445466631871000,4.11587109375,0.614722728729248,0.7665063738822937,-1.3343497514724731
1772445466641803000,4.125802978515625,0.6596246957778931,1.1577953100204468,-1.585549235343933
1772445466651735000,4.135735107421875,0.5576213598251343,0.9337188601493835,-1.515449047088623
1772445466661667000,4.1456669921875,0.32619136571884155,0.4221913516521454,-1.3245108127593994
1772445466671598800,4.155598876953125,0.07147888839244843,0.014771487563848495,-1.080353021621704
1772445466681532000,4.165531982421875,-0.23042024672031403,0.013421796262264252,-0.8204098343849182
1772445466691464400,4.17546435546875,-0.5422595143318176,0.4795525074005127,-0.5507869124412537
1772445466701396200,4.185396240234375,-0.8120970726013184,1.2301990985870361,-0.20732703804969788
1772445466711328300,4.195328369140625,-0.9583092331886292,1.9199140071868896,0.17361903190612793
1772445466721260300,4.20526025390625,-0.8975332379341125,2.1650609970092773,0.44794219732284546
1772445466731192300,4.2151923828125,-0.6767392754554749,1.8258966207504272,0.48727378249168396
1772445466741125400,4.22512548828125,-0.3941589295864105,1.0517979860305786,0.2802220582962036
1772445466751057400,4.235057373046875,-0.1770983338356018,0.1637168675661087,-0.07930401712656021
1772445466760989400,4.244989501953125,-0.15891559422016144,-0.5621068477630615,-0.3003959059715271
1772445466770921200,4.254921142578125,-0.2608957290649414,-0.92106693983078,-0.22205762565135956
1772445466780853200,4.264853271484375,-0.3282116651535034,-0.8687843084335327,0.07898876070976257
1772445466790785300,4.274785400390625,-0.3122367262840271,-0.5708751678466797,0.44753122329711914
1772445466800717300,4.28471728515625,-0.2150379717350006,-0.28478991985321045,0.7335634827613831
1772445466810650400,4.294650390625,-0.07315763086080551,-0.1404218077659607,0.8206394910812378
1772445466820582400,4.30458251953125,0.036467935889959335,-0.23366867005825043,0.6860262751579285
1772445466830514400,4.314514404296875,0.08904474228620529,-0.49745988845825195,0.3885948359966278
1772445466840446200,4.3244462890625,0.1263524293899536,-0.7648047804832458,0.030696623027324677
1772445466850378200,4.334378173828125,0.13322043418884277,-0.836204469203949,-0.2607004642486572
1772445466860310300,4.344310302734375,0.11226029694080353,-0.7010961771011353,-0.39160680770874023
1772445466870243300,4.354243408203125,0.11209455132484436,-0.5436521768569946,-0.3565133512020111
1772445466880175400,4.36417529296875,0.0834871456027031,-0.4997507631778717,-0.20588496327400208
1772445466890107400,4.374107421875,-0.0020117133390158415,-0.5300970673561096,-0.040427908301353455
1772445466900039400,4.384039306640625,-0.09320846945047379,-0.6321664452552795,0.0986146628856659
1772445466909971200,4.39397119140625,-0.22980716824531555,-0.7274280190467834,0.17543140053749084
1772445466919903200,4.4039033203125,-0.424789696931839,-0.741121232509613,0.2461167573928833
1772445466929835300,4.413835205078125,-0.6483323574066162,-0.6284083127975464,0.39181193709373474
1772445466939768300,4.423768310546875,-0.8829810619354248,-0.3546643853187561,0.6260129809379578
1772445466949700400,4.433700439453125,-1.0312409400939941,0.07508209347724915,0.917092502117157
1772445466959632400,4.44363232421875,-1.0213041305541992,0.4612567126750946,1.2283682823181152
1772445466969564400,4.453564453125,-0.8714337348937988,0.5307769775390625,1.4724044799804688
1772445466979496200,4.46349609375,-0.7103265523910522,0.2742411196231842,1.577441692352295
1772445466989428200,4.47342822265625,-0.5985564589500427,-0.1709718555212021,1.5127958059310913
1772445466999361300,4.483361328125,-0.5387074947357178,-0.5394660234451294,1.282475233078003
1772445467009293300,4.493293212890625,-0.584138035774231,-0.5380545258522034,0.9656005501747131
1772445467019225300,4.503225341796875,-0.8320649862289429,-0.10669250786304474,0.6977952122688293
1772445467029157400,4.513157470703125,-1.2076603174209595,0.8225857615470886,0.5884863138198853
1772445467039089400,4.52308935546875,-1.588027834892273,2.068660020828247,0.7522483468055725
1772445467049021200,4.533021240234375,-1.782228946685791,3.3722596168518066,1.0937705039978027
1772445467058954200,4.542954345703125,-1.546056866645813,4.260335445404053,1.2970205545425415
1772445467068886300,4.55288623046875,-1.1121547222137451,3.9415524005889893,1.0760129690170288
1772445467078818300,4.562818359375,-0.7315593361854553,2.4096438884735107,0.5021150708198547
1772445467088750300,4.572750244140625,-0.4371812343597412,0.4822010397911072,-0.15520232915878296
1772445467098682400,4.582682373046875,-0.28236955404281616,-0.9763731360435486,-0.6532877683639526
1772445467108614400,4.592614501953125,-0.1722044199705124,-1.7058004140853882,-0.8720136284828186
1772445467118546200,4.602546142578125,-0.017640678212046623,-1.6346617937088013,-0.9242086410522461
1772445467128479200,4.612479248046875,0.2234094887971878,-0.9880498051643372,-0.9891259670257568
1772445467138411300,4.622411376953125,0.38920965790748596,-0.2813209295272827,-1.1369960308074951
1772445467148343300,4.63234326171875,0.3604677617549896,0.301525741815567,-1.3702739477157593
1772445467158275300,4.642275390625,0.25043684244155884,0.7754700779914856,-1.5716017484664917
1772445467168207400,4.652207275390625,0.11845988780260086,1.2202069759368896,-1.5563467741012573
1772445467178139400,4.662139404296875,-0.08380373567342758,1.4444652795791626,-1.2176240682601929
1772445467188072400,4.672072509765625,-0.24898557364940643,1.413576602935791,-0.6876249313354492
1772445467198004200,4.682004150390625,-0.3393050730228424,1.149225115776062,-0.2096988409757614
1772445467207936300,4.691936279296875,-0.42018941044807434,0.7306824326515198,0.1051618754863739
1772445467217868300,4.701868408203125,-0.5079956650733948,0.280565083026886,0.25523367524147034
1772445467227800300,4.71180029296875,-0.5455637574195862,-0.026001034304499626,0.309298038482666
1772445467237732400,4.721732421875,-0.5484088063240051,-0.13185769319534302,0.37007936835289
1772445467247665400,4.73166552734375,-0.49174678325653076,-0.08842436969280243,0.4715957045555115
1772445467257597400,4.741597412109375,-0.3307219445705414,-0.06320636719465256,0.6069860458374023
1772445467267529200,4.751529296875,-0.10257522761821747,-0.1720988154411316,0.7434147000312805
1772445467277461200,4.761461181640625,0.1670653074979782,-0.42419180274009705,0.8076245784759521
1772445467287393300,4.771393310546875,0.4367571175098419,-0.7513681650161743,0.7593424320220947
1772445467297325300,4.7813251953125,0.6688097715377808,-1.0506038665771484,0.6155237555503845
1772445467307258400,4.79125830078125,0.8712825179100037,-1.245954155921936,0.40819859504699707
1772445467317190400,4.8011904296875,1.0249751806259155,-1.2755240201950073,0.17103290557861328
1772445467327122400,4.811122314453125,1.1297810077667236,-1.1262800693511963,-0.06147487834095955
1772445467337054200,4.82105419921875,1.2043178081512451,-0.8298707604408264,-0.23107002675533295
1772445467346986200,4.830986328125,1.3108839988708496,-0.5515075922012329,-0.3068769872188568
1772445467356918300,4.840918212890625,1.4799041748046875,-0.488953173160553,-0.3251262903213501
1772445467366850300,4.850850341796875,1.6186755895614624,-0.7591202259063721,-0.36167168617248535
1772445467376783400,4.860783447265625,1.6055357456207275,-1.2886881828308105,-0.42915645241737366
1772445467386715400,4.87071533203125,1.4067238569259644,-1.7809724807739258,-0.48928970098495483
1772445467396647400,4.8806474609375,0.9425005316734314,-2.0039572715759277,-0.42386195063591003
1772445467406579200,4.8905791015625,0.3332359790802002,-1.8335118293762207,-0.16670280694961548
1772445467416511200,4.90051123046875,-0.17741051316261292,-1.3269511461257935,0.22286172211170197
1772445467426443300,4.910443359375,-0.45195478200912476,-0.6364077925682068,0.5904268622398376
1772445467436376300,4.920376220703125,-0.6296259760856628,0.06299613416194916,0.7816846966743469
1772445467446308400,4.930308349609375,-0.8244829177856445,0.5535820126533508,0.7848074436187744
1772445467456240400,4.940240478515625,-1.0118643045425415,0.7137280106544495,0.7210692167282104
1772445467466172400,4.95017236328125,-1.1403656005859375,0.5969772338867188,0.6886457204818726
1772445467476104200,4.960104248046875,-1.2073088884353638,0.29809442162513733,0.7827187180519104
1772445467486036200,4.9700361328125,-1.1865155696868896,-0.1104779914021492,0.9884136915206909
1772445467495969300,4.97996923828125,-0.9841470718383789,-0.3292817175388336,1.0970345735549927
1772445467505901300,4.9899013671875,-0.6526134610176086,-0.20600509643554688,0.9656292200088501
1772445467515833300,4.999833251953125,-0.27249884605407715,0.22760707139968872,0.5231574773788452
1772445467525765400,5.009765380859375,0.16372230648994446,0.7149261236190796,-0.1472143977880478
1772445467535697400,5.019697509765625,0.6308346390724182,0.9078942537307739,-0.9479696750640869
1772445467545629200,5.029629150390625,1.0407838821411133,0.6516561508178711,-1.8331849575042725
1772445467555562200,5.039562255859375,1.2967479228973389,-0.029795054346323013,-2.69577693939209
1772445467565494300,5.049494384765625,1.3208298683166504,-0.9645552635192871,-3.433972120285034
1772445467575426300,5.05942626953125,1.1069005727767944,-1.6250109672546387,-3.9723024368286133
1772445467585358300,5.0693583984375,0.79718017578125,-1.4517008066177368,-4.063461780548096
1772445467595290400,5.079290283203125,0.36464157700538635,-0.6122974157333374,-3.590646743774414
1772445467605222400,5.089222412109375,-0.0525384284555912,0.892950177192688,-2.924309730529785
1772445467615154200,5.099154296875,-0.42102670669555664,2.699626922607422,-2.3634231090545654
1772445467625087200,5.109087158203125,-0.874485969543457,4.054999351501465,-1.953615665435791
1772445467635019300,5.119019287109375,-1.4599733352661133,4.639845371246338,-1.6951292753219604
1772445467644951300,5.128951416015625,-2.0967485904693604,4.8609514236450195,-1.6363165378570557
1772445467654883300,5.13888330078125,-2.590299606323242,5.51508092880249,-1.7518651485443115
1772445467664815400,5.1488154296875,-2.768095016479492,5.587412357330322,-2.4403152465820312
1772445467674747100,5.1587470703125,-2.6485443115234375,4.984253883361816,-3.635974168777466
1772445467684680400,5.168680419921875,-2.1172261238098145,4.099981784820557,-4.545259952545166
1772445467694611700,5.17861181640625,-1.3185665607452393,2.9172277450561523,-4.897562503814697
1772445467704543700,5.188543701171875,-0.5810177326202393,1.285744309425354,-4.532704830169678
1772445467714475500,5.1984755859375,-0.26558011770248413,-0.6195588707923889,-3.382190704345703
1772445467724407600,5.208407470703125,-0.3709574043750763,-2.2007718086242676,-1.9260268211364746
1772445467734339800,5.21833984375,-0.45684248208999634,-2.995405912399292,-0.4148600697517395
1772445467744272600,5.228272705078125,-0.4082149863243103,-2.9926137924194336,0.8134424090385437
1772445467754204700,5.23820458984375,-0.2353965938091278,-2.5764682292938232,1.636850118637085
1772445467764136700,5.24813671875,0.01793334074318409,-2.22037410736084,2.122448444366455
1772445467774068700,5.25806884765625,0.2621191143989563,-2.2304816246032715,2.368771553039551
1772445467784000500,5.26800048828125,0.4247586131095886,-2.42885684967041,2.3735649585723877
1772445467793932800,5.277932861328125,0.5295507907867432,-2.600041389465332,2.1396000385284424
1772445467803865600,5.287865478515625,0.9428041577339172,-2.4018821716308594,1.8610824346542358
1772445467813797600,5.297797607421875,1.0480514764785767,-2.441420316696167,1.4918216466903687
1772445467823729700,5.307729736328125,0.6451549530029297,-2.152986764907837,1.089555263519287
1772445467833661700,5.31766162109375,0.1821710616350174,-2.2500455379486084,0.5838979482650757
1772445467843593700,5.32759375,0.055875129997730255,-2.0385570526123047,0.17374885082244873
1772445467853525800,5.33752587890625,0.25005340576171875,-1.842178225517273,0.2192729115486145
1772445467863458600,5.34745849609375,0.5228169560432434,-1.752896785736084,0.4769960343837738
1772445467873390600,5.357390625,0.7261248230934143,-1.6687307357788086,0.6575804948806763
1772445467883322600,5.367322509765625,0.8320664763450623,-1.7083576917648315,0.7125054597854614
1772445467893254700,5.377254638671875,0.8232551217079163,-1.8657805919647217,0.6964346170425415
1772445467903186700,5.387186767578125,0.7397216558456421,-1.9997475147247314,0.6495844721794128
1772445467913118700,5.39711865234375,0.6359473466873169,-2.0710628032684326,0.6683490872383118
1772445467923051800,5.4070517578125,0.558188796043396,-1.9884318113327026,0.78180992603302
1772445467932983600,5.416983642578125,0.5117997527122498,-1.7110118865966797,0.9800106287002563
1772445467942915600,5.42691552734375,0.5247187614440918,-1.1906890869140625,1.1864138841629028
1772445467952847600,5.43684765625,0.5991625785827637,-0.49250417947769165,1.353226900100708
1772445467962779600,5.446779541015625,0.6423335075378418,0.0804818645119667,1.4330500364303589
1772445467972711700,5.456711669921875,0.6067707538604736,0.5290138125419617,1.3928132057189941
1772445467982643700,5.466643798828125,0.5184433460235596,0.9046568274497986,1.2418088912963867
1772445467992576800,5.47657666015625,0.4215274751186371,1.0001229047775269,1.0137478113174438
1772445468002508500,5.486508544921875,0.3843596875667572,0.9299493432044983,0.7106110453605652
1772445468012440600,5.496440673828125,0.5822864174842834,1.0550225973129272,0.43942078948020935
1772445468022372600,5.50637255859375,1.01839280128479,1.5705652236938477,0.35111352801322937
1772445468032304600,5.5163046875,1.6061292886734009,1.5847704410552979,0.16315053403377533
1772445468042237000,5.52623681640625,1.9540715217590332,1.0168952941894531,0.11759480834007263
1772445468052169700,5.536169677734375,1.795976161956787,0.32494935393333435,0.0016578203067183495
1772445468062101500,5.5461015625,1.3567334413528442,-0.22816869616508484,-0.12363050878047943
1772445468072033500,5.556033447265625,0.9705935716629028,-0.47776681184768677,-0.09750224649906158
1772445468081965600,5.565965576171875,0.6516383290290833,-0.18756921589374542,-0.01956436038017273
1772445468091897600,5.575897705078125,0.2921629250049591,0.5712428689002991,-0.004640006460249424
1772445468101830000,5.585829833984375,-0.009634885936975479,1.2640489339828491,0.07759043574333191
1772445468111762700,5.5957626953125,-0.19937631487846375,1.4975804090499878,0.3105592429637909
1772445468121694700,5.60569482421875,-0.2650052309036255,1.508966088294983,0.45462220907211304
1772445468131626500,5.61562646484375,-0.15239612758159637,1.5195356607437134,0.31652745604515076
1772445468141558500,5.62555859375,0.10313685238361359,1.4848366975784302,-0.112272709608078
1772445468151490800,5.63549072265625,0.4004843831062317,1.255181908607483,-0.7243297100067139
1772445468161422800,5.6454228515625,0.6556779146194458,0.8021107316017151,-1.2688196897506714
1772445468171355600,5.655355712890625,0.8077508211135864,0.33605512976646423,-1.583908200263977
1772445468181287700,5.66528759765625,0.8856412172317505,0.10926219820976257,-1.6693435907363892
1772445468191219700,5.6752197265625,0.8987612724304199,0.3017251193523407,-1.5423632860183716
1772445468201151500,5.6851513671875,0.7660266160964966,0.5795114040374756,-1.1605359315872192
1772445468211083800,5.695083740234375,0.4845784306526184,0.7302636504173279,-0.5827804207801819
1772445468221015800,5.705015869140625,0.1589580923318863,0.8014793395996094,0.03415517508983612
1772445468230948600,5.714948486328125,-0.16840939223766327,0.8634095191955566,0.5862167477607727
1772445468240880600,5.724880615234375,-0.46648773550987244,0.828826367855072,1.0327187776565552
1772445468250812700,5.734812744140625,-0.6868443489074707,0.6727603673934937,1.3776192665100098
1772445468260744700,5.74474462890625,-0.8155519962310791,0.4109574854373932,1.6219559907913208
1772445468270676700,5.7546767578125,-0.8627868890762329,0.04283885285258293,1.7554469108581543
1772445468280608800,5.76460888671875,-0.8720729947090149,-0.2819964289665222,1.7418007850646973
1772445468290541600,5.77454150390625,-0.8046857118606567,-0.3968404531478882,1.5447300672531128
1772445468300473600,5.7844736328125,-0.650307297706604,-0.32574930787086487,1.1717801094055176
1772445468310405600,5.794405517578125,-0.4566284418106079,-0.2372194081544876,0.6679297089576721
1772445468320337700,5.804337646484375,-0.2552424669265747,-0.29739245772361755,0.14180992543697357
1772445468330269700,5.814269775390625,-0.06617588549852371,-0.5306822061538696,-0.31280580163002014
1772445468340201700,5.82420166015625,0.12250988185405731,-0.8311620354652405,-0.646193265914917
1772445468350134500,5.834134521484375,0.297578901052475,-1.0467857122421265,-0.8128035664558411
1772445468360066600,5.844066650390625,0.4212692975997925,-1.16435706615448,-0.7794497609138489
1772445468369998600,5.85399853515625,0.47433972358703613,-1.2042148113250732,-0.5698017477989197
1772445468379930600,5.8639306640625,0.4902385175228119,-1.1802808046340942,-0.2546537518501282
1772445468389862700,5.873862548828125,0.42336785793304443,-1.108078956604004,0.06919091194868088
1772445468399795000,5.883794921875,0.23602649569511414,-0.9983812570571899,0.33363327383995056
1772445468409727700,5.893727783203125,-0.07174890488386154,-0.8981406688690186,0.5472691655158997
1772445468419659500,5.903659423828125,-0.39762988686561584,-0.7618114948272705,0.7464417219161987
1772445468429591600,5.913591552734375,-0.6906886100769043,-0.642532467842102,0.9748032689094543
1772445468439523600,5.923523681640625,-0.9194886684417725,-0.6080407500267029,1.2196767330169678
1772445468449455600,5.93345556640625,-1.0468641519546509,-0.5983614921569824,1.4260884523391724
1772445468459388000,5.943387939453125,-1.0207462310791016,-0.5415661334991455,1.6020711660385132
1772445468469320700,5.95332080078125,-0.7871609330177307,-0.3535959720611572,1.6976988315582275
1772445468479252700,5.963252685546875,-0.4676598608493805,-0.0180291049182415,1.5628504753112793
1772445468489184500,5.9731845703125,-0.22384613752365112,0.25404050946235657,1.162818193435669
1772445468499116500,5.983116455078125,-0.08344795554876328,0.41068315505981445,0.5647280812263489
1772445468509048600,5.993048583984375,0.040035367012023926,0.3403621315956116,-0.006319192238152027
1772445468518980900,6.00298095703125,0.20403079688549042,0.0416712760925293,-0.4731663763523102
1772445468528913700,6.01291357421875,0.32000109553337097,-0.4221797585487366,-0.7884169816970825
1772445468538845700,6.022845703125,0.32399946451187134,-1.0272595882415771,-0.9230517148971558
1772445468548777700,6.03277783203125,0.17313483357429504,-1.5123271942138672,-1.046769380569458
1772445468558709500,6.04270947265625,-0.16605894267559052,-1.644492506980896,-1.1377395391464233
1772445468568641500,6.0526416015625,-0.6033869981765747,-1.217802882194519,-1.0294455289840698
1772445468578573800,6.06257373046875,-1.0747435092926025,-0.12565696239471436,-0.7115321159362793
1772445468588506600,6.072506591796875,-1.4398597478866577,1.2559154033660889,-0.2535291314125061
1772445468598438700,6.082438720703125,-1.5652025938034058,2.377695083618164,0.2012052834033966
1772445468608370700,6.09237060546875,-1.3762167692184448,2.886176586151123,0.4866407513618469
1772445468618302700,6.102302734375,-0.9165555238723755,2.7503273487091064,0.3678330183029175
1772445468628234800,6.11223486328125,-0.3432041108608246,2.0388453006744385,-0.2431478053331375
1772445468638166800,6.122166748046875,0.12205792963504791,1.0063499212265015,-1.0512378215789795
1772445468648099600,6.132099609375,0.33601176738739014,0.005137259140610695,-1.6332623958587646
1772445468658031600,6.142031494140625,0.34397760033607483,-0.6786960363388062,-1.713616132736206
1772445468667963600,6.151963623046875,0.2500564157962799,-0.8376507759094238,-1.2833805084228516
1772445468677895700,6.161895751953125,0.15360800921916962,-0.48904329538345337,-0.593980073928833
1772445468687827700,6.17182763671875,0.0494384691119194,0.12371277809143066,0.07735808193683624
1772445468697760000,6.181760009765625,-0.11675645411014557,0.6366168856620789,0.6656492352485657
1772445468707693300,6.191693359375,-0.30437642335891724,0.8769142031669617,1.1684931516647339
1772445468717625000,6.201625,-0.43636777997016907,0.9390738606452942,1.5707330703735352
1772445468727557000,6.21155712890625,-0.5359132885932922,0.820127546787262,1.8380534648895264
1772445468737489200,6.2214892578125,-0.6397057175636292,0.526049017906189,1.9050546884536743
1772445468747421200,6.231421142578125,-0.6760996580123901,0.11963203549385071,1.784393548965454
1772445468757353200,6.241353271484375,-0.5918973684310913,-0.3616255819797516,1.5457383394241333
1772445468767286300,6.251286376953125,-0.41530105471611023,-0.8243324756622314,1.2194243669509888
1772445468777218000,6.261218017578125,-0.14764443039894104,-1.0779954195022583,0.905601978302002
1772445468787150000,6.271150146484375,0.11891268938779831,-1.1709154844284058,0.5725260376930237
1772445468797082000,6.28108203125,0.2615929841995239,-1.148432731628418,0.21633891761302948
1772445468807014100,6.29101416015625,0.2763327956199646,-1.0319116115570068,-0.03819429874420166
1772445468816946200,6.3009462890625,0.28743577003479004,-0.8720016479492188,-0.1500534564256668
1772445468826879200,6.310879150390625,0.26362764835357666,-0.684813916683197,-0.17145195603370667
1772445468836811300,6.320811279296875,0.26396048069000244,-0.5120864510536194,-0.14158383011817932
1772445468846743000,6.330742919921875,0.2186555713415146,-0.4906376302242279,-0.10254321992397308
1772445468856675000,6.340675048828125,0.18413956463336945,-0.543218731880188,-0.0943288654088974
1772445468866607000,6.350607177734375,0.194051593542099,-0.5954704880714417,-0.07392877340316772
1772445468876539100,6.3605390625,0.16373129189014435,-0.6073877215385437,-0.042807165533304214
1772445468886472200,6.37047216796875,0.07115714997053146,-0.5855963826179504,0.02395135536789894
1772445468896404200,6.380404296875,-0.06331358104944229,-0.5456729531288147,0.15126937627792358
1772445468906336300,6.390336181640625,-0.198454350233078,-0.4414895474910736,0.3610231280326843
1772445468916268000,6.40026806640625,-0.2975809574127197,-0.2700393795967102,0.6560183167457581
1772445468926200000,6.410199951171875,-0.31895360350608826,-0.05214115232229233,0.9778032898902893
1772445468936132000,6.420132080078125,-0.3131026327610016,0.03933381289243698,1.194689393043518
1772445468946065200,6.430065185546875,-0.31975042819976807,-0.10025124996900558,1.2820918560028076
1772445468955997200,6.4399970703125,-0.24041275680065155,-0.23475465178489685,1.24229097366333
1772445468965929200,6.44992919921875,-0.105738565325737,-0.2137705385684967,1.1366585493087769
1772445468975861200,6.459861328125,-0.016947926953434944,0.049219198524951935,1.0297232866287231
1772445468985793000,6.46979296875,0.07469330728054047,0.47972238063812256,0.9117105603218079
1772445468995725000,6.47972509765625,0.232137992978096,0.7834048271179199,0.7963805198669434
1772445469005658000,6.489658203125,0.3880753815174103,0.8806650638580322,0.5379444360733032
1772445469015590100,6.499590087890625,0.6230217814445496,0.7396228313446045,0.07902596890926361
1772445469025522200,6.509522216796875,0.8108736872673035,0.2485438883304596,-0.47513628005981445
1772445469035454200,6.5194541015625,0.8402719497680664,-0.1695256382226944,-1.1336091756820679
1772445469045386200,6.52938623046875,0.7296612858772278,-0.30535590648651123,-1.762183666229248
1772445469055318000,6.539318115234375,0.513438880443573,-0.07224342226982117,-2.211670398712158
1772445469065251000,6.5492509765625,0.22226189076900482,0.6462012529373169,-2.3818001747131348
1772445469075183000,6.55918310546875,-0.072056345641613,1.6164990663528442,-2.245603322982788
1772445469085115100,6.569115234375,-0.35373756289482117,2.452732801437378,-1.878368616104126
1772445469095047200,6.579047119140625,-0.6046648025512695,2.9449429512023926,-1.3507928848266602
1772445469104979200,6.588979248046875,-0.7365405559539795,3.0862033367156982,-0.7592976093292236
1772445469114911200,6.5989111328125,-0.7610460519790649,2.943366050720215,-0.3542012870311737
1772445469124844300,6.60884423828125,-0.7152122259140015,2.5126442909240723,-0.2875026762485504
1772445469134776000,6.618776123046875,-0.6404614448547363,1.933894395828247,-0.5057163238525391
1772445469144708000,6.6287080078125,-0.4957362115383148,1.3884832859039307,-0.8119571805000305
1772445469154640100,6.63864013671875,-0.288571834564209,0.9645041227340698,-1.0391929149627686
1772445469164572200,6.648572265625,-0.09374374896287918,0.6023086309432983,-1.1461845636367798
1772445469174504200,6.658504150390625,0.08082575350999832,0.22855353355407715,-1.1589064598083496
1772445469184437200,6.668437255859375,0.25812196731567383,-0.13721513748168945,-1.0761535167694092
1772445469194369300,6.678369384765625,0.43338993191719055,-0.5298143625259399,-0.9246368408203125
1772445469204301000,6.688301025390625,0.5517141222953796,-0.8917208909988403,-0.7571737766265869
1772445469214233000,6.698233154296875,0.5813451409339905,-1.1127837896347046,-0.5640060901641846
1772445469224165000,6.7081650390625,0.5297573208808899,-1.195525050163269,-0.26256585121154785
1772445469234098200,6.71809814453125,0.4425053894519806,-1.1892341375350952,0.1355600506067276
1772445469244030200,6.7280302734375,0.32900625467300415,-1.1118147373199463,0.5901291370391846
1772445469253962200,6.737962158203125,0.1800406277179718,-0.9962276816368103,1.0151199102401733
1772445469263894300,6.747894287109375,0.018369708210229874,-0.8331695199012756,1.364971399307251
1772445469273826000,6.757825927734375,-0.09728073328733444,-0.5255964994430542,1.6236028671264648
1772445469283758000,6.767758056640625,-0.1038917601108551,-0.09232357144355774,1.768864631652832
1772445469293690000,6.777690185546875,0.05939019098877907,0.3395610749721527,1.7271661758422852
1772445469303623200,6.787623046875,0.36320891976356506,0.5590798854827881,1.416381597518921
1772445469313555200,6.79755517578125,0.7414059042930603,0.39691653847694397,0.8741804361343384
1772445469323487200,6.8074873046875,1.1191108226776123,-0.1551482230424881,0.2446025162935257
1772445469333419300,6.817419189453125,1.4346520900726318,-0.9548778533935547,-0.31810712814331055
1772445469343351000,6.82735107421875,1.5915758609771729,-1.8315582275390625,-0.6725882291793823
1772445469353283000,6.837282958984375,1.5473555326461792,-2.464588165283203,-0.7796586751937866
1772445469363216100,6.847216064453125,1.3977689743041992,-2.610637903213501,-0.6793912053108215
1772445469373148200,6.857148193359375,1.2253942489624023,-2.2250702381134033,-0.46841689944267273
1772445469383080200,6.867080078125,1.0472972393035889,-1.547847867012024,-0.24727758765220642
1772445469393012200,6.87701220703125,0.8503841757774353,-0.9319801926612854,-0.13418981432914734
1772445469402944300,6.8869443359375,0.5742519497871399,-0.6333562135696411,-0.18925893306732178
1772445469412877300,6.896877197265625,0.2131364345550537,-0.6768454313278198,-0.29376021027565
1772445469422809000,6.90680908203125,-0.12565840780735016,-0.8952333927154541,-0.24861694872379303
1772445469432741000,6.9167412109375,-0.4787280261516571,-1.0893020629882812,0.035653796046972275
1772445469442673200,6.926673095703125,-0.758269727230072,-1.002807378768921,0.426281213760376
1772445469452605200,6.936605224609375,-0.8687562942504883,-0.5369617342948914,0.7162824869155884
1772445469462537200,6.946537109375,-0.9027403593063354,0.19335266947746277,0.7693883180618286
1772445469472470300,6.95647021484375,-0.8795948624610901,0.8662188053131104,0.5605041980743408
1772445469482402300,6.96640234375,-0.8406535387039185,1.3078773021697998,0.1532200276851654
1772445469492334000,6.976333984375,-0.796630859375,1.5617481470108032,-0.27834662795066833
1772445469502266000,6.98626611328125,-0.6415345072746277,1.6888400316238403,-0.6368049383163452
1772445469512198100,6.9961982421875,-0.4394383132457733,1.5270148515701294,-0.8763413429260254
1772445469522130200,7.006130126953125,-0.2570256292819977,0.9834919571876526,-1.165053367614746
1772445469532063200,7.016063232421875,-0.1294996589422226,0.3294455111026764,-1.5546295642852783
1772445469541995300,7.025995361328125,-0.1059088408946991,-0.20194114744663239,-1.9058424234390259
1772445469551927300,7.03592724609375,-0.23442423343658447,-0.3709810674190521,-2.0443575382232666
1772445469561859000,7.045859130859375,-0.48299145698547363,0.03356854245066643,-1.9449187517166138
1772445469571791000,7.055791015625,-0.6602063179016113,0.8368265628814697,-1.625760555267334
1772445469581723100,7.06572314453125,-0.732028603553772,1.5658857822418213,-1.2159967422485352
1772445469591656200,7.07565625,-0.7393550276756287,1.8886370658874512,-0.8899642825126648
1772445469601588200,7.085588134765625,-0.7735196948051453,1.8520724773406982,-0.6981199979782104
1772445469611520300,7.095520263671875,-0.8645681142807007,1.6012599468231201,-0.5379993319511414
1772445469621452300,7.105452392578125,-0.9076724052429199,1.4045498371124268,-0.34786373376846313
1772445469631384000,7.115384033203125,-0.8765138983726501,1.3351413011550903,-0.14833824336528778
1772445469641316000,7.125316162109375,-0.7388601899147034,1.3669137954711914,-0.057202741503715515
1772445469651249200,7.135249267578125,-0.49604442715644836,1.363882064819336,-0.08417703956365585
1772445469661181200,7.14518115234375,-0.22097796201705933,1.1163830757141113,-0.1462409496307373
1772445469671113200,7.15511328125,0.050195999443531036,0.6740319728851318,-0.13835494220256805
1772445469681045200,7.165045166015625,0.2640393078327179,0.14412789046764374,0.03917083889245987
1772445469690976500,7.1749765625,0.4253956079483032,-0.3379083573818207,0.3333233594894409
1772445469700909600,7.18490966796875,0.5057801604270935,-0.7546094059944153,0.7039085626602173
1772445469710841600,7.194841552734375,0.49112072587013245,-1.0569143295288086,1.0844284296035767
1772445469720773600,7.204773681640625,0.4002438187599182,-1.200844645500183,1.4089215993881226
1772445469730705400,7.214705322265625,0.2752735912799835,-1.1981291770935059,1.6914269924163818
1772445469740637400,7.224637451171875,0.13091455399990082,-1.1045114994049072,1.947095513343811
1772445469750569500,7.234569580078125,-0.022190457209944725,-0.9189403653144836,2.1497390270233154
1772445469760502500,7.24450244140625,-0.10461635887622833,-0.6777040362358093,2.278475046157837
1772445469770434600,7.2544345703125,-0.07203250378370285,-0.46198055148124695,2.2973902225494385
1772445469780366600,7.26436669921875,0.05236668139696121,-0.35119491815567017,2.188981533050537
1772445469790298600,7.274298583984375,0.23924489319324493,-0.31822627782821655,1.9569118022918701
1772445469800230400,7.28423046875,0.468412846326828,-0.3280666470527649,1.6345607042312622
1772445469810162400,7.294162353515625,0.7127880454063416,-0.3697017431259155,1.2427468299865723
1772445469820095500,7.304095458984375,0.9151872396469116,-0.43788638710975647,0.8344818949699402
1772445469830027500,7.314027587890625,1.0784293413162231,-0.5740821361541748,0.4905509352684021
1772445469839959600,7.32395947265625,1.2085047960281372,-0.8214141130447388,0.25297805666923523
1772445469849891600,7.3338916015625,1.2990270853042603,-1.128585934638977,0.13460560142993927
1772445469859823600,7.34382373046875,1.324090600013733,-1.4193450212478638,0.1109580546617508
1772445469869755400,7.35375537109375,1.2399773597717285,-1.6920181512832642,0.14394636452198029
1772445469879688400,7.3636884765625,1.024842619895935,-1.8547979593276978,0.18350869417190552
1772445469889620500,7.373620361328125,0.6759502291679382,-1.8038359880447388,0.27609091997146606
1772445469899552500,7.383552490234375,0.25218477845191956,-1.4973586797714233,0.48617491126060486
1772445469909484500,7.393484619140625,-0.17158721387386322,-1.0317739248275757,0.8006548881530762
1772445469919416600,7.40341650390625,-0.5450942516326904,-0.556555986404419,1.1150304079055786
1772445469929348600,7.4133486328125,-0.8629238605499268,-0.13488677144050598,1.3706276416778564
1772445469939281700,7.42328173828125,-1.0524545907974243,0.27742889523506165,1.5404608249664307
1772445469949213400,7.43321337890625,-1.0769126415252686,0.6015161275863647,1.5834835767745972
1772445469959145500,7.4431455078125,-0.9567236304283142,0.7604075074195862,1.4441426992416382
1772445469969077500,7.453077392578125,-0.7254417538642883,0.813876211643219,1.0900157690048218
1772445469979009500,7.463009521484375,-0.4795590341091156,0.8364949822425842,0.5320190191268921
1772445469988941600,7.472941650390625,-0.23028086125850677,0.7992393970489502,-0.0982038825750351
1772445469998874600,7.48287451171875,-0.022474413737654686,0.7687182426452637,-0.5722494721412659
1772445470008806700,7.492806640625,0.12530659139156342,0.6991593241691589,-0.8150206804275513
1772445470018738400,7.502738525390625,0.24213440716266632,0.2666797935962677,-0.8300736546516418
1772445470028670500,7.51267041015625,0.3032768964767456,-0.3202751576900482,-0.7415741086006165
1772445470038602500,7.5226025390625,0.17594583332538605,-0.6079388856887817,-0.666212260723114
1772445470048534500,7.532534423828125,-0.0722803995013237,-0.45909953117370605,-0.5603772401809692
1772445470058467600,7.542467529296875,-0.21451610326766968,0.17421165108680725,-0.41852450370788574
1772445470068399600,7.552399658203125,-0.22460292279720306,1.1110031604766846,-0.31373143196105957
1772445470078331600,7.56233154296875,-0.17084647715091705,1.7215112447738647,-0.23549841344356537
1772445470088263400,7.572263427734375,-0.06923194974660873,1.723260760307312,-0.19939066469669342
1772445470098195500,7.582195556640625,0.0994793027639389,1.2486202716827393,-0.19848252832889557
1772445470108128500,7.59212841796875,0.2878338396549225,0.6415327787399292,-0.22977882623672485
1772445470118060500,7.602060546875,0.4575453996658325,0.19761256873607635,-0.2961418926715851
1772445470127992600,7.61199267578125,0.594879686832428,-0.050100311636924744,-0.3106052577495575
1772445470137924600,7.621924560546875,0.6625993251800537,-0.5530089735984802,-0.34823092818260193
1772445470147856600,7.631856689453125,0.5455911755561829,-0.2263311892747879,-0.4718078374862671
1772445470157788400,7.641788330078125,0.4470118582248688,0.27584296464920044,-0.32281649112701416
1772445470167721500,7.651721435546875,0.3470712900161743,0.43445342779159546,0.01193179376423359
1772445470177653500,7.661653564453125,0.21086926758289337,0.45268917083740234,0.2983582317829132
1772445470187585500,7.67158544921875,0.08235108852386475,0.47124528884887695,0.5236243605613708
1772445470197517600,7.681517578125,0.019766803830862045,0.43297648429870605,0.718317449092865
1772445470207449600,7.69144970703125,0.09605520963668823,0.3541600704193115,0.9185764789581299
1772445470217381400,7.70138134765625,0.28741025924682617,0.23569096624851227,1.1334844827651978
1772445470227314700,7.711314697265625,0.5206297039985657,0.05574009567499161,1.3837486505508423
1772445470237246500,7.72124658203125,0.7155347466468811,-0.17848651111125946,1.6098933219909668
1772445470247178500,7.731178466796875,0.8072187900543213,-0.37241506576538086,1.771898627281189
1772445470257110500,7.741110595703125,0.782364010810852,-0.530430018901825,1.868486762046814
1772445470267042600,7.75104248046875,0.6882551908493042,-0.6261706352233887,1.8935692310333252
1772445470276974600,7.760974609375,0.6099710464477539,-0.5891695022583008,1.8677219152450562
1772445470286907600,7.77090771484375,0.6124972105026245,-0.4603980481624603,1.8092573881149292
1772445470296839700,7.780839599609375,0.695482611656189,-0.36041179299354553,1.6574393510818481
1772445470306771500,7.790771484375,0.8571392893791199,-0.2726709842681885,1.3577649593353271
1772445470316703500,7.800703369140625,1.0687003135681152,-0.2076914757490158,0.9240571856498718
1772445470326635500,7.810635498046875,1.3138705492019653,-0.20378227531909943,0.4389263391494751
1772445470336568600,7.820568603515625,1.4638336896896362,-0.2538489103317261,-0.007919077761471272
1772445470346500600,7.83050048828125,1.4145082235336304,-0.5584676861763,-0.406909316778183
1772445470356432600,7.8404326171875,1.1659049987792969,-1.0108054876327515,-0.7023904919624329
1772445470366364400,7.850364501953125,0.5992835760116577,-1.1213319301605225,-0.5462812185287476
1772445470376296400,7.86029638671875,0.1314723938703537,-1.0435116291046143,-0.3276345729827881
1772445470386228500,7.870228515625,-0.11661264300346375,-0.5443893074989319,-0.05257362127304077
1772445470396161500,7.88016162109375,-0.23943816125392914,0.0022119618952274323,0.2842685878276825
1772445470406093600,7.890093505859375,-0.41135090589523315,0.5298891067504883,0.684201180934906
1772445470416025600,7.900025634765625,-0.6579428911209106,0.9799540042877197,1.0563812255859375
1772445470425957600,7.90995751953125,-0.8838828206062317,1.2753089666366577,1.3242298364639282
1772445470435889400,7.919889404296875,-1.040637493133545,1.3869556188583374,1.4797738790512085
1772445470445821400,7.929821533203125,-1.09756338596344,1.4329440593719482,1.435985803604126
1772445470455754500,7.93975439453125,-1.0403939485549927,1.5365583896636963,1.107276201248169
1772445470465686500,7.9496865234375,-0.8441436290740967,1.7269595861434937,0.43567606806755066
1772445470475618600,7.95961865234375,-0.4456076920032501,1.8424150943756104,-0.5870065689086914
1772445470485550600,7.969550537109375,0.13762088119983673,1.603302240371704,-1.9177500009536743
1772445470495482600,7.979482666015625,0.7907180190086365,0.9874926209449768,-3.551464319229126
1772445470505414400,7.989414306640625,1.310638189315796,0.4370121359825134,-5.358173370361328
1772445470515347500,7.999347412109375,1.494657278060913,0.3092059791088104,-6.454169273376465
1772445470525279500,8.009279541015625,1.774434208869934,-0.031728047877550125,-6.563335418701172
1772445470535211500,8.01921142578125,2.098538875579834,-0.6465786695480347,-5.730197429656982
1772445470545143600,8.0291435546875,2.268625497817993,-1.2134894132614136,-4.460333824157715
1772445470555075600,8.03907568359375,2.110321044921875,-1.1584528684616089,-3.2889645099639893
1772445470565008600,8.049008544921875,1.5690122842788696,-0.6489919424057007,-2.2419896125793457
1772445470574940700,8.058940673828126,0.808951199054718,0.2077709287405014,-1.3045680522918701
1772445470584872400,8.06887255859375,0.18734683096408844,1.3148443698883057,-0.6484519839286804
1772445470594804500,8.078804443359376,-0.14642049372196198,2.18367338180542,-0.2739444077014923
1772445470604736500,8.088736572265624,-0.2206142097711563,2.4767038822174072,-0.08918480575084686
1772445470614668500,8.09866845703125,-0.1472555696964264,2.284076452255249,-0.03760577365756035
1772445470624601600,8.1086015625,-0.038649823516607285,1.7850780487060547,0.026335587725043297
1772445470634533600,8.11853369140625,0.050652358680963516,1.1872979402542114,0.15399421751499176
1772445470644465700,8.128465576171875,0.08972607553005219,0.6399882435798645,0.31622546911239624
1772445470654397400,8.1383974609375,0.11582104861736298,0.1725858896970749,0.47372373938560486
1772445470664329500,8.14832958984375,0.14562053978443146,-0.1755424439907074,0.571402907371521
1772445470674261500,8.158261474609375,0.14979344606399536,-0.2297188639640808,0.6756933927536011
1772445470684194600,8.168194580078126,0.14314581453800201,-0.03449412062764168,0.8385214805603027
1772445470694127000,8.178127197265624,0.13882429897785187,0.18263953924179077,0.9862185120582581
1772445470704059100,8.18805908203125,0.1326732188463211,0.18831832706928253,1.0230826139450073
1772445470713991200,8.1979912109375,0.11869855225086212,-0.0069177476689219475,0.9851953983306885
1772445470723923200,8.207923095703125,0.11323369294404984,-0.2968062162399292,0.9931976199150085
1772445470733855000,8.21785498046875,0.14994056522846222,-0.5847873687744141,1.1082360744476318
1772445470743788000,8.2277880859375,0.1961812824010849,-0.6795331239700317,1.2397345304489136
1772445470753720000,8.237719970703125,0.14770856499671936,-0.4780106544494629,1.2856329679489136
1772445470763652000,8.247652099609375,0.012348692864179611,-0.03038456290960312,1.2699995040893555
1772445470773584100,8.257584228515626,-0.13390731811523438,0.4726700484752655,1.221481204032898
1772445470783516200,8.26751611328125,-0.16057279706001282,0.8429427742958069,1.2244691848754883
1772445470793449200,8.27744921875,-0.15367494523525238,0.8024730682373047,1.2482229471206665
1772445470803381200,8.28738134765625,-0.09786625951528549,0.43162471055984497,1.2350627183914185
1772445470813313000,8.29731298828125,-0.025062626227736473,-0.21693304181098938,1.0562061071395874
1772445470823245000,8.3072451171875,-0.008272204548120499,-0.9337093830108643,0.565827488899231
1772445470833177000,8.317177001953125,-0.017079278826713562,-1.3545204401016235,0.09518595039844513
1772445470843109000,8.327109130859375,-0.013933202251791954,-1.5674288272857666,-0.24854983389377594
1772445470853042200,8.337042236328125,-0.025137387216091156,-1.697261095046997,-0.4232409596443176
1772445470862974200,8.34697412109375,-0.1397446095943451,-1.7811923027038574,-0.3116447329521179
1772445470872906200,8.35690625,-0.345039963722229,-1.8435885906219482,-0.06265010684728622
1772445470882838000,8.366838134765626,-0.5518671870231628,-1.6700286865234375,0.1904420703649521
1772445470892770000,8.37677001953125,-0.7488377690315247,-1.2295920848846436,0.447078138589859
1772445470902702000,8.3867021484375,-0.9332767724990845,-0.6041339635848999,0.7648873329162598
1772445470912635100,8.39663525390625,-1.1052435636520386,0.012166522443294525,1.134208083152771
1772445470922567200,8.406567138671875,-1.2487446069717407,0.4677695333957672,1.4642916917800903
1772445470932499200,8.416499267578125,-1.2820583581924438,0.656782865524292,1.6515675783157349
1772445470942431200,8.42643115234375,-1.1377382278442383,0.6188028454780579,1.636201024055481
1772445470952363000,8.436363037109375,-0.8556506037712097,0.5125664472579956,1.4356725215911865
1772445470962295000,8.446294921875,-0.5167602300643921,0.49311959743499756,1.108937382698059
1772445470972228000,8.45622802734375,-0.19286632537841797,0.4823468327522278,0.6936848163604736
1772445470982160100,8.46616015625,0.0922761932015419,0.5457463264465332,0.09055640548467636
1772445470992092200,8.476092041015624,0.3393680155277252,0.6512919664382935,-0.7366927862167358
1772445471002024200,8.486024169921874,0.4960649609565735,0.8460042476654053,-1.6941208839416504
1772445471011956000,8.4959560546875,0.5741927623748779,1.0042059421539307,-2.627869129180908
1772445471021889300,8.50588916015625,0.5476348996162415,0.8773642778396606,-3.3359763622283936
1772445471031821000,8.515821044921875,0.37135809659957886,0.35316014289855957,-3.5990164279937744
1772445471041753000,8.525753173828125,-0.043396081775426865,-0.3493095636367798,-3.344003915786743
1772445471051685000,8.53568505859375,-0.5497916340827942,-0.772114634513855,-2.666947841644287
1772445471061617200,8.5456171875,-0.8864778876304626,-0.663368821144104,-1.7737513780593872
1772445471071549200,8.555549072265626,-0.9173290133476257,-0.1121557429432869,-0.8164862990379333
1772445471081482200,8.565482177734374,-0.672097384929657,0.6675325632095337,0.09047552943229675
1772445471091414300,8.575414306640624,-0.2817820906639099,1.346224308013916,0.7652729153633118
1772445471101346000,8.585345947265624,0.09203116595745087,1.6006807088851929,0.9748556017875671
1772445471111278000,8.595278076171875,0.2728462219238281,1.2780052423477173,0.6970252990722656
1772445471121210000,8.605210205078125,0.21323058009147644,0.4630966782569885,0.09826453775167465
1772445471131142100,8.61514208984375,-0.060942392796278,-0.5432226657867432,-0.575407862663269
1772445471141075200,8.6250751953125,-0.42501676082611084,-1.4001567363739014,-1.0356181859970093
1772445471151007200,8.63500732421875,-0.7210846543312073,-1.8473459482192993,-1.1757558584213257
1772445471160939000,8.64493896484375,-0.8918390870094299,-1.8185914754867554,-1.0231696367263794
1772445471170871000,8.65487109375,-0.9197306632995605,-1.4632810354232788,-0.6013125777244568
1772445471180803000,8.664802978515626,-0.8067751526832581,-0.975143551826477,-0.008076988160610199
1772445471190736100,8.674736083984374,-0.6115702390670776,-0.4850100874900818,0.5840023159980774
1772445471200668200,8.684668212890625,-0.3796241879463196,-0.10473062843084335,1.0432997941970825
1772445471210600200,8.69460009765625,-0.13748586177825928,0.06272733956575394,1.3408499956130981
1772445471220532200,8.7045322265625,0.07452840358018875,-0.018372293561697006,1.4870887994766235
1772445471230464000,8.714464111328125,0.22778213024139404,-0.27606189250946045,1.4856328964233398
1772445471240396000,8.72439599609375,0.2838899791240692,-0.6125349998474121,1.3679860830307007
1772445471250329000,8.7343291015625,0.25409504771232605,-0.9470487833023071,1.2041412591934204
1772445471260261000,8.74426123046875,0.17153872549533844,-1.1373180150985718,1.0459864139556885
1772445471270193200,8.754193115234376,0.09826985001564026,-1.170389175415039,0.9511088728904724
1772445471280125200,8.764125244140626,0.07902204990386963,-1.1101653575897217,0.9254031777381897
1772445471290057200,8.77405712890625,0.12335142493247986,-0.9742620587348938,0.9431960582733154
1772445471299989000,8.783989013671874,0.17209582030773163,-0.70848548412323,1.0019841194152832
1772445471309922000,8.793922119140625,0.1405773162841797,-0.3271873891353607,1.0920659303665161
1772445471319854000,8.80385400390625,0.000253407284617424,0.06023414060473442,1.1478062868118286
1772445471329786000,8.8137861328125,-0.189915731549263,0.3695871829986572,1.1370515823364258
1772445471339718100,8.82371826171875,-0.31654492020606995,0.5453388690948486,1.03684663772583
1772445471349650200,8.833650146484375,-0.33927154541015625,0.558158278465271,0.8577325344085693
1772445471359582200,8.843582275390625,-0.2895262539386749,0.5343899726867676,0.6128891110420227
1772445471369515300,8.853515380859376,-0.17240895330905914,0.5137180089950562,0.31328585743904114
1772445471379447000,8.863447021484374,-0.04959502071142197,0.3965747058391571,0.03940381109714508
1772445471389379000,8.873379150390624,-0.010722991079092026,0.081344835460186,-0.1393081396818161
1772445471399311000,8.88331103515625,-0.05718488618731499,-0.28289568424224854,-0.24530744552612305
1772445471409243100,8.8932431640625,-0.12354526668787003,-0.5708456635475159,-0.28627803921699524
1772445471419176200,8.90317626953125,-0.17733384668827057,-0.8142767548561096,-0.2052561640739441
1772445471429108200,8.913108154296875,-0.18955856561660767,-0.9656199216842651,-0.0148654505610466
1772445471439040300,8.923040283203125,-0.15398135781288147,-0.9669737219810486,0.2253618836402893
1772445471448972000,8.932971923828125,-0.09590473026037216,-0.7341980338096619,0.5203906297683716
1772445471458904000,8.942904052734375,-0.029644176363945007,-0.25991392135620117,0.5915969014167786
1772445471468836000,8.952836181640626,-0.005193694960325956,-0.042206089943647385,0.6092233061790466
1772445471478769200,8.96276904296875,-0.015610105358064175,0.14524663984775543,0.5749288201332092
1772445471488701200,8.972701171875,-0.05657857656478882,0.4353807270526886,0.42555370926856995
1772445471498633200,8.98263330078125,-0.07668180018663406,0.713252067565918,0.1809215098619461
1772445471508565200,8.992565185546875,-0.05407609045505524,0.8891104459762573,-0.09445786476135254
