time,seconds_elapsed,z,y,x
1772556233760402200,0.073402099609375,0.004897859413176775,-0.01614685356616974,0.0036074877716600895
1772556233770333000,0.0833330078125,0.001584087498486042,0.032842524349689484,-0.014078032225370407
1772556233780264200,0.09326416015625,-0.0016759894788265228,0.016306983307003975,-0.00558131467550993
1772556233790195000,0.10319482421875,-0.0008176527917385101,-0.026534490287303925,0.010492992587387562
1772556233800126000,0.1131259765625,-0.002782462863251567,-0.011630476452410221,-0.003755987621843815
1772556233810057200,0.12305712890625,-0.002050359733402729,0.019368452951312065,-0.006142979487776756
1772556233819989000,0.132989013671875,-0.0025831912644207478,0.0007928051054477692,0.004336023237556219
1772556233829920000,0.142919921875,-0.0044676437973976135,-0.021571623161435127,0.0023226728662848473
1772556233839851300,0.152851318359375,-0.0025925012305378914,-0.003111417405307293,-0.0029087821021676064
1772556233849782000,0.162781982421875,-0.005055658984929323,0.008754029870033264,-0.00557806808501482
1772556233859713000,0.172713134765625,-0.0013669449836015701,-0.007468694821000099,0.001200907863676548
1772556233869644300,0.182644287109375,-0.0007586791180074215,-0.006599705666303635,0.002820909023284912
1772556233879575000,0.192574951171875,-0.0004286584444344044,0.004145534709095955,-0.0018242988735437393
1772556233889506000,0.202506103515625,-0.0011261403560638428,0.0068622250109910965,-0.0036261938512325287
1772556233899437300,0.212437255859375,-0.0008998345583677292,-0.0075210146605968475,0.0010079024359583855
1772556233909368000,0.2223681640625,-0.004119862802326679,-0.002854357473552227,0.0022734366357326508
1772556233919299000,0.232299072265625,0.0003272620961070061,0.004275992512702942,-0.003108259290456772
1772556233929230000,0.24222998046875,0.00006201118230819702,0.0008391831070184708,0.0021288469433784485
1772556233939161000,0.2521611328125,-0.003259811084717512,-0.008934397250413895,0.004571426659822464
1772556233949093000,0.262093017578125,-0.0025492797140032053,-0.00469064898788929,-0.002090737223625183
1772556233959024000,0.272024169921875,-0.00398665014654398,0.00018848665058612823,-0.0033179912716150284
1772556233968955100,0.281955078125,-0.0031416290439665318,-0.003013698384165764,0.002556942403316498
1772556233978886100,0.29188623046875,-0.0027217110618948936,-0.004706179723143578,0.0020814966410398483
1772556233988817000,0.30181689453125,-0.003734244965016842,-0.0028281183913350105,0.001056712120771408
1772556233998748200,0.311748046875,-0.0027395461220294237,-0.0034988420084118843,-0.0031969621777534485
1772556234008679200,0.32167919921875,-0.001755508128553629,-0.001698012463748455,0.0009021749719977379
1772556234018610000,0.33160986328125,-0.0017993873916566372,-0.002029537223279476,0.00010755844414234161
1772556234028541200,0.341541259765625,-0.0023392103612422943,0.002114608883857727,-0.0022416161373257637
1772556234038472200,0.35147216796875,-0.0016657388769090176,-0.0009104115888476372,0.0011770566925406456
1772556234048403000,0.36140283203125,0.004253669176250696,-0.002370888367295265,-0.0001721000298857689
1772556234058334200,0.371334228515625,0.0022151153534650803,0.004506843164563179,-0.0023815538734197617
1772556234068265200,0.38126513671875,0.004475872963666916,0.0017486084252595901,-0.0024638455361127853
1772556234078197000,0.391197021484375,0.003582661971449852,0.003767535090446472,0.0013874685391783714
1772556234088128000,0.4011279296875,0.0023469552397727966,0.007100747898221016,-0.0005614329129457474
1772556234098059300,0.411059326171875,0.002857893705368042,0.0047424305230379105,-0.0007567815482616425
1772556234107990000,0.420989990234375,0.005228373222053051,0.0032529253512620926,0.000039769336581230164
1772556234117921000,0.430921142578125,0.007708424236625433,0.004423877224326134,-0.0030950894579291344
1772556234127852300,0.440852294921875,0.005959792528301477,0.008401308208703995,0.0002453131601214409
1772556234137783000,0.450782958984375,0.00753535982221365,0.0076310597360134125,-0.0029874704778194427
1772556234147714000,0.460714111328125,0.006943872198462486,0.007498966529965401,-0.00018555857241153717
1772556234157645000,0.47064501953125,0.008279822766780853,0.006649520248174667,0.00019503198564052582
1772556234167576000,0.480576171875,0.006352759897708893,0.008345155045390129,-0.002835911698639393
1772556234177507000,0.490507080078125,0.007171210832893848,0.0089420136064291,-0.005294205620884895
1772556234187438000,0.50043798828125,0.008683620020747185,0.008692476898431778,-0.0025492850691080093
1772556234197369000,0.510369140625,0.009306471794843674,0.011583026498556137,-0.0018372265622019768
1772556234207301000,0.520301025390625,0.005348482169210911,0.007010644301772118,-0.004817835986614227
1772556234217232000,0.53023193359375,0.005844025406986475,0.003647971898317337,0.0009223446249961853
1772556234227163100,0.5401630859375,0.004709252621978521,0.0058099254965782166,-0.0036915820091962814
1772556234237094100,0.55009423828125,0.009211381897330284,0.005582943558692932,-0.0002261325716972351
1772556234247025000,0.56002490234375,0.00661293463781476,0.004260417073965073,0.0001333942636847496
1772556234256956200,0.5699560546875,0.007458331994712353,0.007406778633594513,-0.0007214564830064774
1772556234266887200,0.57988720703125,0.005854576826095581,0.007772963494062424,-0.0008575441315770149
1772556234276818000,0.58981787109375,0.006542157381772995,0.0062253400683403015,-0.001264427788555622
1772556234286749200,0.599749267578125,0.0029341066256165504,0.004428239539265633,-0.004272733815014362
1772556234296680000,0.609679931640625,0.007439212407916784,0.0011107195168733597,-0.000991622917354107
1772556234306611000,0.61961083984375,0.00533398287370801,0.005476705729961395,0.00035913288593292236
1772556234316542200,0.629542236328125,0.008123079314827919,0.009715579450130463,-0.0013187611475586891
1772556234326473000,0.639472900390625,0.006247414741665125,0.011120662093162537,0.0007976526394486427
1772556234336405000,0.649405029296875,0.0027647772803902626,0.006887994706630707,-0.0006173262372612953
1772556234346336000,0.6593359375,0.0027149757370352745,0.0021947063505649567,-0.0043311044573783875
1772556234356267000,0.66926708984375,0.004703901242464781,0.0008357204496860504,-0.001540456898510456
1772556234366198000,0.679197998046875,0.0038466299884021282,0.005236860364675522,-0.000013399869203567505
1772556234376129000,0.68912890625,0.002230131532996893,0.0011584311723709106,-0.00029966235160827637
1772556234386060000,0.69906005859375,0.003240268211811781,-0.004293326288461685,-0.0009995410218834877
1772556234395991000,0.708990966796875,0.003403841517865658,-0.002492845058441162,-0.0011597182601690292
1772556234405922000,0.718922119140625,0.00230502150952816,-0.000015838071703910828,0.00022059865295886993
1772556234415853000,0.72885302734375,0.002344395499676466,-0.000010447576642036438,0.0004472052678465843
1772556234425784000,0.7387841796875,0.0027326843701303005,-0.0009398907423019409,-0.00032031815499067307
1772556234435715000,0.748715087890625,0.002519780769944191,0.0001200847327709198,-0.0022268248721957207
1772556234445646000,0.75864599609375,-0.0022699141409248114,0.004071416333317757,0.0002469858154654503
1772556234455577000,0.7685771484375,0.0001262337900698185,0.0023302212357521057,-0.0018903687596321106
1772556234465509000,0.778509033203125,0.0038408110849559307,-0.0020333677530288696,-0.002210480161011219
1772556234475440000,0.788440185546875,-0.0006665126420557499,-0.002246280200779438,-0.0008604703471064568
1772556234485371600,0.79837158203125,-0.0030934512615203857,0.005939211696386337,-0.0005755126476287842
1772556234495302700,0.808302734375,0.004172836896032095,-0.005805103108286858,-0.0022496264427900314
1772556234505233700,0.818233642578125,-0.002004898153245449,0.0003755614161491394,0.0036724451929330826
1772556234515164700,0.82816455078125,-0.002204188145697117,0.01386660523712635,-0.005003047175705433
1772556234525095700,0.838095703125,0.0013047927059233189,-0.007608327083289623,-0.006013982929289341
1772556234535026400,0.8480263671875,0.003572310321033001,0.004069879651069641,-0.0026101004332304
1772556234544957700,0.857957763671875,-0.0035503143444657326,-0.0038919057697057724,0.004812129307538271
1772556234554888700,0.867888671875,-0.006609275937080383,-0.026918847113847733,0.010832061059772968
1772556234564819500,0.8778193359375,0.005441261455416679,0.008253255859017372,-0.020690446719527245
1772556234574750700,0.887750732421875,-0.008908908814191818,0.010778054594993591,0.0034433118999004364
1772556234584681700,0.897681640625,0.014531170018017292,0.01432645134627819,0.010131041519343853
1772556234594612500,0.907612548828125,-0.0015894449315965176,-0.004205075092613697,-0.016307653859257698
1772556234604544500,0.91754443359375,0.0033869375474750996,-0.013634796254336834,0.0006492249667644501
1772556234614475800,0.927475830078125,-0.017323916777968407,-0.015863880515098572,0.022207364439964294
1772556234624406500,0.937406494140625,0.012431316077709198,0.00036968477070331573,-0.024410739541053772
1772556234634337500,0.947337646484375,-0.013412458822131157,-0.006062888540327549,0.006531121674925089
1772556234644268800,0.957268798828125,0.01088116317987442,0.016980113461613655,0.016553394496440887
1772556234654199600,0.967199462890625,-0.007790497504174709,-0.015198375098407269,-0.024007968604564667
1772556234664130600,0.977130615234375,0.0009356159716844559,-0.010008140467107296,0.010315118357539177
1772556234674061800,0.987061767578125,0.005757260601967573,0.022524377331137657,0.014869729988276958
1772556234683992600,0.99699267578125,-0.002482026582583785,-0.01602434739470482,-0.01662960648536682
1772556234693923600,1.006923583984375,0.0012653698213398457,-0.0011082058772444725,0.0018165837973356247
1772556234703854600,1.0168544921875,0.0018139807507395744,0.010559901595115662,0.005595076363533735
1772556234713785600,1.02678564453125,-0.002013560850173235,-0.009306009858846664,-0.006318794563412666
1772556234723717600,1.036717529296875,-0.00006492575630545616,0.00269499234855175,0.000978267751634121
1772556234733649000,1.04664892578125,-0.0004257289692759514,0.0017311125993728638,0.00339283375069499
1772556234743579600,1.05657958984375,0.0006475248374044895,-0.0003546755760908127,-0.004003297537565231
1772556234753510700,1.0665107421875,0.0012823427096009254,0.0017510633915662766,0.003147368784993887
1772556234763441700,1.076441650390625,0.0013238880783319473,-0.004419746808707714,-0.0035986844450235367
1772556234773372700,1.08637255859375,-0.0009676357731223106,-0.0004049474373459816,-0.00197454821318388
1772556234783303700,1.0963037109375,0.0017706267535686493,0.00045791640877723694,0.0061622075736522675
1772556234793234700,1.106234619140625,0.0003813724033534527,-0.005507603287696838,-0.004630835726857185
1772556234803165700,1.116165771484375,-0.00021331151947379112,-0.0007794266566634178,-0.0008688541129231453
1772556234813096700,1.1260966796875,0.0006507812067866325,-0.0016880771145224571,0.0006559723988175392
1772556234823027700,1.13602783203125,0.00034132227301597595,-0.0030811764299869537,-0.0025387555360794067
1772556234832958700,1.145958740234375,0.00001070043072104454,-0.0010665776208043098,0.0016137715429067612
1772556234842889700,1.1558896484375,-0.00027931807562708855,0.0012011043727397919,-0.0026912279427051544
1772556234852820700,1.16582080078125,-0.0017161564901471138,-0.0008003059774637222,-0.0015924787148833275
1772556234862752800,1.175752685546875,-0.00038670655339956284,-0.00046341586858034134,-0.00142656359821558
1772556234872683800,1.185683837890625,0.0001963302493095398,-0.0014976216480135918,-0.00031762663275003433
1772556234882614500,1.195614501953125,0.0008075260557234287,-0.000571640208363533,0.0007833242416381836
1772556234892545800,1.2055458984375,-0.0005465429276227951,0.0020172595977783203,0.0024095000699162483
1772556234902476500,1.2154765625,0.00157626299187541,-0.0008459053933620453,-0.00016018375754356384
1772556234912407600,1.225407470703125,-0.00217744754627347,-0.0010975925251841545,-0.0010599475353956223
1772556234922338800,1.2353388671875,0.002872438170015812,-0.0003127586096525192,0.0033579706214368343
1772556234932269600,1.24526953125,0.0011412040330469608,-0.001693878322839737,-0.0002269316464662552
1772556234942200600,1.25520068359375,-0.0007602931000292301,-0.0013282261788845062,-0.0011595701798796654
1772556234952131800,1.2651318359375,0.002695856150239706,0.001569582149386406,-0.0023809941485524178
1772556234962062600,1.2750625,-0.0003806278109550476,-0.0015356643125414848,0.0009735235944390297
1772556234971993600,1.28499365234375,0.0006295712664723396,-0.0007840786129236221,-0.0004171077162027359
1772556234981924900,1.2949248046875,-0.0009960220195353031,-0.00009272247552871704,-0.0006442749872803688
1772556234991855600,1.304855712890625,-0.00031480100005865097,-0.0015150988474488258,-0.0013677077367901802
1772556235001787600,1.31478759765625,-0.0005491594783961773,-0.001105504110455513,-0.001131751574575901
1772556235011718700,1.32471875,0.00002305302768945694,-0.000964336097240448,0.0011821715161204338
1772556235021649700,1.334649658203125,0.00043877214193344116,0.0015989560633897781,0.001543295569717884
1772556235031580700,1.34458056640625,0.0012661144137382507,-0.0003959937021136284,0.0008960496634244919
1772556235041511700,1.35451171875,-0.00009396206587553024,0.001005362719297409,-0.0017170440405607224
1772556235051442700,1.364442626953125,0.0015257727354764938,0.00032838620245456696,-0.0008182264864444733
1772556235061373700,1.374373779296875,-0.0018931934610009193,0.0012791343033313751,-0.00041875243186950684
1772556235071304400,1.384304443359375,-0.001073567196726799,-0.0005023758858442307,-0.0009496929123997688
1772556235081235700,1.394235595703125,0.00048198504373431206,-0.0009396672248840332,-0.0002245139330625534
1772556235091166700,1.404166748046875,0.0011913338676095009,-0.003573228605091572,-0.0011315355077385902
1772556235101097500,1.414097412109375,-0.000907503068447113,-0.00015346333384513855,0.00028393417596817017
1772556235111028700,1.42402880859375,0.0018764287233352661,-0.00023554451763629913,0.0018771030008792877
1772556235120959700,1.433959716796875,-3.4458935260772705e-8,0.002104310318827629,0.00007893703877925873
1772556235130891500,1.4438916015625,-0.0002681249752640724,-0.000577499158680439,0.001405172049999237
1772556235140822500,1.453822509765625,0.0003611799329519272,-0.001248084008693695,0.0016629667952656746
1772556235150753800,1.46375390625,0.0002754940651357174,0.0004780814051628113,-0.0005029868334531784
1772556235160684500,1.4736845703125,0.0010193148627877235,0.0015079248696565628,0.0005244603380560875
1772556235170615600,1.483615478515625,0.0010737944394350052,-0.000547199510037899,-0.0007870951667428017
1772556235180546800,1.493546875,-0.0006910823285579681,-0.001298210583627224,0.002175138331949711
1772556235190477600,1.5034775390625,0.0015695351175963879,0.0025761034339666367,-0.0029793456196784973
1772556235200408600,1.51340869140625,-0.0006848308257758617,-0.00009345076978206635,-0.003511711023747921
1772556235210339800,1.52333984375,-0.0013360395096242428,0.00054900161921978,0.0006287125870585442
1772556235220270600,1.5332705078125,0.0007502809166908264,-0.002504047006368637,-0.0009287046268582344
1772556235230201600,1.54320166015625,0.0006405762396752834,-0.000513504259288311,0.0010870248079299927
1772556235240132600,1.553132568359375,0.00013883691281080246,-0.0021457551047205925,-0.00029595475643873215
1772556235250063600,1.563063720703125,-0.000745692290365696,-0.0025054030120372772,0.0007654093205928802
1772556235259994600,1.57299462890625,0.00039573851972818375,0.000219808891415596,-0.0019147954881191254
1772556235269927000,1.582927001953125,0.0009652399457991123,-0.001534988172352314,-0.0009356020018458366
1772556235279857700,1.592857666015625,0.0002826717682182789,-0.00026679039001464844,0.0019832225516438484
1772556235289788700,1.60278857421875,0.000014639925211668015,0.001007838174700737,-0.000029277056455612183
1772556235299719700,1.6127197265625,0.00043568573892116547,0.001019822433590889,0.002518036402761936
1772556235309650700,1.622650634765625,-0.0014451262541115284,0.0014262236654758453,-0.0015214281156659126
1772556235319581700,1.632581787109375,0.0012590475380420685,-0.0001567583531141281,-0.0015424666926264763
1772556235329512700,1.6425126953125,-0.0021272567100822926,-0.0020326944068074226,-0.003577960655093193
1772556235339443700,1.652443603515625,0.0024621691554784775,-0.00111363735049963,0.0003600558266043663
1772556235349374700,1.662374755859375,0.00014013005420565605,-0.00030198320746421814,0.0017605116590857506
1772556235359305700,1.6723056640625,-0.0014931866899132729,-0.00040584709495306015,-0.0011114412918686867
1772556235369236700,1.68223681640625,-0.0008686678484082222,0.0012337155640125275,-0.0010225651785731316
1772556235379167500,1.69216748046875,0.001513796392828226,0.002519223839044571,0.0012240773066878319
1772556235389098800,1.7020986328125,-0.0007835905998945236,-0.001550949178636074,0.0007817326113581657
1772556235399029800,1.71202978515625,-0.0008027656003832817,0.001644577831029892,-0.0018028654158115387
1772556235408961800,1.7219619140625,0.0011085295118391514,0.0014750827103853226,0.00009116437286138535
1772556235418892500,1.731892578125,-0.0005498211830854416,-0.00031802430748939514,0.002146592363715172
1772556235428823800,1.74182373046875,0.00027128076180815697,-0.0013171182945370674,-0.0014787325635552406
1772556235438754600,1.751754638671875,-0.0002893148921430111,0.0013351235538721085,0.00020092260092496872
1772556235448685600,1.761685546875,-0.0005120225250720978,-0.0014086831361055374,0.00009274948388338089
1772556235458616800,1.771616943359375,0.00005762791261076927,-0.0018827253952622414,-0.0003397474065423012
1772556235468547600,1.781547607421875,-0.0005832971073687077,0.000042499974370002747,-0.000805404968559742
1772556235478478600,1.791478515625,0.0004215133376419544,-0.0003929268568754196,-0.0013942299410700798
1772556235488409900,1.801409912109375,-0.0013310383073985577,0.0006335265934467316,0.00034224893897771835
1772556235498340900,1.8113408203125,-0.0024615502916276455,0.0026998724788427353,-0.0008034426718950272
1772556235508271600,1.821271728515625,-0.001035391353070736,-0.0005462998524308205,0.00005911383777856827
1772556235518203000,1.831202880859375,-0.0011198138818144798,0.0016169846057891846,-0.000548618845641613
1772556235528134000,1.8411337890625,0.0015937332063913345,-0.001615729182958603,0.002572242170572281
1772556235538064600,1.851064697265625,0.000044572632759809494,0.0017515718936920166,-0.0011966638267040253
1772556235547996700,1.86099658203125,-0.0010791951790452003,-0.00019420497119426727,0.000784900039434433
1772556235557928000,1.870927978515625,-0.0014254064299166203,0.0011839810758829117,-0.002585330046713352
1772556235567858700,1.880858642578125,-0.0010835472494363785,-0.0006219027563929558,0.0013403687626123428
1772556235577789700,1.890789794921875,-0.0018081935122609138,0.000624457374215126,-0.0023366576060652733
1772556235587721000,1.900720947265625,0.00018720515072345734,-0.0014894716441631317,-0.002433670684695244
1772556235597651700,1.910651611328125,0.0006846836768090725,0.0004136227071285248,0.00033069029450416565
1772556235607582700,1.920582763671875,-0.0012247967533767223,-0.00023840367794036865,0.0010533025488257408
1772556235617514000,1.930513916015625,0.0004322221502661705,0.00006439909338951111,0.0011941837146878242
1772556235627444700,1.94044482421875,-0.0013558273203670979,0.0012537669390439987,0.00019765645265579224
1772556235637375700,1.950375732421875,-0.001091908197849989,0.0010087564587593079,0.0004149703308939934
1772556235647306800,1.960306640625,0.0007505887188017368,-0.0014440808445215225,0.0027010682970285416
1772556235657237800,1.97023779296875,0.0002147606573998928,-0.0006216960027813911,0.0007186112925410271
1772556235667168800,1.980168701171875,0.0016885516233742237,0.00004636682569980621,-0.0009928317740559578
1772556235677099800,1.990099853515625,0.0005228859372437,0.001067155972123146,0.001153143122792244
1772556235687030800,2.00003076171875,-0.00006237812340259552,0.0010295063257217407,-0.0013743499293923378
1772556235696962800,2.009962890625,-0.0013561416417360306,0.00046784617006778717,0.0031998958438634872
1772556235706893600,2.0198935546875,-0.00036079250276088715,-0.0004489729180932045,-0.00002222321927547455
1772556235716824800,2.029824951171875,-0.00047877058386802673,-0.0019065206870436668,-0.0011692466214299202
1772556235726755800,2.039755859375,-0.001696163322776556,0.0001799166202545166,0.001261463388800621
1772556235736686600,2.0496865234375,-0.0004790984094142914,0.0007146783173084259,-0.0011609485372900963
1772556235746617900,2.059617919921875,0.0022533140145242214,0.0008284226059913635,-0.0007866146042943001
1772556235756548900,2.069548828125,0.0008966997265815735,-0.001062687486410141,0.001128464937210083
1772556235766479600,2.079479736328125,-0.0012379209510982037,0.001224558800458908,0.00002421252429485321
1772556235776411000,2.089410888671875,0.0024564163759350777,0.0009680967777967453,-0.004683190956711769
1772556235786342000,2.099341796875,-0.001265394501388073,0.0001509338617324829,-0.00014396477490663528
1772556235796272600,2.109272705078125,-0.0011700536124408245,0.0021525658667087555,-0.001286194659769535
1772556235806204000,2.119203857421875,0.0004758029244840145,0.0008237585425376892,-0.0001467335969209671
1772556235816134700,2.129134765625,0.00041827885434031487,-0.0000601448118686676,-0.0012974860146641731
1772556235826066700,2.139066650390625,0.0006279861554503441,-0.00005204230546951294,-0.0026330091059207916
1772556235835997700,2.148997802734375,0.000007203314453363419,-0.0018139900639653206,-0.0024415273219347
1772556235845929000,2.158928955078125,-0.0018422650173306465,0.00026878155767917633,-0.0027075503021478653
1772556235855859700,2.168859619140625,0.0015114536508917809,0.0008141975849866867,0.001007826067507267
1772556235865790700,2.178790771484375,0.0008233650587499142,0.0019961632788181305,0.0008707428351044655
1772556235875721700,2.1887216796875,0.00114480871707201,-0.0013114828616380692,0.000638248398900032
1772556235885652700,2.19865283203125,-0.001233565155416727,-0.0005507683381438255,0.00009284541010856628
1772556235895583700,2.208583740234375,-0.0010532690212130547,0.0013403426855802536,0.003411410842090845
1772556235905514800,2.2185146484375,0.0017067589797079563,-0.0009597316384315491,0.0013591824099421501
1772556235915445800,2.22844580078125,0.0007730545476078987,-0.0007053995504975319,-0.0006222091615200043
1772556235925376800,2.238376708984375,-0.00008089421316981316,-0.0011825533583760262,0.001565985381603241
1772556235935307800,2.248307861328125,-0.002395713934674859,-0.0008509904146194458,-0.0006329864263534546
1772556235945238800,2.25823876953125,0.00009654136374592781,-0.0013879835605621338,0.0012242961674928665
1772556235955169800,2.268169677734375,0.0002616569399833679,-0.001623939722776413,0.0012429384514689445
1772556235965100800,2.278100830078125,-0.0021892981603741646,-0.0006492799147963524,-0.00010963249951601028
1772556235975032800,2.28803271484375,-0.0002854042686522007,-0.0014413045719265938,-0.002287565730512142
1772556235984963800,2.2979638671875,-0.00016829278320074081,-0.0012108441442251205,0.0014669634401798248
1772556235994894800,2.307894775390625,-0.00038241082802414894,-0.0003389250487089157,0.0007367245852947235
1772556236004825900,2.317825927734375,-0.002280829707160592,0.001528790220618248,0.00019535329192876816
1772556236014756600,2.327756591796875,-0.0008983826264739037,-0.0006147883832454681,-0.0015964210033416748
1772556236024687900,2.33768798828125,-0.0015499209985136986,-0.00043069571256637573,0.0006933566182851791
1772556236034619000,2.347618896484375,0.00019444944337010384,0.00031152740120887756,0.0003953492268919945
1772556236044549600,2.357549560546875,0.0006344784051179886,-0.0015124594792723656,0.0021486375480890274
1772556236054481000,2.36748095703125,0.00018227333202958107,0.0015986450016498566,0.0007182536646723747
1772556236064412000,2.377411865234375,0.000790327787399292,-0.0009607328101992607,-0.0002840152010321617
1772556236074342700,2.3873427734375,-0.00013032695278525352,-0.0001276955008506775,-0.0021303854882717133
1772556236084274000,2.39727392578125,-0.001340788323432207,-0.0002360064536333084,0.00009214505553245544
1772556236094205000,2.407204833984375,0.0006909375078976154,-0.000950532965362072,-0.0013150693848729134
1772556236104135700,2.4171357421875,0.00017414195463061333,0.0034003593027591705,-0.0008163852617144585
1772556236114067700,2.427067626953125,-0.0025140526704490185,-0.0030151959508657455,0.0008584773167967796
1772556236123999000,2.4369990234375,-0.0023045099806040525,0.0016114544123411179,-0.0013244692236185074
1772556236133929700,2.4469296875,-0.00004055676981806755,0.0003128964453935623,-0.0012730695307254791
1772556236143860700,2.45686083984375,0.0011223838664591312,-0.0007777120918035507,-0.0022593094035983086
1772556236153792000,2.4667919921875,0.002838259097188711,-0.0010632025077939034,0.0013444796204566956
1772556236163722800,2.47672265625,-0.0010403073392808437,-0.0013435892760753632,0.003658305387943983
1772556236173653800,2.48665380859375,-0.0005968911573290825,0.00008866004645824432,0.0011093942448496819
1772556236183584800,2.496584716796875,-0.001573879737406969,-0.0013034306466579437,-0.0018261438235640526
1772556236193515800,2.506515869140625,0.0011875517666339874,0.00009978935122489929,-0.00017098989337682724
1772556236203446800,2.51644677734375,0.0007970673032104969,-0.0017478140071034431,-0.0009939009323716164
1772556236213377800,2.526377685546875,-0.001073536928743124,-0.0009360825642943382,-0.0006703268736600876
1772556236223308800,2.536308837890625,-0.001341941300779581,-0.0006530536338686943,-0.001230360008776188
1772556236233239800,2.54623974609375,0.0000873771496117115,-0.0006993925198912621,-0.00025218166410923004
1772556236243170800,2.5561708984375,-0.0006849397905170918,-0.0002775471657514572,-0.0005153017118573189
1772556236253102800,2.566102783203125,-0.0006284806877374649,0.0008521657437086105,-0.002283640205860138
1772556236263033900,2.576033935546875,0.00020291423425078392,0.0005457848310470581,0.0002612872049212456
1772556236272964600,2.585964599609375,0.0002809450961649418,-0.0012425277382135391,-0.0015786904841661453
1772556236282896000,2.595895751953125,0.0012855012901127338,0.0013508405536413193,0.0008315872400999069
1772556236292827000,2.605826904296875,0.0008354270830750465,0.00019875727593898773,-0.002628391608595848
1772556236302757600,2.615757568359375,-0.0019233091734349728,-0.000542912632226944,-0.0002096034586429596
1772556236312689000,2.62568896484375,0.0006647505797445774,-0.0009708823636174202,-0.0015571629628539085
1772556236322619600,2.63561962890625,-0.0020568356849253178,-0.0005096020177006721,-0.0009207651019096375
1772556236332550700,2.645550537109375,0.00014400063082575798,0.00021238066256046295,-0.0008520558476448059
1772556236342482000,2.65548193359375,-0.0008655707351863384,0.0004832688719034195,-0.00014000479131937027
1772556236352412700,2.66541259765625,-0.0014125839807093143,-0.00017133541405200958,-0.0023730648681521416
1772556236362343700,2.67534375,0.0017640702426433563,0.0006060805171728134,-0.0015529897063970566
1772556236372275000,2.68527490234375,0.00012329686433076859,0.0012231338769197464,-0.0009543104097247124
1772556236382205700,2.695205810546875,0.0020490591414272785,-0.0017428901046514511,0.0017039328813552856
1772556236392136700,2.70513671875,0.0014951219782233238,0.000266464427113533,0.0009401384741067886
1772556236402068700,2.71506884765625,0.0017679636366665363,-0.0018758224323391914,0.0005637370049953461
1772556236411999700,2.724999755859375,-0.00016948580741882324,-0.0014987187460064888,-0.00004772469401359558
1772556236421930800,2.7349306640625,0.0005243201740086079,-0.00002841278910636902,-0.00019757915288209915
1772556236431861800,2.74486181640625,-0.0009287004359066486,-0.0009780963882803917,-0.0003866627812385559
1772556236441792800,2.754792724609375,-0.000248537864536047,-0.0016828738152980804,0.00005571451038122177
1772556236451723800,2.764723876953125,0.0003184494562447071,0.00016296282410621643,-0.0012513650581240654
1772556236461654800,2.77465478515625,0.00005134986713528633,-0.0004506325349211693,0.0004052231088280678
1772556236471585800,2.784585693359375,0.0008670762181282043,-0.00006340816617012024,-0.0005953265354037285
1772556236481516800,2.794516845703125,0.001968276221305132,-0.0006206771358847618,0.000016553327441215515
1772556236491447600,2.804447509765625,-0.00023069651797413826,-0.0007618246600031853,0.0021745124831795692
1772556236501378600,2.814378662109375,0.002583884634077549,-0.001201205886900425,0.0017991261556744576
1772556236511309300,2.824309326171875,0.0013753417879343033,0.0021346695721149445,-0.002867264673113823
1772556236521240600,2.834240478515625,-0.000185512937605381,-0.0005794912576675415,0.0006611039862036705
1772556236531171300,2.84417138671875,0.0006288816221058369,0.0005534179508686066,-0.000840386375784874
1772556236541103400,2.854103271484375,-0.001330655999481678,-0.001985713839530945,-0.000626981258392334
1772556236551034400,2.864034423828125,-0.0009327800944447517,-0.0015247203409671783,0.0021965019404888153
1772556236560965400,2.87396533203125,-0.0001710471697151661,0.00027457624673843384,0.000552021898329258
1772556236570896400,2.883896484375,0.00010245945304632187,-0.0004681795835494995,-0.002418734133243561
1772556236580827400,2.893827392578125,0.0003120722249150276,-0.000385514460504055,0.003675913903862238
1772556236590758400,2.90375830078125,0.0015973136760294437,-0.0013754116371273994,0.0005549555644392967
1772556236600689400,2.913689453125,-0.0006274846382439137,-0.0011126929894089699,-0.0016440413892269135
1772556236610620400,2.923620361328125,0.0018231561407446861,-0.0017888695001602173,-0.00045893527567386627
1772556236620551400,2.933551513671875,-0.000024902168661355972,0.001576930284500122,-0.00003952719271183014
1772556236630482400,2.943482421875,0.0006022723391652107,0.00033350102603435516,0.001803114078938961
1772556236640413400,2.953413330078125,-0.00025096163153648376,-0.0013628890737891197,0.0013325996696949005
1772556236650344400,2.963344482421875,-6.244517862796783e-7,-0.0008757961913943291,-0.0023971572518348694
1772556236660275500,2.973275390625,-0.0011530849151313305,0.0018037185072898865,0.0005698380991816521
1772556236670206200,2.983206298828125,-0.000493952538818121,0.000017002224922180176,-0.0008296528831124306
1772556236680137500,2.993137451171875,-0.0000475514680147171,-0.0007081609219312668,-0.0008845757693052292
1772556236690069500,3.003069580078125,0.002353288233280182,-0.0010658232495188713,-0.0018747393041849136
1772556236700000500,3.01300048828125,0.0006210044957697392,0.001838667318224907,-0.0017583006992936134
1772556236709931300,3.02293115234375,0.0000441637821495533,-0.0009975992143154144,-0.00006959028542041779
1772556236719862500,3.032862548828125,0.0001912699081003666,-0.000996447168290615,0.00006704684346914291
1772556236729793300,3.042793212890625,-0.0004082075320184231,0.0006059780716896057,-0.0025460468605160713
1772556236739724300,3.052724365234375,0.0023066671565175056,-0.002412782981991768,0.0022298013791441917
1772556236749655600,3.062655517578125,0.0007977201603353024,0.0015324242413043976,-0.0025215446949005127
1772556236759586300,3.07258642578125,0.001068339217454195,0.00035666488111019135,0.0007394356653094292
1772556236769517300,3.082517333984375,-0.00014126859605312347,0.0009116679430007935,-0.0009207790717482567
1772556236779448600,3.092448486328125,-0.0016084951348602772,0.001827077940106392,-0.001071886159479618
1772556236789379300,3.10237939453125,-0.0010271267965435982,0.0017682220786809921,-0.0020442064851522446
1772556236799310300,3.112310302734375,0.0004155188798904419,-0.00005240738391876221,0.001093120314180851
1772556236809241600,3.12224169921875,0.0010735862888395786,-0.0008185999467968941,-0.00023632962256669998
1772556236819172400,3.13217236328125,-0.0005946666933596134,0.0006582960486412048,0.0013124067336320877
1772556236829104400,3.1421044921875,0.0010074907913804054,-0.0004093647003173828,-0.002279132604598999
1772556236839035400,3.152035400390625,0.0023389942944049835,0.001193910837173462,-0.000012380070984363556
1772556236848966400,3.16196630859375,-0.002567081246525049,-0.00010304898023605347,0.00017670448869466782
1772556236858897400,3.1718974609375,-0.001415003091096878,0.0008369944989681244,0.0006808899343013763
1772556236868828400,3.181828369140625,0.0003360253758728504,-0.0009372029453516006,0.00010964181274175644
1772556236878759400,3.191759521484375,0.002628643997013569,-0.00014252681285142899,0.0024059684947133064
1772556236888690400,3.2016904296875,-0.00025023287162184715,0.0010756030678749084,-0.00024653971195220947
1772556236898621400,3.211621337890625,-0.001217307522892952,-0.0007621720433235168,0.0006163092330098152
1772556236908552400,3.221552490234375,0.0013750134967267513,0.001833079382777214,-0.0003869039937853813
1772556236918483500,3.2314833984375,-0.001265492755919695,0.001669216901063919,0.00023587606847286224
1772556236928414500,3.24141455078125,-0.0007765362970530987,0.0016162190586328506,-0.0006333794444799423
1772556236938345500,3.251345458984375,-0.0018735099583864212,-0.00044973287731409073,0.001383359543979168
1772556236948276500,3.2612763671875,0.0014884648844599724,0.000761738047003746,-0.0008821915835142136
1772556236958207500,3.27120751953125,0.0029567843303084373,-0.0008619325235486031,-0.0014390982687473297
1772556236968138500,3.281138427734375,0.00020067952573299408,0.0008600670844316483,-0.00074747484177351
1772556236978070500,3.291070556640625,0.0010546045377850533,3.9301812648773193e-7,0.00014440342783927917
1772556236988001300,3.301001220703125,-0.00012251269072294235,-0.0008243881165981293,-0.0025539109483361244
1772556236997932500,3.3109326171875,-0.0016594422049820423,-0.001757982186973095,0.0009376909583806992
1772556237007863600,3.320863525390625,0.00046735815703868866,-0.0010919254273176193,-0.002168087288737297
1772556237017794300,3.330794189453125,0.0002192668616771698,-0.0019049355760216713,0.001147533766925335
1772556237027725600,3.3407255859375,0.00028584571555256844,0.0016477219760417938,0.0003344705328345299
1772556237037656300,3.35065625,-0.0010577826760709286,0.0023165009915828705,-0.0012783883139491081
1772556237047587300,3.36058740234375,-0.0001720157451927662,6.165355443954468e-7,-0.0007225871086120605
1772556237057518600,3.3705185546875,-0.0015353304333984852,0.0016996227204799652,0.000462154857814312
1772556237067449300,3.380449462890625,0.00015764124691486359,-0.0008191941305994987,0.0022427449002861977
1772556237077380400,3.39038037109375,0.0014154240489006042,-0.0019480111077427864,0.0006692660972476006
1772556237087311600,3.4003115234375,0.002480954397469759,-0.002380242571234703,0.00016113463789224625
1772556237097242400,3.410242431640625,-0.001024472527205944,0.00013707205653190613,0.0011791149154305458
1772556237107173400,3.42017333984375,-0.0018527153879404068,-0.00005600787699222565,-0.00010532792657613754
1772556237117104600,3.430104736328125,0.0007428466342389584,-0.0002752672880887985,-0.0009097447618842125
1772556237127036400,3.440036376953125,-0.0014928770251572132,0.0012240931391716003,0.0014772461727261543
1772556237136967400,3.449967529296875,0.0014906912110745907,0.004206947982311249,-0.0012840842828154564
1772556237146898400,3.4598984375,-0.0013415804132819176,0.0002055484801530838,0.0005945097655057907
1772556237156829400,3.469829345703125,-0.0008680848404765129,0.0016064457595348358,0.00029254332184791565
1772556237166760400,3.479760498046875,0.00023100152611732483,0.00026074983179569244,0.001799359917640686
1772556237176691500,3.48969140625,-0.002677361946552992,0.0008962806314229965,0.0015394538640975952
1772556237186622500,3.49962255859375,-0.0035450197756290436,0.0012273117899894714,-0.001542888581752777
1772556237196553500,3.509553466796875,0.0023795212619006634,0.0015479791909456253,0.000021189451217651367
1772556237206484200,3.519484130859375,-0.0005701957270503044,-0.00044220127165317535,-0.00009252689778804779
1772556237216415500,3.52941552734375,-0.00013927044346928596,-0.0014652060344815254,0.0009170388802886009
1772556237226346500,3.539346435546875,0.0026687667705118656,0.0003151167184114456,-0.000025187619030475616
1772556237236277200,3.54927734375,-0.00037946784868836403,0.0007383245974779129,0.0000140434131026268
1772556237246208500,3.55920849609375,0.0006581000052392483,-0.0007706219330430031,0.0011813072487711906
1772556237256139500,3.569139404296875,0.0002528647892177105,0.0001014024019241333,0.0007155761122703552
1772556237266071300,3.5790712890625,0.0002406141720712185,0.0009517502039670944,0.00027588848024606705
1772556237276002300,3.589002197265625,0.001905953511595726,0.00006855838000774384,0.0023909835144877434
1772556237285933600,3.59893359375,-0.0011012875474989414,0.0007111784070730209,0.0001480691134929657
1772556237295864300,3.6088642578125,0.0009569451212882996,0.0011598169803619385,0.0029272055253386497
1772556237305795300,3.61879541015625,0.0000016693957149982452,0.0013662129640579224,0.0012099994346499443
1772556237315726600,3.6287265625,-0.0009572217240929604,0.0004260838031768799,-0.00002717692404985428
1772556237325657300,3.6386572265625,-0.0011668121442198753,-0.0012258747592568398,-0.000004273839294910431
1772556237335588400,3.64858837890625,0.000039542559534311295,0.00006199441850185394,-0.0007892604917287827
1772556237345519400,3.658519287109375,0.001400151289999485,-0.0003665070980787277,0.0011228891089558601
1772556237355450400,3.668450439453125,-0.0012762043625116348,-0.0014702696353197098,0.0012048706412315369
1772556237365381400,3.67838134765625,0.0005169021897017956,0.0021524280309677124,-0.0010082162916660309
1772556237375312400,3.6883125,-0.0015987078659236431,-0.0013367412611842155,-0.00013422034680843353
1772556237385243400,3.698243408203125,-0.0015734080225229263,-0.00009224563837051392,0.0009962916374206543
1772556237395174400,3.70817431640625,-0.00029463833197951317,0.0013249237090349197,0.0016381358727812767
1772556237405105400,3.71810546875,-0.0007617566734552383,-0.0005603283643722534,0.0022788923233747482
1772556237415037400,3.728037353515625,-0.0032589563634246588,-0.0007519293576478958,0.00011019594967365265
1772556237424968400,3.737968505859375,-0.001699941698461771,0.00036952830851078033,0.0007397672161459923
1772556237434899500,3.7478994140625,0.0008054147474467754,0.001278214156627655,0.000006143003702163696
1772556237444830500,3.75783056640625,-0.00009899493306875229,0.001648126170039177,0.0020999200642108917
1772556237454761500,3.767761474609375,-0.00015703262761235237,-0.0012134267017245293,-0.001003841869533062
1772556237464692500,3.7776923828125,0.0017276867292821407,-0.0005907798185944557,0.0010265521705150604
1772556237474623500,3.78762353515625,0.00002679973840713501,-0.0008246563374996185,-0.00036007538437843323
1772556237484554500,3.797554443359375,-0.0005423175171017647,-0.0009442325681447983,0.002808287739753723
1772556237494485500,3.807485595703125,-0.00008039548993110657,-0.0006958441808819771,-0.0021579228341579437
1772556237504416300,3.817416259765625,0.0005510398186743259,-0.003275115042924881,0.0011457288637757301
1772556237514347300,3.82734716796875,-0.001163228414952755,-0.00016740895807743073,0.0012833457440137863
1772556237524278500,3.837278564453125,-0.00022393139079213142,-0.0003197425976395607,0.002100403420627117
1772556237534209300,3.847209228515625,0.0003986102528870106,0.0023712236434221268,0.000773443840444088
1772556237544140300,3.857140380859375,0.00029740994796156883,0.0002111326903104782,-0.002326476387679577
1772556237554071300,3.8670712890625,-0.0015517412684857845,0.001119859516620636,0.00030973274260759354
1772556237564003300,3.87700341796875,0.0011732052080333233,-0.00034381356090307236,-0.00026657525449991226
1772556237573934300,3.886934326171875,0.0004972629249095917,-0.0018705585971474648,0.0002229604870080948
1772556237583865300,3.896865234375,-0.0008612158708274364,0.00032069161534309387,-0.00019808579236268997
1772556237593796400,3.90679638671875,0.0006305105052888393,-0.0009065596386790276,-0.0005910126492381096
1772556237603727400,3.916727294921875,-0.0005407477729022503,-0.003160659223794937,0.0001674555242061615
1772556237613658000,3.926658203125,-0.00008417246863245964,-0.0012086955830454826,0.0010671494528651237
1772556237623589400,3.93658935546875,-0.0014794021844863892,-0.0017770137637853622,-0.0002654958516359329
1772556237633520400,3.946520263671875,0.0024935873225331306,-0.004333522170782089,0.0017835656180977821
1772556237643451100,3.956451171875,-0.0022066254168748856,0.00011688657104969025,0.003430464304983616
1772556237653382400,3.96638232421875,0.0013265488669276237,0.000446416437625885,-0.0012100134044885635
1772556237663313400,3.9763134765625,0.001039993017911911,-0.0006532026454806328,-0.00018203351646661758
1772556237673244200,3.986244140625,0.0002629188820719719,0.0004742443561553955,-0.0002836128696799278
1772556237683175400,3.996175537109375,-0.0011155330576002598,0.0017086192965507507,-0.0003698999062180519
1772556237693106200,4.006106201171875,-0.0006742016412317753,-0.0009432975202798843,-0.00035754311829805374
1772556237703037200,4.016037109375,-0.0011495756916701794,-0.0027028480544686317,0.000784686766564846
1772556237712969200,4.02596923828125,-0.0014526182785630226,0.0013955682516098022,0.0006730323657393456
1772556237722900500,4.035900390625,-0.002840924309566617,0.00006505288183689117,-0.0024186307564377785
1772556237732831200,4.045831298828125,0.0001098918728530407,0.0002483632415533066,-0.00138945784419775
1772556237742762200,4.05576220703125,0.0021946141496300697,-0.0016704443842172623,-0.0012650880962610245
1772556237752693200,4.065693359375,-0.00029455171898007393,-0.002556930296123028,-0.0012592179700732231
1772556237762624300,4.075624267578125,-0.0003779088146984577,0.001091865822672844,-0.0010016905143857002
1772556237772555300,4.08555517578125,-0.0036169912200421095,-0.0020284801721572876,-0.0010308586061000824
1772556237782486300,4.095486328125,-0.0012342608533799648,-0.0012244721874594688,-0.00170916598290205
1772556237792417300,4.105417236328125,-0.0028855251148343086,0.0013862699270248413,-0.0014760727062821388
1772556237802348300,4.115348388671875,0.001185649074614048,-0.00047474727034568787,-0.0023647695779800415
1772556237812279300,4.125279296875,-0.0008354322053492069,-0.0023554470390081406,0.00040038488805294037
1772556237822210300,4.135210205078125,0.0012186639942228794,0.001345282420516014,0.0003367355093359947
1772556237832141300,4.145141357421875,0.0001206202432513237,0.000057289376854896545,-0.00024671293795108795
1772556237842072300,4.155072265625,0.0015576621517539024,0.0016831494867801666,0.0006592944264411926
1772556237852003300,4.16500341796875,0.0009776386432349682,-0.0022230157628655434,-0.0005714716389775276
1772556237861935400,4.174935302734375,0.0008908193558454514,-0.0009590797126293182,-0.0016417959704995155
1772556237871866000,4.1848662109375,0.0023794625885784626,-0.00006031617522239685,0.0003094421699643135
1772556237881797400,4.19479736328125,0.00004014139994978905,-0.0020435722544789314,-0.0004053507000207901
1772556237891728400,4.204728271484375,0.0009445538744330406,0.0010391101241111755,-0.0001506926491856575
1772556237901659100,4.2146591796875,0.0032612374052405357,-0.002128719352185726,0.0014967387542128563
1772556237911590400,4.22459033203125,0.0010017510503530502,0.0007093492895364761,-0.0022528059780597687
1772556237921521200,4.234521240234375,-0.00027097389101982117,0.0010081548243761063,-0.00009884219616651535
1772556237931452200,4.2444521484375,-0.0022811349481344223,0.0012340452522039413,0.0016506491228938103
1772556237941383400,4.254383544921875,-0.0018267994746565819,-0.0002727704122662544,-0.001577901653945446
1772556237951314200,4.264314208984375,-0.0011923955753445625,-0.001269136555492878,0.002579573541879654
1772556237961245200,4.2742451171875,-0.0025277044624090195,0.0007708445191383362,0.002158794552087784
1772556237971176400,4.284176513671875,-0.00025935377925634384,0.0009234994649887085,0.001785537227988243
1772556237981107200,4.294107177734375,0.0013814200647175312,-0.0007998310029506683,-0.000018221326172351837
1772556237991038200,4.3040380859375,-0.0015034177340567112,-0.0023445533588528633,0.0018888572230935097
1772556238000969500,4.313969482421875,0.0031504561193287373,0.0005308613181114197,0.00020973477512598038
1772556238010901200,4.3239013671875,-0.00023268675431609154,-0.002972019836306572,0.0016370946541428566
1772556238020832300,4.333832275390625,-0.001207670196890831,-0.0020353859290480614,-0.00034616049379110336
1772556238030763300,4.34376318359375,-0.0006502280011773109,-0.0011701742187142372,0.001647857017815113
1772556238040694300,4.3536943359375,0.0014147870242595673,-0.0021049436181783676,0.002298734150826931
1772556238050625300,4.363625244140625,-0.0006863381713628769,-0.0005904706194996834,0.002576063387095928
1772556238060556300,4.373556396484375,0.000475333072245121,0.00010834261775016785,0.0004356810823082924
1772556238070487300,4.3834873046875,-0.0010726936161518097,0.0006483662873506546,0.0016762344166636467
1772556238080418300,4.393418212890625,-0.0014255624264478683,-0.00011542811989784241,0.0017779674381017685
1772556238090349300,4.403349365234375,-0.0021788151934742928,-0.0020069563761353493,0.0015617776662111282
1772556238100280300,4.4132802734375,-0.0007947701960802078,-0.001789109781384468,-0.0005788709968328476
1772556238110211300,4.42321142578125,0.0009243963286280632,0.002577008679509163,0.0009360248222947121
1772556238120142300,4.433142333984375,-0.0013177189975976944,-0.0007799062877893448,0.0022795898839831352
1772556238130073300,4.4430732421875,0.0026734676212072372,-0.00448435265570879,0.000639062374830246
1772556238140004400,4.45300439453125,0.0009527988731861115,0.0016707442700862885,-0.0001516304910182953
1772556238149935400,4.462935302734375,-0.000031834933906793594,0.0018834080547094345,-0.002176527865231037
1772556238159866400,4.472866455078125,-0.0013218699023127556,-0.00018000882118940353,-0.001231372356414795
1772556238169798400,4.48279833984375,-0.0001154397614300251,0.00018207356333732605,0.0008602263405919075
1772556238179729200,4.492729248046875,-0.0017319787293672562,0.00017328374087810516,-0.0007874714210629463
1772556238189660400,4.502660400390625,0.0010395124554634094,-0.00006743520498275757,-0.0002769734710454941
1772556238199591400,4.51259130859375,0.0004999558441340923,0.001599438488483429,0.0005962774157524109
1772556238209522200,4.522522216796875,-0.0007503889501094818,0.0008593611419200897,-0.0032917186617851257
1772556238219453400,4.532453369140625,-0.0017410852015018463,-0.00015716813504695892,0.002393065020442009
1772556238229384200,4.54238427734375,0.0004984503611922264,0.0007983297109603882,-0.000451928935945034
1772556238239315200,4.552315185546875,0.0020382897928357124,-0.0010024989023804665,0.0003976188600063324
1772556238249246500,4.56224658203125,-0.0012643150985240936,0.00021428614854812622,0.0005079824477434158
1772556238259177200,4.57217724609375,0.0015240148641169071,-0.0022227736189961433,-0.0007666060701012611
1772556238269108200,4.582108154296875,0.002464751712977886,0.0008744504302740097,0.002502996474504471
1772556238279039500,4.59203955078125,-0.0004942868836224079,0.0006076022982597351,0.0004928428679704666
1772556238288970200,4.60197021484375,-0.001046932302415371,0.0013560131192207336,0.0003150207921862602
1772556238298901200,4.6119013671875,-0.002089293673634529,-0.001132178120315075,0.001979229971766472
1772556238308832500,4.62183251953125,-0.0010924958623945713,-0.0008700350299477577,-0.003268130123615265
1772556238318764300,4.631764404296875,-0.001533249393105507,0.0005704686045646667,-0.0006494438275694847
1772556238328695300,4.6416953125,0.0009755240753293037,-0.00001812167465686798,0.0002700677141547203
1772556238338626300,4.651626220703125,-0.003626684658229351,0.0013342313468456268,-0.00025564059615135193
1772556238348557300,4.661557373046875,-0.0003017229028046131,0.00036500394344329834,-0.0034391097724437714
1772556238358488300,4.67148828125,-0.0027140143793076277,0.00004941970109939575,0.0027301032096147537
1772556238368419300,4.68141943359375,0.0005566338077187538,-0.0008827829733490944,0.0009780628606677055
1772556238378350300,4.691350341796875,0.00045010726898908615,0.0016251150518655777,0.0024145720526576042
1772556238388281300,4.70128125,0.0009642946533858776,0.0007654502987861633,-0.0022618118673563004
1772556238398212000,4.711212158203125,0.000842854380607605,-0.0011142082512378693,0.0005267839878797531
1772556238408143400,4.721143310546875,-0.00024736393243074417,-0.0007647667080163956,0.0018972503021359444
1772556238418074400,4.731074462890625,0.0018975455313920975,-0.001681426540017128,0.0003835093230009079
1772556238428005000,4.741005126953125,0.0003244047984480858,0.000996531918644905,-0.00011951010674238205
1772556238437936400,4.750936279296875,-0.0018058577552437782,0.0011470001190900803,-0.0014012893661856651
1772556238447867400,4.760867431640625,-0.0013266084715723991,-0.001502801664173603,0.0008015120401978493
1772556238457798100,4.770798095703125,-0.0016006478108465672,0.000020792707800865173,-0.0009604357182979584
1772556238467730200,4.780730224609375,0.002051219344139099,-0.0001296391710639,0.002436155453324318
1772556238477661400,4.790661376953125,0.0005553215742111206,0.0009950138628482819,-0.001245930790901184
1772556238487592200,4.80059228515625,0.001299463678151369,0.0002909265458583832,0.0019178856164216995
1772556238497523000,4.81052294921875,0.0006059766747057438,-0.0005836561322212219,-0.0021125422790646553
1772556238507454200,4.8204541015625,-0.0014897920191287994,-0.0022867294028401375,0.000025564804673194885
1772556238517385200,4.83038525390625,0.003140646032989025,-0.002493923529982567,-0.00032117869704961777
1772556238527316000,4.84031591796875,0.00009223539382219315,0.0012014340609312057,-0.0004633115604519844
1772556238537247200,4.850247314453125,0.0015015802346169949,-0.0002979254350066185,-0.0006460044533014297
1772556238547178200,4.86017822265625,-0.0005040024407207966,0.002323264256119728,0.00003529433161020279
1772556238557109000,4.87010888671875,-0.001478985883295536,-0.001234186813235283,0.0027104392647743225
1772556238567040300,4.880040283203125,0.0015930919907987118,0.00009825266897678375,-0.00003752857446670532
1772556238576971000,4.889970947265625,-0.001240778248757124,-0.0013169506564736366,0.0006980365142226219
1772556238586902000,4.899902099609375,-0.00004549231380224228,-0.00008977297693490982,-0.0018321601673960686
1772556238596833300,4.909833251953125,-0.0018247500993311405,-0.0006349226459860802,-0.0016910126432776451
1772556238606764000,4.919763916015625,0.00016516167670488358,0.000994829460978508,-0.003059270791709423
1772556238616695000,4.929695068359375,0.0011824890971183777,-0.0009066686034202576,-0.0012858714908361435
1772556238626627300,4.93962744140625,0.00005777599290013313,-0.0021106693893671036,0.0017382372170686722
1772556238636558000,4.94955810546875,0.0008639148436486721,-0.00037535373121500015,-0.0002990812063217163
1772556238646489000,4.959489013671875,-0.0023303497582674026,0.00035074353218078613,0.001723158173263073
1772556238656420400,4.96942041015625,-0.0009686751291155815,-0.0004953416064381599,0.003206538502126932
1772556238666351000,4.97935107421875,0.0011942218989133835,-0.0006721438840031624,-0.0012989575043320656
1772556238676282000,4.9892822265625,-0.003029817948117852,0.0038222074508666992,-0.0007394272834062576
1772556238686213400,4.99921337890625,-0.0022976421751081944,0.00027789175510406494,0.0009619267657399178
1772556238696144100,5.00914404296875,-0.000048869289457798004,-0.0007618069648742676,-0.0007387679070234299
1772556238706075100,5.0190751953125,-0.0017074020579457283,0.0018976423889398575,-0.0007317690178751945
1772556238716006400,5.02900634765625,0.0012769363820552826,0.0008025504648685455,0.0014834478497505188
1772556238725937200,5.038937255859375,0.0001893145963549614,-0.0021637463942170143,-0.0003937259316444397
1772556238735868200,5.0488681640625,-0.0012242915108799934,0.0013265926390886307,0.00012292712926864624
1772556238745799200,5.058799072265625,-0.0019719270057976246,-0.0021377811208367348,0.0004937434569001198
1772556238755730200,5.068730224609375,-0.0011356943286955357,-0.0002749003469944,0.00017230026423931122
1772556238765661200,5.0786611328125,-0.00014933664351701736,0.0011677742004394531,0.0010608909651637077
1772556238775592200,5.08859228515625,0.0012030168436467648,-0.00045089609920978546,0.0014060363173484802
1772556238785524200,5.098524169921875,-0.0008331891149282455,0.0018303729593753815,0.0004890905693173409
1772556238795455200,5.108455322265625,-0.0010803304612636566,0.0020005498081445694,-0.00048349611461162567
1772556238805386000,5.118385986328125,0.0009861350990831852,0.0028239767998456955,-0.0012936023995280266
1772556238815317200,5.128317138671875,-0.0016163056716322899,-0.0011076480150222778,-0.0005766795948147774
1772556238825248300,5.138248291015625,0.0005781073123216629,-0.002215074375271797,0.0006005894392728806
1772556238835179000,5.148178955078125,0.0014329818077385426,-0.0024989666417241096,-0.0006716027855873108
1772556238845110300,5.1581103515625,-0.0017675217241048813,-0.0003142142668366432,0.0007459977641701698
1772556238855041300,5.168041259765625,0.0004745936021208763,0.0005941912531852722,-0.00008730590343475342
1772556238864972000,5.177971923828125,-0.0024077787529677153,-0.0005527716130018234,-0.0008147396147251129
1772556238874903300,5.1879033203125,-0.00007538218051195145,0.00023206137120723724,0.0010534683242440224
1772556238884834000,5.197833984375,0.0008846926502883434,0.0011863410472869873,-0.0023604482412338257
1772556238894765000,5.20776513671875,-0.0002639289014041424,-0.0005644205957651138,0.00018420163542032242
1772556238904696300,5.2176962890625,0.00026933662593364716,0.0013720523566007614,0.0021022334694862366
1772556238914627000,5.227626953125,-0.0003514462150633335,0.0004007965326309204,0.0006721168756484985
1772556238924558000,5.23755810546875,-0.0009135021828114986,0.002712121233344078,-0.0013238564133644104
1772556238934490000,5.247489990234375,-0.0003441185690462589,0.0006867870688438416,-0.0007912246510386467
1772556238944421000,5.257421142578125,-0.003555912058800459,0.000372840091586113,-0.0012284722179174423
1772556238954352000,5.26735205078125,-0.0017763879150152206,0.0029023103415966034,0.0016959449276328087
1772556238964283100,5.277283203125,-0.002100774087011814,-0.0000487184152007103,-0.001351681537926197
1772556238974214100,5.287214111328125,-0.0015995670109987259,-0.0001363363116979599,-0.0015628701075911522
1772556238984145200,5.297145263671875,0.00021502841264009476,0.0013772305101156235,-0.002295391634106636
1772556238994076200,5.307076171875,-0.0015996494330465794,0.001468844711780548,-0.001938261091709137
1772556239004007200,5.317007080078125,-0.0014155618846416473,-0.0002684425562620163,-0.002320227213203907
1772556239013938200,5.326938232421875,0.001418041530996561,-0.0007547363638877869,-0.0008541569113731384
1772556239023869200,5.336869140625,-0.0013113454915583134,-0.00006508640944957733,-0.002111019566655159
1772556239033800200,5.34680029296875,-0.0002037365920841694,0.0011386629194021225,0.002601443789899349
1772556239043731200,5.356731201171875,-0.000015429221093654633,-0.0022074952721595764,-0.0013652928173542023
1772556239053662000,5.366661865234375,-0.0009608515538275242,0.0010317079722881317,-0.0008630212396383286
1772556239063593200,5.37659326171875,0.0005152188241481781,0.0027965325862169266,0.00028869137167930603
1772556239073524200,5.386524169921875,0.0006654211319983006,0.00293847918510437,-0.0004580589011311531
1772556239083455000,5.396455078125,-0.001253572292625904,0.00038884207606315613,0.00012553855776786804
1772556239093387000,5.406386962890625,-0.0005883146077394485,0.0003302525728940964,-0.0012734197080135345
1772556239103318300,5.416318359375,-0.0005932589992880821,-0.0005732784047722816,0.0015126941725611687
1772556239113249000,5.4262490234375,0.00012153340503573418,-0.001989280804991722,-0.0009448714554309845
1772556239123180000,5.436179931640625,0.0002457411028444767,-0.0002384427934885025,0.002606756053864956
1772556239133111300,5.446111328125,-0.0001441454514861107,0.000666765496134758,-0.00035361386835575104
1772556239143042000,5.4560419921875,-0.0033413036726415157,0.0017184838652610779,0.00013770721852779388
1772556239152973000,5.46597314453125,0.0015509231016039848,-0.0020150020718574524,-0.0016913525760173798
1772556239162904300,5.475904296875,-0.00187006127089262,0.0001594163477420807,-0.0008546579629182816
1772556239172835000,5.4858349609375,0.003351332154124975,0.0005770009011030197,0.00009715650230646133
1772556239182766000,5.49576611328125,0.0002406500279903412,0.001798432320356369,0.000971582718193531
1772556239192697300,5.505697265625,-0.0012256861664354801,0,0.0023518986999988556
1772556239202628000,5.515628173828125,0.000848687719553709,-0.0005230316892266273,0.0031684539280831814
1772556239212559000,5.52555908203125,-0.002406227868050337,0.0008072163909673691,0.0005135489627718925
1772556239222490000,5.535489990234375,-0.0003244844265282154,0.001800537109375,0.0017797723412513733
1772556239232421000,5.545421142578125,-0.00018759770318865776,0.000446319580078125,0.0015017380937933922
1772556239242353200,5.555353271484375,-0.0032244420144706964,0.0026485230773687363,-0.00012396648526191711
1772556239252284200,5.5652841796875,0.00033274246379733086,-0.0004974696785211563,0.00041026342660188675
1772556239262215200,5.575215087890625,0.0010707196779549122,-0.0003110133111476898,0.0027313753962516785
1772556239272146200,5.585146240234375,-0.00009281560778617859,0.002594228833913803,-0.0008183512836694717
1772556239282077200,5.5950771484375,0.0014219926670193672,0.0010003559291362762,-0.00001191999763250351
1772556239292008200,5.60500830078125,0.0017437026835978031,0.0010357759892940521,0.00015852227807044983
1772556239301939200,5.614939208984375,-0.001409929245710373,-0.0013350602239370346,-0.0012126527726650238
1772556239311870200,5.6248701171875,0.0027003930881619453,0.0022130701690912247,0.0005000261589884758
1772556239321801200,5.63480126953125,-0.0005492712371051311,0.0009757112711668015,0.0012811068445444107
1772556239331732200,5.644732177734375,-0.0009538051672279835,0.0009642597287893295,0.0012741824612021446
1772556239341663200,5.654663330078125,0.001500947866588831,-0.0008981311693787575,0.0016139131039381027
1772556239351594200,5.66459423828125,0.000107581727206707,-0.0002744188532233238,0.0027726544067263603
1772556239361525000,5.67452490234375,-0.001998415682464838,0.0008939243853092194,-0.0001566195860505104
1772556239371456300,5.684456298828125,-0.00026949169114232063,0.0010228212922811508,-0.0013249488547444344
1772556239381387300,5.69438720703125,0.0016406062059104443,-0.0022651851177215576,0.0003239288926124573
1772556239391318000,5.704318115234375,0.0002717413008213043,-0.001599394716322422,-0.0009317519143223763
1772556239401249300,5.714249267578125,-0.0006866483017802238,0.00031021982431411743,-0.0013672802597284317
1772556239411181300,5.724181396484375,0.00004092743620276451,-0.001202988438308239,-0.000026911497116088867
1772556239421112000,5.734112060546875,0.0016456535086035728,-0.0005502915009856224,0.00014602113515138626
1772556239431043000,5.74404296875,0.00004083244130015373,-0.0007476313039660454,0.0015114238485693932
1772556239440974300,5.753974365234375,0.0017079561948776245,-0.00006243772804737091,0.00010523106902837753
1772556239450905000,5.763905029296875,0.0029481910169124603,-0.0006912108510732651,-0.0014268849045038223
1772556239460836000,5.773836181640625,0.001725055743008852,-0.0006858948618173599,0.0012973546981811523
1772556239470767400,5.783767333984375,-0.0005034771747887135,0.0008885655552148819,-0.0009495550766587257
1772556239480698000,5.793697998046875,-0.0005582324229180813,0.001444149762392044,-0.0004845093935728073
1772556239490629600,5.803629638671875,-0.0025026064831763506,0.00041963160037994385,0.00021270569413900375
1772556239500560600,5.813560546875,0.0020452276803553104,-0.0005103424191474915,0.002593228593468666
1772556239510491600,5.82349169921875,-0.0026936016511172056,-0.0008293893188238144,-0.00004702899605035782
1772556239520422700,5.833422607421875,0.0018895110115408897,-0.0001597292721271515,-0.0020648427307605743
1772556239530353700,5.843353759765625,-0.0024405226577073336,-0.0007003508508205414,0.0004475833848118782
1772556239540284700,5.85328466796875,-0.0006781513802707195,0.0001292359083890915,0.000023458153009414673
1772556239550215400,5.86321533203125,-0.00022647948935627937,0.002402510493993759,-0.0007326137274503708
1772556239560147500,5.8731474609375,-0.0009570857509970665,0.0009827110916376114,-0.00025152787566185
1772556239570078700,5.88307861328125,-0.0008686687797307968,-0.001990174874663353,0.0007791155949234962
1772556239580009700,5.893009765625,0.0011114422231912613,-0.0001506684347987175,0.0026788823306560516
1772556239589940500,5.9029404296875,-0.0010430547408759594,0.0017478987574577332,-0.0005422113463282585
1772556239599871700,5.912871826171875,0.00024547940120100975,0.0013495292514562607,-0.00046179909259080887
1772556239609802500,5.922802490234375,-0.001175583340227604,0.0011282209306955338,-0.000060993246734142303
1772556239619733500,5.9327333984375,-0.0018120268359780312,-0.0006336439400911331,0.000007737427949905396
1772556239629664800,5.942664794921875,0.001929182093590498,-0.00013589859008789062,-0.002474328503012657
1772556239639595500,5.952595458984375,0.0007652360945940018,-0.0016291821375489235,-0.000415080226957798
1772556239649526500,5.962526611328125,-0.0024124477058649063,-0.00012476276606321335,-0.0030066026374697685
1772556239659457800,5.972457763671875,-0.0012643267400562763,0.0024237316101789474,0.00033104605972766876
1772556239669388500,5.982388427734375,0.00007550977170467377,0.0016383659094572067,0.00009588897228240967
1772556239679319600,5.992319580078125,-0.000014287419617176056,-0.00007100775837898254,0.0008367402479052544
1772556239689250600,6.00225048828125,0.0007505724206566811,-0.0009386660531163216,-0.0007204106077551842
1772556239699181600,6.012181640625,-0.0013962439261376858,0.0003162100911140442,0.0014296416193246841
1772556239709112600,6.022112548828125,0.0017606671899557114,-0.0007887361571192741,0.0018232567235827446
1772556239719044600,6.032044677734375,0.0000011040829122066498,0.0006908383220434189,-0.002523583360016346
1772556239728975600,6.0419755859375,-0.002346206223592162,-0.00002874806523323059,-0.0012457985430955887
1772556239738906600,6.05190673828125,0.0007312512025237083,0.0009597521275281906,0.0006018383428454399
1772556239748837400,6.06183740234375,-0.0017486843280494213,-0.0009689098224043846,0.0010140957310795784
1772556239758768600,6.0717685546875,-0.0006333538331091404,-0.00021672993898391724,-0.001201169565320015
1772556239768699600,6.08169970703125,-0.0013337652198970318,0.0006016604602336884,0.000170891173183918
1772556239778630400,6.09163037109375,-0.002004300244152546,0.0018816422671079636,-0.0007619978860020638
1772556239788561700,6.101561767578125,0.0026679490692913532,-0.00004355795681476593,-0.0007606660947203636
1772556239798492700,6.11149267578125,-0.0021830806508660316,-0.0007846774533390999,0.0008466700091958046
1772556239808423400,6.12142333984375,0.0011346852406859398,0.0007559601217508316,0.0004740934818983078
1772556239818354700,6.131354736328125,0.0007476364262402058,-0.0012452993541955948,-0.0008909078314900398
1772556239828285700,6.14128564453125,0.00042965495958924294,-0.0001416848972439766,-0.002448856830596924
1772556239838216400,6.151216552734375,-0.0008118124678730965,-0.0004894016310572624,-0.002515038475394249
1772556239848147700,6.161147705078125,0.00029419828206300735,0.0011902544647455215,0.000009105540812015533
1772556239858078500,6.171078369140625,-0.0010955389589071274,-0.0006891023367643356,0.00038081686943769455
1772556239868009500,6.181009521484375,0.0016395277343690395,-0.0012193378061056137,0.0012021353468298912
1772556239877940700,6.190940673828125,-0.0009522601030766964,0.0012191012501716614,0.0010788561776280403
1772556239887872800,6.200872802734375,-0.001374104991555214,0.00009178556501865387,0.0012881802394986153
1772556239897803500,6.210803466796875,0.001431319396942854,-0.0011500772088766098,-0.0011706165969371796
1772556239907734500,6.220734619140625,0.00018123164772987366,0.00032078661024570465,0.00015217531472444534
1772556239917665500,6.23066552734375,0.00012277578935027122,0.00048267655074596405,-0.0009751925244927406
1772556239927596500,6.240596435546875,0.002340389881283045,-0.0023400085046887398,-0.0013139471411705017
1772556239937527600,6.250527587890625,-0.00046332040801644325,0.0010843556374311447,-0.002451971173286438
1772556239947458600,6.26045849609375,-0.0016937004402279854,-0.00020727794617414474,-0.0006708484143018723
1772556239957389600,6.2703896484375,0.0007689232006669044,0.0019396878778934479,0.0005472227931022644
1772556239967320600,6.280320556640625,0.0009766495786607265,0.0009702965617179871,0.0026971930637955666
1772556239977251600,6.29025146484375,-0.00020347954705357552,0.0007904544472694397,0.0013706954196095467
1772556239987182600,6.3001826171875,-0.001451703254133463,-0.0009587099775671959,0.00026068929582834244
1772556239997113300,6.31011328125,-0.0015119388699531555,0.0015812069177627563,-0.0005729962140321732
1772556240007044600,6.320044677734375,0.001045761164277792,-0.0012537278234958649,-0.0034167198464274406
1772556240016975600,6.3299755859375,0.0002483036369085312,-0.001011027954518795,0.0035932790488004684
1772556240026906400,6.33990625,0.002684563398361206,0.00045051611959934235,-0.0013404935598373413
1772556240036837600,6.349837646484375,0.001430812757462263,0.0004454907029867172,0.002209717407822609
1772556240046769700,6.359769775390625,-0.00042514409869909286,0.0021147597581148148,0.0015497859567403793
1772556240056700400,6.369700439453125,-0.0012502209283411503,0.0018777363002300262,-0.002388112246990204
1772556240066631700,6.379631591796875,-0.0010203900747001171,0.0009360425174236298,-0.003592659719288349
1772556240076562700,6.389562744140625,0.00019615376368165016,0.0003895610570907593,-0.00011895876377820969
1772556240086493400,6.399493408203125,0.0016443803906440735,0.0009203292429447174,0.0005708001554012299
1772556240096424700,6.4094248046875,-0.0007685143500566483,0.002712273970246315,-0.001957886852324009
1772556240106355700,6.419355712890625,0.0006030136719346046,-0.0012294705957174301,-0.0010774461552500725
1772556240116286500,6.429286376953125,0.0036001247353851795,0.0003464575856924057,-0.00017582159489393234
1772556240126217700,6.4392177734375,-0.0011142026633024216,-0.0018820753321051598,0.002370692789554596
1772556240136148700,6.449148681640625,-0.0006294930353760719,-0.0020504212006926537,-0.0007304735481739044
1772556240146079500,6.45907958984375,0.001590784639120102,-0.0026296591386198997,-0.001798400655388832
1772556240156010800,6.4690107421875,0.0014104521833360195,0.0006755366921424866,0.0011013206094503403
1772556240165941500,6.47894140625,0.0002802065573632717,0.0007200110703706741,0.0009726900607347488
1772556240175872500,6.48887255859375,0.0003729863092303276,-0.001791386865079403,0.0012291846796870232
1772556240185803800,6.4988037109375,-0.00000518234446644783,0.0002531222999095917,-0.0011721877381205559
1772556240195734500,6.508734619140625,0.0008936100639402866,0.0008920580148696899,0.0011936714872717857
1772556240205665500,6.51866552734375,-0.0021527796052396297,-0.0015950687229633331,0.00001202709972858429
1772556240215597600,6.52859765625,0.0014009508304297924,-0.00211446825414896,0.002406163141131401
1772556240225528600,6.538528564453125,0.0005039982497692108,-0.00021456927061080933,0.0002628518268465996
1772556240235459600,6.54845947265625,-0.0024796240031719208,0.0006723012775182724,-0.0008045975118875504
1772556240245390600,6.558390625,0.002399020828306675,-0.0006502242758870125,-0.0003643771633505821
1772556240255321600,6.568321533203125,0.0004643518477678299,-0.0009565018117427826,-0.0014662407338619232
1772556240265252600,6.578252685546875,0.00005635572597384453,0.0008981227874755859,0.001991874538362026
1772556240275183600,6.58818359375,0.00047109881415963173,-0.0014008097350597382,0.0004052352160215378
1772556240285114600,6.598114501953125,-0.0005539520643651485,-0.0010751057416200638,-0.00235140323638916
1772556240295045600,6.608045654296875,-0.0023297283332794905,-0.0004086224362254143,-0.0027319099754095078
1772556240304976600,6.6179765625,-0.00012036971747875214,0.0014148447662591934,-0.0008972585201263428
1772556240314907600,6.62790771484375,0.00006436416879296303,-0.0011698240414261818,0.0010881032794713974
1772556240324838700,6.637838623046875,0.0013980753719806671,-0.0017463983967900276,-0.0003465414047241211
1772556240334769400,6.647769287109375,-0.0005484875291585922,-0.000909038819372654,-0.0012298943474888802
1772556240344700700,6.65770068359375,-0.0008156024850904942,0.0006060339510440826,0.00007052719593048096
1772556240354631700,6.667631591796875,0.0000013457611203193665,-0.00025618355721235275,-0.0014350367709994316
1772556240364562400,6.6775625,0.0005206619389355183,-0.0010010693222284317,0.0014491667971014977
1772556240374493700,6.68749365234375,0.0004333117976784706,-0.0005546743050217628,0.00009671039879322052
1772556240384425700,6.69742578125,0.0004905695095658302,0.0006504058837890625,-0.00023298896849155426
1772556240394356500,6.7073564453125,-0.003144226036965847,0.0001570228487253189,-0.0008949469774961472
1772556240404287500,6.71728759765625,0.00040310434997081757,-0.00008638948202133179,0.002685406245291233
1772556240414218800,6.72721875,-0.0031578161288052797,-0.0011651134118437767,0.0005068043246865273
1772556240424149500,6.7371494140625,-0.001048858743160963,0.00036407262086868286,0.002185927703976631
1772556240434080500,6.74708056640625,-0.0019718962721526623,0.00355343334376812,-0.0005276482552289963
1772556240444011800,6.75701171875,0.00009285286068916321,0.009951943531632423,-0.006524021737277508
1772556240453942500,6.766942626953125,-0.0005452884361147881,-0.005391241982579231,0.000881977379322052
1772556240463873500,6.77687353515625,0.0038193659856915474,-0.0018060943111777306,-0.0020110150799155235
1772556240473804500,6.786804443359375,-0.0033442266285419464,0.0022982321679592133,-0.0045760395005345345
1772556240483735600,6.796735595703125,0.004587732721120119,-0.00981489010155201,0.005869677755981684
1772556240493666300,6.806666259765625,0.004285238217562437,-0.007352991960942745,0.0003852676600217819
1772556240503597300,6.816597412109375,0.004159003961831331,-0.0022221459075808525,0.0001650247722864151
1772556240513528300,6.8265283203125,-0.004361696541309357,0.0015835408121347427,0.0018564052879810333
1772556240523459000,6.836458984375,0.0007457137107849121,0.000710291787981987,-0.005057958886027336
1772556240533390300,6.846390380859375,-0.002555376384407282,-0.00241075549274683,0.0004599718376994133
1772556240543322400,6.856322265625,-0.0008296477608382702,0.006783541291952133,0.005142874550074339
1772556240553253400,6.86625341796875,0.001733370590955019,-0.018380235880613327,-0.0029590176418423653
1772556240563184400,6.876184326171875,-0.0011345879174768925,-0.0001415777951478958,-0.002080175094306469
1772556240573115400,6.886115478515625,0.002794265281409025,0.005597161129117012,0.0031704911962151527
1772556240583046100,6.896046142578125,-0.00013467948883771896,-0.012307270430028439,0.0005227765068411827
1772556240592977400,6.905977294921875,-0.000330247450619936,-0.000956476666033268,-0.0027007712051272392
1772556240602908400,6.915908447265625,-0.002398458309471607,0.0002366192638874054,0.0008116718381643295
1772556240612839200,6.925839111328125,-0.0004202732816338539,-0.006251560524106026,-0.0017126165330410004
1772556240622770400,6.9357705078125,-0.001504180021584034,0.0027379393577575684,-0.0013653403148055077
1772556240632701400,6.945701416015625,-0.0022810492664575577,-0.0007094396278262138,-0.0006435038521885872
1772556240642632200,6.955632080078125,-0.0013167187571525574,-0.0027616722509264946,-0.0013199467211961746
1772556240652563500,6.9655634765625,0.0016811778768897057,0.0009198375046253204,-0.0024931374937295914
1772556240662494200,6.975494140625,-0.0013066227547824383,0.0011163782328367233,0.0006885407492518425
1772556240672425200,6.98542529296875,0.001077116932719946,-0.0050313593819737434,-0.002881966531276703
1772556240682356500,6.9953564453125,0.001059273723512888,-0.0009665768593549728,0.001438746228814125
1772556240692287200,7.005287353515625,-0.001276360359042883,0.003434387966990471,0.0005473755300045013
1772556240702218200,7.01521826171875,-0.0017717084847390652,-0.004189177416265011,-0.0021155187860131264
1772556240712150300,7.025150390625,-0.0004794290289282799,0.0008076522499322891,0.0002568718045949936
1772556240722081300,7.035081298828125,0.0003695865161716938,0.0007123108953237534,0.0007884390652179718
1772556240732012300,7.04501220703125,0.002311304211616516,0.0010698549449443817,-0.0005233418196439743
1772556240741943300,7.054943359375,0.0007134075276553631,-0.00031152646988630295,-0.002102862112224102
1772556240751874300,7.064874267578125,-0.0010543935932219028,-0.0007978565990924835,0.0006715655326843262
1772556240761805300,7.074805419921875,0.0012801331467926502,-0.0004689563065767288,-0.0030520670115947723
1772556240771736300,7.084736328125,-0.0008139717392623425,-0.0018474804237484932,0.0006681159138679504
1772556240781667300,7.094667236328125,0.002242538146674633,-0.0038829343393445015,-0.001478392630815506
1772556240791598300,7.104598388671875,0.0010298886336386204,-0.0029651597142219543,-0.0013563325628638268
1772556240801529300,7.114529296875,0.0006879386492073536,0.002186192199587822,0.00024396181106567383
1772556240811460400,7.12446044921875,0.0009292815811932087,-0.002340707927942276,0.00044214725494384766
1772556240821391400,7.134391357421875,-0.0007772720418870449,-0.005599351599812508,-0.004226640798151493
1772556240831322000,7.144322021484375,-0.00007537892088294029,-0.00017248746007680893,0.0012116078287363052
1772556240841253400,7.15425341796875,0.0008157147094607353,-0.002800228074193001,0.00163318682461977
1772556240851184400,7.164184326171875,0.000024191103875637054,-0.0035285064950585365,0.00023583322763442993
1772556240861115100,7.174115234375,0.00012565776705741882,0.0000028461217880249023,-0.0015450231730937958
1772556240871046400,7.18404638671875,-0.0010239933617413044,0.0005971882492303848,0.0005204202607274055
1772556240880978400,7.193978515625,0.0016341079026460648,-0.0029000742360949516,0.00310501828789711
1772556240890909200,7.2039091796875,0.0006081396713852882,-0.0015418147668242455,0.0014282092452049255
1772556240900840200,7.213840087890625,0.000466193538159132,0.001375678926706314,0.0013307379558682442
1772556240910771500,7.223771484375,0.0015987511724233627,-0.002055956982076168,0.0021403981372714043
1772556240920702200,7.2337021484375,0.0005015283823013306,-0.002084186300635338,0.0015425188466906548
1772556240930633200,7.24363330078125,-0.0013938788324594498,-0.0008719582110643387,0.0002952897921204567
1772556240940564500,7.253564453125,0.00021227356046438217,-0.0008048461750149727,0.0038679204881191254
1772556240950495200,7.2634951171875,0.0002834843471646309,0.0027836747467517853,0.00010127294808626175
1772556240960426200,7.27342626953125,-0.001663020346313715,-0.0011908262968063354,-0.0004539964720606804
1772556240970357200,7.283357177734375,-0.0013228515163064003,-0.0011158017441630363,-0.00036381836980581284
1772556240980288300,7.293288330078125,-0.0012789093889296055,-0.0009245863184332848,-0.0006112260743975639
1772556240990219300,7.30321923828125,-0.0013571009039878845,-0.0023458702489733696,0.001902601681649685
1772556241000150300,7.313150390625,0.0009523923508822918,-0.00388304702937603,-0.00019224081188440323
1772556241010081300,7.323081298828125,-0.00020093098282814026,0.0005959309637546539,-0.0012542055919766426
1772556241020012300,7.33301220703125,-0.0023378515616059303,0.0016414877027273178,0.00011412613093852997
1772556241029943300,7.342943359375,0.0009113955311477184,-0.0032851900905370712,-0.0002957414835691452
1772556241039874300,7.352874267578125,0.0006195129826664925,0.001002766191959381,-0.00024940259754657745
1772556241049806300,7.362806396484375,-0.001055561937391758,0.0019932780414819717,-0.00007963553071022034
1772556241059737000,7.372737060546875,0.0019588698633015156,-0.0016866782680153847,0.0006988057866692543
1772556241069668400,7.38266845703125,-0.000003450550138950348,0.0007421467453241348,0.002322969026863575
1772556241079599400,7.392599365234375,0.004463735967874527,0.000009777024388313293,-0.0003822697326540947
1772556241089530000,7.402530029296875,0.0017947107553482056,-0.0005637276917695999,0.00014697574079036713
1772556241099461400,7.41246142578125,0.00022744107991456985,-0.001063602976500988,-0.0011638319119811058
1772556241109392400,7.422392333984375,0.0021772533655166626,-0.0010204967111349106,0.002313404344022274
1772556241119323100,7.4323232421875,0.0010834932327270508,0.0025175120681524277,0.00234909076243639
1772556241129254400,7.44225439453125,0.0016346890479326248,-0.0013227779418230057,-0.0016065370291471481
1772556241139185200,7.45218505859375,-0.0017629717476665974,0.00013983063399791718,-0.0024646082893013954
1772556241149116200,7.4621162109375,0.0003433544188737869,0.0030798986554145813,0.0018475120887160301
1772556241159047400,7.47204736328125,0.0002698511816561222,0.0005722660571336746,0.000455743633210659
1772556241168978200,7.481978271484375,0.0005510193295776844,0.001507539302110672,0.0008571650832891464
1772556241178909200,7.4919091796875,-0.002224526833742857,0.0018249880522489548,0.0005522333085536957
1772556241188840400,7.50184033203125,0.0024282890371978283,0.0027384795248508453,-0.0014069322496652603
1772556241198771200,7.511771240234375,-0.00014432519674301147,-0.0014301659539341927,0.00046420469880104065
1772556241208702200,7.5217021484375,-0.0000031176023185253143,0.00039133988320827484,-0.00019599869847297668
1772556241218633200,7.53163330078125,-0.0012771738693118095,0.0007085222750902176,-0.0013387612998485565
1772556241228565200,7.541565185546875,0.00014205975458025932,-0.00004879198968410492,0.00044261664152145386
1772556241238496300,7.551496337890625,-0.0024864801671355963,0.00045587681233882904,-0.0007512783631682396
1772556241248427300,7.56142724609375,-0.0010013883002102375,-0.0007345927879214287,-0.002004615031182766
1772556241258358300,7.571358154296875,-0.0017723734490573406,-0.00022939126938581467,0.0005139363929629326
1772556241268289300,7.581289306640625,0.00356255192309618,-0.003835034556686878,0.0016040997579693794
1772556241278220300,7.59122021484375,-0.000463082455098629,0.0029730703681707382,0.000928189605474472
1772556241288151300,7.6011513671875,0.0003369315527379513,-0.00006859004497528076,-0.0003459397703409195
1772556241298082300,7.611082275390625,0.0003004460595548153,-0.00009602122008800507,-0.0013688597828149796
1772556241308013300,7.621013427734375,-0.0005281101912260056,0.0015684664249420166,-0.00006983522325754166
1772556241317944300,7.6309443359375,-0.00030706776306033134,0.0011596716940402985,-0.0004858216270804405
1772556241327875300,7.640875244140625,-0.0025649648159742355,-0.0013651354238390923,0.0013860305771231651
1772556241337806300,7.650806396484375,-0.00006931647658348083,0.00022636912763118744,-0.0009695356711745262
1772556241347737300,7.6607373046875,-0.0013941191136837006,-0.0008191559463739395,-0.0006906259804964066
1772556241357668400,7.67066845703125,-0.0004718666896224022,0.0004245396703481674,0.0025696149095892906
1772556241367599400,7.680599365234375,0.0005752393044531345,-0.0022573228925466537,-0.001358233392238617
1772556241377530400,7.6905302734375,-0.0011923005804419518,-0.0007704794406890869,-0.00041547417640686035
1772556241387461000,7.700461181640625,-0.0018755597993731499,0.00005147606134414673,0.0007864311337471008
1772556241397393200,7.71039306640625,-0.000806034542620182,-0.0012167207896709442,0.0030639665201306343
1772556241407324400,7.720324462890625,-0.0009893733076751232,-0.0005530258640646935,-0.0017858631908893585
1772556241417255400,7.73025537109375,0.0010130577720701694,0.0012179762125015259,-0.00042791757732629776
1772556241427186200,7.740186279296875,0.0009081386961042881,-0.0000979062169790268,-0.00020356383174657822
1772556241437117400,7.750117431640625,-0.002094575669616461,-0.0005296049639582634,-0.0014619072899222374
1772556241447048200,7.760048095703125,0.001496642827987671,0.0004505198448896408,-0.001318240538239479
1772556241456979200,7.769979248046875,-0.0010618562810122967,-0.00011327117681503296,-0.0002340683713555336
1772556241466910500,7.779910400390625,0.0014392128214240074,0.0019152536988258362,-0.002469277009367943
1772556241476841200,7.78984130859375,0.0009518545120954514,0.0005565080791711807,-0.0020040227100253105
1772556241486772200,7.799772216796875,-0.0021239249035716057,-0.001953515224158764,0.0003678062930703163
1772556241496703700,7.809703857421875,-0.00008580740541219711,0.000035066157579422,0.0003350498154759407
1772556241506634800,7.819634765625,-0.0013741366565227509,0.0007558222860097885,0.00031030550599098206
1772556241516565800,7.829565673828125,0.00021923286840319633,-0.0004346100613474846,-0.000779992900788784
1772556241526496800,7.839496826171875,-0.0007235766388475895,-0.00039152614772319794,0.0003332551568746567
1772556241536427800,7.849427734375,-0.0025417166762053967,0.00035895220935344696,-0.0025970209389925003
1772556241546358800,7.85935888671875,-0.000023602042347192764,0.002128882333636284,-0.00031444430351257324
1772556241556289800,7.869289794921875,-0.0014787535183131695,-0.0028949035331606865,0.001190774142742157
1772556241566220800,7.879220703125,0.00041108857840299606,0.000034475699067115784,0.0027535120025277138
1772556241576152800,7.88915283203125,0.0006425175815820694,-0.00030374620109796524,0.002213156782090664
1772556241586083800,7.899083740234375,0.000542007852345705,0.0016748793423175812,-0.002115568146109581
1772556241596014800,7.909014892578125,-0.0017592296935617924,-0.001177632249891758,0.0018847659230232239
1772556241605945900,7.91894580078125,-0.0018605850636959076,0.0018554050475358963,0.00064820796251297
1772556241615876600,7.928876708984375,0.0015245592221617699,-0.002075420692563057,0.00112997367978096
1772556241625808000,7.938807861328125,-0.0016359342262148857,-0.0003432491794228554,-0.0012972941622138023
1772556241635739000,7.94873876953125,0.0022922283969819546,0.001687144860625267,0.0007104622200131416
1772556241645669600,7.958669677734375,-0.0017488324083387852,-0.0024557122960686684,-0.000193069688975811
1772556241655601000,7.968600830078125,-0.0017917091026902199,-0.001261817291378975,0.0005084071308374405
1772556241665532000,7.978531982421875,-0.00031126895919442177,0.000005610287189483643,-0.002387743443250656
1772556241675462700,7.988462646484375,-0.0036210455000400543,-0.002514272928237915,0.001867455430328846
1772556241685394000,7.998393798828125,0.0011142576113343239,0.0012760329991579056,-0.0008324515074491501
1772556241695325000,8.008324951171875,0.0007784329354763031,-0.0045789266005158424,0.00002135802060365677
1772556241705255700,8.018255615234375,-0.00165861239656806,0.000788787379860878,0.0022142454981803894
1772556241715187000,8.02818701171875,-0.003371025202795863,0.0025970730930566788,0.001760176382958889
1772556241725117700,8.03811767578125,-0.003880383912473917,0.0011632051318883896,-0.0013098185881972313
1772556241735048700,8.048048583984375,-0.0007109558209776878,-0.00009593833237886429,-0.002163894474506378
1772556241744980700,8.057980712890625,-0.00025069713592529297,0.0030787046998739243,0.0002868548035621643
1772556241754912000,8.067912109375,-0.0014523155987262726,0.00044723600149154663,0.0011153649538755417
1772556241764842800,8.0778427734375,-0.0025718684773892164,0.0016020704060792923,0.002037075348198414
1772556241774773800,8.087773681640625,-0.0011356258764863014,-0.002693607471883297,-0.00039758626371622086
1772556241784704800,8.097704833984375,-0.0006500231102108955,-0.0013832282274961472,-0.00016613397747278214
1772556241794635800,8.1076357421875,-0.0029288900550454855,0.0017939228564500809,0.0038832020945847034
1772556241804566800,8.11756689453125,-0.003051557345315814,-0.002726815640926361,-0.0011458136141300201
1772556241814497800,8.127497802734375,-0.00022274767979979515,-0.0022178851068019867,-0.0019293148070573807
1772556241824428800,8.1374287109375,0.0014213835820555687,-0.002025582827627659,0.0007934030145406723
1772556241834359800,8.14735986328125,-0.0014641513116657734,0.0011355895549058914,-0.0009064925834536552
1772556241844290800,8.157290771484375,0.0010735057294368744,0.000977635383605957,-0.0014398442581295967
1772556241854221800,8.167221923828125,0.001122507732361555,-0.0007132049649953842,-0.001290973275899887
1772556241864152800,8.17715283203125,-0.0011559827253222466,0.003774300217628479,0.000029706396162509918
1772556241874083800,8.187083740234375,0.000021134503185749054,0.0017612166702747345,0.0017008399590849876
1772556241884014800,8.197014892578125,-0.0013795709237456322,-0.0012316955253481865,-0.0016584089025855064
1772556241893945600,8.206945556640624,-0.00002748379483819008,-0.0006388761103153229,0.0003032758831977844
1772556241903876900,8.216876953125,-0.001347934827208519,-0.0009616957977414131,-0.001988442614674568
1772556241913808000,8.226807861328124,-0.0011322186328470707,-0.0002887146547436714,0.0012166714295744896
1772556241923740000,8.236739990234375,-0.0012013604864478111,-0.003190375864505768,-0.0015951870009303093
1772556241933670700,8.246670654296874,-0.00363282673060894,-0.00025424081832170486,-0.0013927863910794258
1772556241943602000,8.256601806640624,-0.0012718257494270802,-0.0006133969873189926,-0.0001637134701013565
1772556241953532700,8.26653271484375,0.0005154218524694443,-0.00012870226055383682,-0.00010991748422384262
1772556241963463700,8.276463623046874,-0.002322122920304537,-0.0025013936683535576,0.0001834416761994362
1772556241973395000,8.28639501953125,-0.0025319799315184355,-0.0013141566887497902,0.0006186021491885185
1772556241983325700,8.29632568359375,-0.0021793809719383717,-0.0025680996477603912,-0.0014007985591888428
1772556241993256700,8.306256591796876,-0.002977530239149928,0.0012711137533187866,0.00024210568517446518
1772556242003188000,8.31618798828125,0.0007810927927494049,0.0011581741273403168,-0.0025828778743743896
1772556242013118700,8.32611865234375,-0.0023398655466735363,-0.0019039278849959373,0.0008664475753903389
1772556242023049700,8.3360498046875,0.00025694165378808975,-0.0017057377845048904,-0.0008213771507143974
1772556242032980700,8.345980712890626,-0.0007601194083690643,0.0006231963634490967,-0.0017042150720953941
1772556242042911700,8.355911865234376,-0.0010269731283187866,0.0028147269040346146,0.002476033754646778
1772556242052842800,8.3658427734375,-0.0017465590499341488,-0.0007962537929415703,-0.0022619962692260742
1772556242062773800,8.375773681640625,0.00014891289174556732,0.00021480023860931396,0.002457565627992153
1772556242072704800,8.385704833984375,-0.0024918776471167803,0.0008377134799957275,-0.0006495444104075432
1772556242082635800,8.3956357421875,-0.0001896703615784645,-0.0005986616015434265,0.0024154288694262505
1772556242092566800,8.40556689453125,-0.00047915615141391754,-0.0003794841468334198,-0.0010075317695736885
1772556242102498800,8.415498779296875,0.00018610386177897453,0.001751704141497612,0.00019507482647895813
1772556242112429800,8.425429931640625,-0.0019540125504136086,-0.0004174401983618736,0.0003159819170832634
1772556242122360800,8.43536083984375,0.0009948480874300003,-0.0008634254336357117,-0.0005300957709550858
1772556242132291800,8.445291748046875,-0.0014605866745114326,0.000202106311917305,-0.0009788386523723602
1772556242142222800,8.455222900390625,-0.002940454287454486,-0.0013177013024687767,-0.00010163988918066025
1772556242152153900,8.46515380859375,-0.0012413575313985348,0.0008330680429935455,0.0002448372542858124
1772556242162084900,8.4750849609375,0.000368582084774971,-0.00023282598704099655,0.0011524362489581108
1772556242172015900,8.485015869140625,-0.001990978606045246,-0.00020539481192827225,0.0010150177404284477
1772556242181947000,8.49494677734375,-0.0005286955274641514,-0.0013094451278448105,0.0009226119145750999
1772556242191878000,8.5048779296875,-0.0008381549268960953,-0.003031711094081402,-0.00009950902312994003
1772556242201808600,8.51480859375,-0.0004736729897558689,-0.0010449709370732307,-0.00007910188287496567
1772556242211740000,8.524739990234375,0.0006216852925717831,-0.00029449164867401123,0.0017294511198997498
1772556242221671000,8.5346708984375,-0.0017784126102924347,-0.003335867077112198,0.0005882177501916885
1772556242231601700,8.5446015625,-0.0029243710450828075,0.0014042928814888,-0.0008664010092616081
1772556242241533000,8.554532958984375,-0.004096261225640774,-0.002986985258758068,-0.0006349561735987663
1772556242251464000,8.5644638671875,-0.0012844959273934364,-0.0025020232424139977,-0.0005699750036001205
1772556242261394700,8.574394775390624,-0.0018874662928283215,0.002038603648543358,-0.0003076717257499695
1772556242271326000,8.584325927734374,-0.00004828721284866333,0.000012470409274101257,0.0021091466769576073
1772556242281258000,8.594258056640625,-0.0029958148952573538,-0.0009528808295726776,0.00229750107973814
1772556242291188700,8.604188720703124,-0.0014445236884057522,-0.003610982559621334,0.0006292974576354027
1772556242301119700,8.61411962890625,0.0005083726719021797,0.00007536448538303375,0.000775238499045372
1772556242311051000,8.624051025390624,-0.002247999422252178,0.001516668125987053,0.0016303788870573044
1772556242320981800,8.633981689453124,-0.0011730319820344448,-0.002704620361328125,0.0008701859042048454
1772556242330912800,8.643912841796874,-0.0014755669981241226,-0.0003850068897008896,-0.003346930257976055
1772556242340843800,8.65384375,0.00015168357640504837,0.0010235682129859924,0.0017193835228681564
1772556242350774800,8.66377490234375,-0.0007593841291964054,-0.0010158801451325417,0.00033693667501211166
1772556242360705800,8.673705810546876,-0.00149967847391963,-0.001981864683330059,-0.0002538170665502548
1772556242370636800,8.68363671875,-0.001757472287863493,0.0009010080248117447,-0.003355068154633045
1772556242380567800,8.69356787109375,-0.0011209826916456223,0.0010181097313761711,0.0008155619725584984
1772556242390498800,8.703498779296876,0.0003099339082837105,-0.0016911234706640244,0.0024472810328006744
1772556242400429800,8.713429931640626,-0.0001915469765663147,0.0007287226617336273,-0.0017075613141059875
1772556242410360800,8.72336083984375,-0.0005409540608525276,0.0006672032177448273,0.0007888861000537872
1772556242420291800,8.733291748046875,-0.0021006371825933456,-0.0012141680344939232,0.0005119899287819862
1772556242430222800,8.743222900390625,0.0004373551346361637,-0.0010546445846557617,0.0020888475701212883
1772556242440153900,8.75315380859375,0.0004251571372151375,-0.0002711312845349312,-0.001252676360309124
1772556242450084600,8.763084716796875,0.0009244997054338455,-0.0010367901995778084,0.0007446948438882828
1772556242460015900,8.773015869140625,-0.0031277064699679613,-0.001074938103556633,-0.0006432076916098595
1772556242469948000,8.782947998046875,0.0014558597467839718,-0.0004930375143885612,-0.0024536242708563805
1772556242479879000,8.79287890625,-0.0015420857816934586,-0.0017798198387026787,0.00042844098061323166
1772556242489809700,8.8028095703125,-0.0037764781154692173,0.0017115836963057518,-0.0006836950778961182
1772556242499740000,8.812739990234375,-0.0007573957554996014,-0.0011975998058915138,-0.00006841309368610382
1772556242509671000,8.8226708984375,0.00014328490942716599,-0.0034746024757623672,-0.000022074207663536072
1772556242519602200,8.832602294921875,-0.0006770198233425617,-0.004675411619246006,0.03222798556089401
1772556242529533000,8.842532958984375,0.019885513931512833,0.018637634813785553,0.06702884286642075
1772556242539464000,8.8524638671875,0.008009884506464005,0.050597794353961945,0.04493686184287071
1772556242549395000,8.86239501953125,0.003864673897624016,0.017062470316886902,0.017010953277349472
1772556242559326000,8.872325927734375,-0.004055662080645561,-0.02780207246541977,0.004077784717082977
1772556242569257000,8.882257080078125,-0.0018644132651388645,-0.02577008120715618,-0.02787162736058235
1772556242579188000,8.89218798828125,-0.007515372708439827,-0.0021495800465345383,-0.05806582421064377
1772556242589119000,8.902118896484374,-0.007295395713299513,-0.0036310963332653046,-0.056232236325740814
1772556242599050000,8.912050048828124,-0.005610158201307058,-0.01063518039882183,-0.02463938295841217
1772556242608981000,8.92198095703125,-0.004332373850047588,-0.011736663989722729,0.03944798931479454
