time,seconds_elapsed,z,y,x
1772556146451909600,0.07090966796875,0.2638901174068451,0.09656619280576706,0.8208716511726379
1772556146461840600,0.080840576171875,0.30159884691238403,-0.14566068351268768,0.7031135559082031
1772556146471771600,0.090771728515625,0.3265529274940491,-0.4348227381706238,0.5264570713043213
1772556146481702700,0.10070263671875,0.33006611466407776,-0.6234331727027893,0.33122220635414124
1772556146491633700,0.110633544921875,0.31530526280403137,-0.6654027104377747,0.12528850138187408
1772556146501564700,0.120564697265625,0.27575060725212097,-0.6199612021446228,-0.0826067179441452
1772556146511496400,0.130496337890625,0.22140640020370483,-0.5022825002670288,-0.319157212972641
1772556146521427700,0.140427734375,0.134654238820076,-0.31826135516166687,-0.5892842411994934
1772556146531358700,0.150358642578125,0.041945330798625946,-0.07168115675449371,-0.8563433885574341
1772556146541289500,0.16028955078125,-0.03512398153543472,0.16277599334716797,-1.0592111349105835
1772556146551220700,0.170220703125,-0.11003071069717407,0.3662113845348358,-1.1624038219451904
1772556146561151700,0.18015185546875,-0.1726001650094986,0.5429927706718445,-1.122204065322876
1772556146571082500,0.19008251953125,-0.19893723726272583,0.6164089441299438,-0.9256387948989868
1772556146581013800,0.200013671875,-0.1865186095237732,0.6137986779212952,-0.6427731513977051
1772556146590945800,0.20994580078125,-0.15564857423305511,0.5558264851570129,-0.31610047817230225
1772556146600876500,0.21987646484375,-0.10173781216144562,0.5230152010917664,-0.03106715716421604
1772556146610807600,0.2298076171875,-0.04470275342464447,0.5588024854660034,0.13659481704235077
1772556146620738600,0.239738525390625,-0.08244217932224274,0.6540364027023315,0.17554402351379395
1772556146630669600,0.249669677734375,-0.21963784098625183,0.6994009613990784,0.15995360910892487
1772556146640600600,0.2596005859375,-0.4010414779186249,0.543864369392395,0.1412012279033661
1772556146650531600,0.269531494140625,-0.5456143617630005,0.24385450780391693,0.16961981356143951
1772556146660463600,0.279463623046875,-0.5651776194572449,-0.0993506908416748,0.26135021448135376
1772556146670394600,0.28939453125,-0.405866801738739,-0.31210529804229736,0.32704800367355347
1772556146680325600,0.29932568359375,-0.12293067574501038,-0.32510483264923096,0.33018988370895386
1772556146690256600,0.309256591796875,0.2270861715078354,-0.30228498578071594,0.2940763533115387
1772556146700187600,0.319187744140625,0.6238114237785339,-0.2608211040496826,0.17954668402671814
1772556146710118700,0.32911865234375,1.0826828479766846,-0.08721975982189178,-0.01932539790868759
1772556146720049700,0.339049560546875,1.4971392154693604,0.014814458787441254,-0.2330094575881958
1772556146729980700,0.348980712890625,1.7996580600738525,-0.01963885687291622,-0.4996022880077362
1772556146739911700,0.35891162109375,1.9161045551300049,-0.0803544819355011,-0.8018951416015625
1772556146749843700,0.36884375,1.7430014610290527,-0.07199135422706604,-1.1147160530090332
1772556146759774700,0.378774658203125,1.354423999786377,0.23074030876159668,-1.3330209255218506
1772556146769705500,0.38870556640625,1.1635416746139526,0.515984833240509,-1.3948811292648315
1772556146779636700,0.39863671875,1.0219231843948364,0.6031160950660706,-1.239580750465393
1772556146789567700,0.408567626953125,0.8527902960777283,0.5866177678108215,-0.9465083479881287
1772556146799498500,0.41849853515625,0.7436199188232422,0.698746383190155,-0.6256764531135559
1772556146809429800,0.4284296875,0.7231013178825378,0.9279513359069824,-0.30560731887817383
1772556146819360800,0.43836083984375,0.7433445453643799,1.1040325164794922,-0.002567511983215809
1772556146829292500,0.44829248046875,0.7935773730278015,1.2030134201049805,0.23115763068199158
1772556146839223600,0.4582236328125,0.8633822202682495,1.2366701364517212,0.37074926495552063
1772556146849154800,0.46815478515625,0.9103979468345642,1.0551732778549194,0.399934321641922
1772556146859085600,0.47808544921875,0.968291699886322,0.8110324740409851,0.318956583738327
1772556146869016600,0.4880166015625,0.9699183702468872,0.5846734046936035,0.15871818363666534
1772556146878947800,0.49794775390625,0.8885483145713806,0.3695443570613861,-0.03289276733994484
1772556146888878600,0.507878662109375,0.7477166056632996,0.1272105574607849,-0.24390222132205963
1772556146898809600,0.5178095703125,0.5708656311035156,-0.07278690487146378,-0.4193735122680664
1772556146908741600,0.52774169921875,0.38131728768348694,-0.19732297956943512,-0.5370327234268188
1772556146918672600,0.537672607421875,0.24149523675441742,-0.26157283782958984,-0.6266593337059021
1772556146928603600,0.547603759765625,0.17389222979545593,-0.3102434277534485,-0.701237142086029
1772556146938534700,0.55753466796875,0.15888750553131104,-0.2833622992038727,-0.7620667219161987
1772556146948465700,0.567465576171875,0.17178893089294434,-0.16635261476039886,-0.7737505435943604
1772556146958396700,0.577396728515625,0.18583127856254578,-0.050755299627780914,-0.7142610549926758
1772556146968327400,0.587327392578125,0.08194829523563385,-0.026694972068071365,-0.6193774342536926
1772556146978259500,0.597259521484375,-0.26369020342826843,-0.13216634094715118,-0.5207000970840454
1772556146988190700,0.607190673828125,-0.7837033271789551,-0.34221863746643066,-0.45623859763145447
1772556146998121700,0.617121826171875,-1.3616890907287598,-0.5416653752326965,-0.420466810464859
1772556147008052500,0.627052490234375,-1.8538044691085815,-0.7097817063331604,-0.3888132572174072
1772556147017983700,0.636983642578125,-2.0761606693267822,-0.5866438150405884,-0.33519798517227173
1772556147027914500,0.64691455078125,-1.907193660736084,0.1852278858423233,-0.24516397714614868
1772556147037845500,0.656845458984375,-1.4651516675949097,1.3922483921051025,-0.143922820687294
1772556147047776800,0.66677685546875,-1.0077632665634155,2.365914821624756,-0.06677716970443726
1772556147057708800,0.676708740234375,-0.6871272921562195,2.596665620803833,-0.061836689710617065
1772556147067639600,0.6866396484375,-0.5460873246192932,2.150568962097168,-0.34352830052375793
1772556147077570600,0.696570556640625,-0.5865446329116821,1.469462275505066,-1.070380687713623
1772556147087501600,0.70650146484375,-0.7748176455497742,0.8418997526168823,-1.911759614944458
1772556147097432600,0.7164326171875,-1.0323152542114258,0.24878770112991333,-2.3667898178100586
1772556147107363600,0.726363525390625,-1.3082597255706787,-0.22236809134483337,-2.2989494800567627
1772556147117294600,0.736294677734375,-1.5796762704849243,-0.5759419202804565,-1.7935677766799927
1772556147127225600,0.7462255859375,-1.6161972284317017,-0.814026415348053,-1.0712224245071411
1772556147137157600,0.75615771484375,-1.511109709739685,-0.9637433886528015,-0.308536559343338
1772556147147088600,0.766088623046875,-1.4677600860595703,-0.9665149450302124,0.3521777391433716
1772556147157019600,0.77601953125,-1.3992314338684082,-0.6820470690727234,0.771463930606842
1772556147166950700,0.78595068359375,-1.2723557949066162,-0.0618477463722229,0.9351487159729004
1772556147176881700,0.795881591796875,-1.1441195011138916,0.5836884379386902,0.9708224534988403
1772556147186812700,0.805812744140625,-1.0029170513153076,0.9574234485626221,0.9765783548355103
1772556147196743700,0.81574365234375,-0.7696358561515808,0.9534754753112793,0.9850437045097351
1772556147206674700,0.8256748046875,-0.5212787985801697,0.6599429249763489,0.9497098922729492
1772556147216606700,0.835606689453125,-0.2507166266441345,0.21043890714645386,0.8387055397033691
1772556147226537700,0.845537841796875,0.09930741041898727,-0.2631710171699524,0.7237890362739563
1772556147236468500,0.855468505859375,0.5237451195716858,-0.6179481148719788,0.7233216166496277
1772556147246399700,0.865399658203125,0.8453047275543213,-0.8245697021484375,0.7924282550811768
1772556147256330800,0.875330810546875,1.0511531829833984,-0.808542788028717,0.8519493937492371
1772556147266261500,0.885261474609375,1.1256732940673828,-0.5874487161636353,0.9436023831367493
1772556147276192800,0.89519287109375,1.060006022453308,-0.2449231594800949,1.0069046020507812
1772556147286123500,0.90512353515625,0.9120263457298279,0.0692233145236969,1.038306713104248
1772556147296055600,0.9150556640625,0.6868835687637329,0.3065248131752014,1.087971568107605
1772556147305986600,0.924986572265625,0.4387821853160858,0.40568575263023376,1.2012534141540527
1772556147315917800,0.934917724609375,0.218655064702034,0.40223851799964905,1.3454819917678833
1772556147325848600,0.9448486328125,-0.004397457465529442,0.3603733479976654,1.487678050994873
1772556147335779600,0.954779541015625,-0.1851743459701538,0.3323958218097687,1.6333534717559814
1772556147345710600,0.964710693359375,-0.3271320164203644,0.32841119170188904,1.8048676252365112
1772556147355641600,0.9746416015625,-0.45791107416152954,0.33661994338035583,2.018744707107544
1772556147365572600,0.984572509765625,-0.5521951913833618,0.381814569234848,2.2474613189697266
1772556147375504600,0.994504638671875,-0.5423331260681152,0.4920777976512909,2.406106948852539
1772556147385435600,1.004435546875,-0.5018136501312256,0.6395769715309143,2.4560043811798096
1772556147395366700,1.01436669921875,-0.47152596712112427,0.7577763199806213,2.349679708480835
1772556147405296600,1.024296630859375,-0.5060978531837463,0.8790282011032104,2.063155174255371
1772556147415227600,1.0342275390625,-0.6388081908226013,1.0001047849655151,1.6028380393981934
1772556147425158700,1.04415869140625,-0.8835156559944153,0.978503942489624,1.0023958683013916
1772556147435089700,1.054089599609375,-1.237789511680603,0.7899136543273926,0.305199533700943
1772556147445020700,1.064020751953125,-1.6376628875732422,0.47070741653442383,-0.43515127897262573
1772556147454952700,1.07395263671875,-1.9441806077957153,0.13994163274765015,-1.1255942583084106
1772556147464883500,1.083883544921875,-2.0412070751190186,-0.13316819071769714,-1.6653385162353516
1772556147474814700,1.093814697265625,-1.8880095481872559,-0.34418565034866333,-2.017461061477661
1772556147484745700,1.103745849609375,-1.5628106594085693,-0.5064730644226074,-2.2689337730407715
1772556147494676500,1.113676513671875,-1.189805030822754,-0.6834854483604431,-2.4458234310150146
1772556147504607700,1.123607666015625,-0.8325475454330444,-0.8233203291893005,-2.5386435985565186
1772556147514538800,1.133538818359375,-0.5264131426811218,-0.9186558127403259,-2.4962029457092285
1772556147524470500,1.143470458984375,-0.1684616357088089,-0.6463968753814697,-2.5490543842315674
1772556147534401500,1.153401611328125,0.15122251212596893,-0.2548932433128357,-2.5945780277252197
1772556147544332800,1.163332763671875,0.36362290382385254,0.19626222550868988,-2.444293260574341
1772556147554263600,1.173263671875,0.5295850038528442,0.48121973872184753,-2.2738068103790283
1772556147564194600,1.183194580078125,0.8548840284347534,0.5980942249298096,-2.1703100204467773
1772556147574125800,1.193125732421875,1.2454447746276855,0.7872419357299805,-1.9159590005874634
1772556147584056600,1.203056640625,1.552557349205017,1.0165395736694336,-1.6018301248550415
1772556147593987600,1.212987548828125,1.7636114358901978,1.056365966796875,-1.4246844053268433
1772556147603918600,1.222918701171875,1.8670450448989868,0.9082123637199402,-1.349761724472046
1772556147613850600,1.2328505859375,1.8605656623840332,0.49424123764038086,-1.3015347719192505
1772556147623781600,1.24278173828125,1.8078609704971313,-0.16181811690330505,-1.1685903072357178
1772556147633713000,1.252712890625,1.7519207000732422,-0.816960334777832,-0.871342658996582
1772556147643643600,1.2626435546875,1.7441612482070923,-1.238973617553711,-0.5171827077865601
1772556147653574700,1.27257470703125,1.8155806064605713,-1.275272011756897,-0.33598148822784424
1772556147663505700,1.282505615234375,1.9216886758804321,-0.9783404469490051,-0.37927091121673584
1772556147673436700,1.292436767578125,1.9909539222717285,-0.6501407027244568,-0.5677604675292969
1772556147683368700,1.30236865234375,1.9799699783325195,-0.525572657585144,-0.8033125400543213
1772556147693299700,1.3122998046875,1.9548989534378052,-0.6481198072433472,-0.983356773853302
1772556147703230700,1.322230712890625,1.991910457611084,-0.913841724395752,-1.0431369543075562
1772556147713161700,1.33216162109375,2.0075061321258545,-1.2620489597320557,-0.9615318775177002
1772556147723092500,1.342092529296875,1.9012209177017212,-1.711913824081421,-0.7819951176643372
1772556147733023700,1.352023681640625,1.6323353052139282,-2.165078639984131,-0.5320049524307251
1772556147742954800,1.361954833984375,1.2332160472869873,-2.4565539360046387,-0.22987410426139832
1772556147752885500,1.371885498046875,0.8450894355773926,-2.359375476837158,0.058298297226428986
1772556147762817500,1.381817626953125,0.545886754989624,-1.8200185298919678,0.2968887686729431
1772556147772748800,1.391748779296875,0.2958640158176422,-1.0200562477111816,0.5159268975257874
1772556147782679600,1.401679443359375,0.07187672704458237,-0.19441242516040802,0.7172898054122925
1772556147792610600,1.411610595703125,-0.14403115212917328,0.43416520953178406,0.8733970522880554
1772556147802541800,1.421541748046875,-0.3717609643936157,0.7809956073760986,0.8843812346458435
1772556147812472600,1.43147265625,-0.6038755774497986,0.8366331458091736,0.739224374294281
1772556147822403600,1.441403564453125,-0.8277139663696289,0.6511902809143066,0.5105594992637634
1772556147832334800,1.4513349609375,-1.0148483514785767,0.3051227629184723,0.264445960521698
1772556147842266600,1.4612666015625,-1.1168452501296997,-0.07881371676921844,0.01554320752620697
1772556147852197600,1.47119775390625,-1.1259117126464844,-0.38683369755744934,-0.21729743480682373
1772556147862128600,1.481128662109375,-1.047397255897522,-0.577656090259552,-0.4213760197162628
1772556147872059600,1.4910595703125,-0.9878820776939392,-0.7334662675857544,-0.607917308807373
1772556147881990700,1.50099072265625,-0.9522311687469482,-0.8127447962760925,-0.8004928827285767
1772556147891921700,1.510921630859375,-0.930382490158081,-0.8249906897544861,-0.9243250489234924
1772556147901852700,1.520852783203125,-0.8977531790733337,-0.7784261107444763,-0.9603200554847717
1772556147911783700,1.53078369140625,-0.8660343289375305,-0.6598451137542725,-0.9458717107772827
1772556147921715700,1.5407158203125,-0.7988536953926086,-0.45628294348716736,-0.9105797410011292
1772556147931646500,1.550646484375,-0.7170991897583008,-0.12978199124336243,-0.8835882544517517
1772556147941577700,1.56057763671875,-0.6142135858535767,0.2933679223060608,-0.8885830044746399
1772556147951508700,1.5705087890625,-0.5049893856048584,0.7268146872520447,-0.8762112259864807
1772556147961439500,1.580439453125,-0.4033013880252838,1.0647189617156982,-0.8023154139518738
1772556147971370800,1.590370849609375,-0.3586733937263489,1.2216920852661133,-0.6782875657081604
1772556147981301800,1.6003017578125,-0.41385355591773987,1.2174235582351685,-0.5369656085968018
1772556147991232500,1.610232421875,-0.5425105094909668,1.113587498664856,-0.38077229261398315
1772556148001163800,1.620163818359375,-0.7062349915504456,0.997768759727478,-0.23509232699871063
1772556148011095800,1.630095703125,-0.7916094660758972,1.0462160110473633,-0.17608678340911865
1772556148021026600,1.640026611328125,-0.6792839765548706,1.3862643241882324,-0.3163706660270691
1772556148030957800,1.649957763671875,-0.402885764837265,1.9573962688446045,-0.6835072636604309
1772556148040888600,1.659888671875,-0.049303483217954636,2.688366651535034,-1.1436519622802734
1772556148050819600,1.669819580078125,0.35870301723480225,3.29966139793396,-1.4013431072235107
1772556148060750800,1.679750732421875,0.8340356945991516,3.3799242973327637,-1.2355575561523438
1772556148070681600,1.689681640625,1.5089337825775146,2.755619525909424,-0.7592554688453674
1772556148080613600,1.699613525390625,2.230717420578003,2.0275278091430664,-0.3857857882976532
1772556148090544600,1.709544677734375,2.6068131923675537,1.4836556911468506,-0.5022945404052734
1772556148100475600,1.7194755859375,2.517300844192505,0.743937611579895,-0.9671746492385864
1772556148110406700,1.72940673828125,2.1899476051330566,-0.48050111532211304,-1.4318307638168335
1772556148120337700,1.739337646484375,1.8073407411575317,-1.865095615386963,-1.5822632312774658
1772556148130268700,1.7492685546875,1.3979449272155762,-2.9520339965820312,-1.3256639242172241
1772556148140199700,1.75919970703125,1.0424054861068726,-3.4810757637023926,-0.7257802486419678
1772556148150130700,1.769130615234375,0.8447020649909973,-3.3191428184509277,0.06112772226333618
1772556148160061700,1.779061767578125,0.7724129557609558,-2.61840558052063,0.9346296191215515
1772556148169993700,1.78899365234375,0.744490921497345,-1.6124824285507202,1.7754215002059937
1772556148179924700,1.7989248046875,0.7183427214622498,-0.556577742099762,2.4208669662475586
1772556148189855500,1.80885546875,0.6790914535522461,0.2681013345718384,2.779571533203125
1772556148199786800,1.818786865234375,0.6651708483695984,0.7650549411773682,2.8847055435180664
1772556148209717800,1.8287177734375,0.702251672744751,0.9425510168075562,2.805145025253296
1772556148219648500,1.8386484375,0.7926353216171265,0.7782749533653259,2.5874814987182617
1772556148229579800,1.848579833984375,0.8950871229171753,0.369005024433136,2.2772533893585205
1772556148239510800,1.8585107421875,0.9627141356468201,-0.17611049115657806,1.9049458503723145
1772556148249442600,1.868442626953125,0.8986997008323669,-0.6453362703323364,1.5452502965927124
1772556148259373600,1.87837353515625,0.6819937229156494,-0.910761296749115,1.2714866399765015
1772556148269304800,1.888304931640625,0.3522373139858246,-0.9289801120758057,1.1045892238616943
1772556148279235600,1.898235595703125,-0.010973403230309486,-0.7123183608055115,1.0047084093093872
1772556148289166600,1.90816650390625,-0.3750227093696594,-0.3082135319709778,0.9091160297393799
1772556148299097900,1.918097900390625,-0.703490674495697,0.14227190613746643,0.8086749315261841
1772556148309028600,1.928028564453125,-0.9831128716468811,0.5225407481193542,0.6839506030082703
1772556148318959600,1.937959716796875,-1.2026093006134033,0.7073372602462769,0.5757258534431458
1772556148328891600,1.9478916015625,-1.356441855430603,0.6322733163833618,0.5153955817222595
1772556148338822700,1.95782275390625,-1.4362200498580933,0.27491331100463867,0.46668022871017456
1772556148348753700,1.967753662109375,-1.4318405389785767,-0.26492345333099365,0.3722676634788513
1772556148358684700,1.9776845703125,-1.3172751665115356,-0.858896791934967,0.16698269546031952
1772556148368615700,1.98761572265625,-1.1559540033340454,-1.3673229217529297,-0.12110324203968048
1772556148378546700,1.997546630859375,-1.002140998840332,-1.6609370708465576,-0.4339199960231781
1772556148388477400,2.0074775390625,-0.8640475869178772,-1.7394969463348389,-0.7348641753196716
1772556148398409000,2.017408935546875,-0.7594476938247681,-1.6591717004776,-1.0171784162521362
1772556148408341000,2.027341064453125,-0.7186681628227234,-1.492313027381897,-1.24832022190094
1772556148418271700,2.037271728515625,-0.7509147524833679,-1.330683946609497,-1.4187747240066528
1772556148428202800,2.04720263671875,-0.8115652799606323,-1.2582001686096191,-1.5295037031173706
1772556148438134000,2.057134033203125,-0.9130668640136719,-1.2408549785614014,-1.597273349761963
1772556148448064800,2.067064697265625,-1.0732263326644897,-1.2024694681167603,-1.6184417009353638
1772556148457995800,2.076995849609375,-1.2659263610839844,-1.1668020486831665,-1.6043038368225098
1772556148467927000,2.086927001953125,-1.4436148405075073,-1.0886093378067017,-1.5340701341629028
1772556148477857800,2.09685791015625,-1.4913840293884277,-0.9079878926277161,-1.405564308166504
1772556148487789800,2.106789794921875,-1.4068742990493774,-0.5823256373405457,-1.2471245527267456
1772556148497720800,2.116720947265625,-1.2996631860733032,-0.049331530928611755,-1.1606661081314087
1772556148507651800,2.12665185546875,-1.1847450733184814,0.6825193166732788,-1.2455967664718628
1772556148517582800,2.136582763671875,-0.990975558757782,1.517793893814087,-1.4650806188583374
1772556148527513900,2.146513916015625,-0.7351117134094238,2.0571072101593018,-1.6215492486953735
1772556148537444900,2.15644482421875,-0.4659995138645172,2.179030656814575,-1.6637159585952759
1772556148547375900,2.1663759765625,-0.14623624086380005,2.051539182662964,-1.7038270235061646
1772556148557307000,2.176306884765625,0.23987950384616852,1.71955406665802,-1.776788353919983
1772556148567239000,2.186239013671875,0.5770988464355469,1.1627318859100342,-1.8417595624923706
1772556148577170000,2.196169921875,0.8392998576164246,0.46968498826026917,-1.946757435798645
1772556148587101000,2.206100830078125,1.098766803741455,-0.15920884907245636,-2.00605845451355
1772556148597032000,2.216031982421875,1.3592584133148193,-0.5135051608085632,-1.8940510749816895
1772556148606963000,2.225962890625,1.4646960496902466,-0.5670928955078125,-1.574751377105713
1772556148616893700,2.235893798828125,1.2890403270721436,-0.3236471712589264,-1.1512908935546875
1772556148626825000,2.245824951171875,0.9479113221168518,-0.08655905723571777,-0.5930189490318298
1772556148636756000,2.255755859375,0.6511140465736389,0.0726897194981575,0.15567313134670258
1772556148646686700,2.265686767578125,0.5144700407981873,0.2565598487854004,0.9937999844551086
1772556148656618800,2.27561865234375,0.5376831889152527,0.40996217727661133,1.737371802330017
1772556148666550000,2.285550048828125,0.6999152302742004,0.45637381076812744,2.180487871170044
1772556148676480800,2.295480712890625,0.8990808129310608,0.49011287093162537,2.127098560333252
1772556148686411800,2.305411865234375,0.9363215565681458,0.7646023631095886,1.5718551874160767
1772556148696343000,2.315343017578125,0.7308432459831238,1.1563503742218018,0.8111267685890198
1772556148706273800,2.325273681640625,0.3449982702732086,1.3299100399017334,0.22576753795146942
1772556148716204800,2.335204833984375,-0.061905600130558014,1.1590187549591064,0.07277213037014008
1772556148726136000,2.345135986328125,-0.3670452833175659,0.6201878786087036,0.39033859968185425
1772556148736067800,2.35506787109375,-0.5599915981292725,0.0934353694319725,0.9104419350624084
1772556148745998800,2.364998779296875,-0.6440464854240417,-0.11790469288825989,1.3913776874542236
1772556148755929900,2.374929931640625,-0.6314244270324707,-0.010240284726023674,1.7775545120239258
1772556148765860900,2.38486083984375,-0.6044415831565857,0.29027408361434937,2.021718978881836
1772556148775791900,2.3947919921875,-0.5395038723945618,0.576694667339325,2.063849449157715
1772556148785723000,2.404722900390625,-0.35936465859413147,0.689916729927063,1.9084196090698242
1772556148795654000,2.41465380859375,-0.08720610290765762,0.5719668865203857,1.6154694557189941
1772556148805585000,2.4245849609375,0.19341428577899933,0.2353658825159073,1.3275235891342163
1772556148815517000,2.434516845703125,0.3206081986427307,-0.2733716368675232,1.1608744859695435
1772556148825447700,2.44444775390625,0.30761975049972534,-0.8510419726371765,1.0729050636291504
1772556148835379000,2.45437890625,0.213466078042984,-1.3334617614746094,1.002974033355713
1772556148845310000,2.46431005859375,0.1312599927186966,-1.5362454652786255,0.8827284574508667
1772556148855240700,2.47424072265625,0.16316039860248566,-1.4435285329818726,0.6678531765937805
1772556148865172000,2.484171875,0.3459431827068329,-1.0881571769714355,0.39384788274765015
1772556148875102700,2.494102783203125,0.6337875127792358,-0.5998988151550293,0.1004205197095871
1772556148885033700,2.50403369140625,0.9398241639137268,-0.1940569281578064,-0.2012597620487213
1772556148894965800,2.5139658203125,1.167503833770752,-0.08010160177946091,-0.5370857119560242
1772556148904897000,2.52389697265625,1.2267837524414062,-0.2585625648498535,-0.9245972037315369
1772556148914827800,2.533827880859375,1.1123794317245483,-0.5779455900192261,-1.350569486618042
1772556148924758800,2.5437587890625,0.8716126084327698,-0.937724232673645,-1.6756575107574463
1772556148934689800,2.553689697265625,0.5347133874893188,-1.3096297979354858,-1.7972768545150757
1772556148944620800,2.563620849609375,0.1581057906150818,-1.5049405097961426,-1.7453712224960327
1772556148954551800,2.5735517578125,-0.1591363400220871,-1.4712883234024048,-1.5819863080978394
1772556148964482800,2.58348291015625,-0.3947899341583252,-1.329193353652954,-1.3050004243850708
1772556148974413800,2.593413818359375,-0.5821353197097778,-1.1008546352386475,-0.9652611613273621
1772556148984345900,2.603345947265625,-0.7386466264724731,-0.857509970664978,-0.6752191185951233
1772556148994276900,2.61327685546875,-0.8142518997192383,-0.8429334163665771,-0.34583166241645813
1772556149004207900,2.623207763671875,-0.7828624844551086,-1.0392173528671265,0.01878245733678341
1772556149014139000,2.633138916015625,-0.7166083455085754,-1.0143072605133057,0.2535147964954376
1772556149024070000,2.64306982421875,-0.7636867761611938,-0.8395556807518005,0.39194464683532715
1772556149034001000,2.6530009765625,-0.871268093585968,-0.6514808535575867,0.5004751086235046
1772556149043932000,2.662931884765625,-0.7776386141777039,-0.5870611667633057,0.5617865324020386
1772556149053863000,2.67286279296875,-0.34231531620025635,-0.478586882352829,0.6261011362075806
1772556149063795000,2.682794921875,0.3097599744796753,0.044406257569789886,0.6585575938224792
1772556149073726000,2.692725830078125,0.9236865639686584,1.0496151447296143,0.5588608384132385
1772556149083656700,2.70265673828125,1.2507801055908203,2.0665507316589355,0.4656122028827667
1772556149093588000,2.712587890625,1.1144368648529053,2.858004570007324,0.3269789516925812
1772556149103519000,2.72251904296875,0.6618627905845642,3.1673028469085693,-0.025653354823589325
1772556149113449700,2.73244970703125,0.16537554562091827,2.617042064666748,-0.512729823589325
1772556149123381000,2.742381103515625,-0.32589805126190186,1.4760950803756714,-0.9727572202682495
1772556149133312000,2.75231201171875,-0.7881815433502197,0.28523021936416626,-1.3536003828048706
1772556149143243800,2.762243896484375,-1.0276100635528564,-0.6534876227378845,-1.6293916702270508
1772556149153174800,2.7721748046875,-0.8435918092727661,-0.9937325716018677,-1.7715033292770386
1772556149163106000,2.78210595703125,-0.45972537994384766,-0.7859665751457214,-1.5902762413024902
1772556149173036800,2.792036865234375,-0.18458035588264465,-0.39545124769210815,-1.0288467407226562
1772556149182967800,2.8019677734375,-0.10340730100870132,0.0458405502140522,-0.35257688164711
1772556149192899000,2.811899169921875,-0.07170982658863068,0.4737655520439148,0.12119283527135849
1772556149202829800,2.821829833984375,-0.0423809178173542,0.790050208568573,0.30445390939712524
1772556149212760800,2.8317607421875,-0.06414533406496048,0.8273205757141113,0.32534080743789673
1772556149222692900,2.84169287109375,-0.1348802000284195,0.60929936170578,0.31426411867141724
1772556149232623900,2.851623779296875,-0.20739780366420746,0.2756202220916748,0.2757476270198822
1772556149242555000,2.861554931640625,-0.21687041223049164,-0.021788017824292183,0.20432402193546295
1772556149252486000,2.87148583984375,-0.15629254281520844,-0.16035547852516174,0.11725810915231705
1772556149262417000,2.8814169921875,-0.08759909123182297,-0.22192738950252533,0.09657984226942062
1772556149272348000,2.891347900390625,-0.06957987695932388,-0.24835100769996643,0.182429239153862
1772556149282278700,2.901278564453125,-0.11699780821800232,-0.2763446569442749,0.331961989402771
1772556149292210000,2.9112099609375,-0.22430136799812317,-0.35834527015686035,0.5040101408958435
1772556149302142000,2.921141845703125,-0.3715001940727234,-0.4691042900085449,0.6597671508789062
1772556149312073000,2.931072998046875,-0.5433276295661926,-0.604105532169342,0.786497950553894
1772556149322004000,2.94100390625,-0.727869987487793,-0.7690726518630981,0.895321786403656
1772556149331935000,2.95093505859375,-0.9274193048477173,-0.9449766278266907,1.0269386768341064
1772556149341865700,2.96086572265625,-1.083780288696289,-1.1394014358520508,1.1926285028457642
1772556149351797000,2.970796875,-1.1507736444473267,-1.3111196756362915,1.3922382593154907
1772556149361728000,2.98072802734375,-1.1570369005203247,-1.4112719297409058,1.5912359952926636
1772556149371658800,2.99065869140625,-1.1267197132110596,-1.3832623958587646,1.7560880184173584
1772556149381590000,3.000590087890625,-1.0420702695846558,-1.2168807983398438,1.8384584188461304
1772556149391522000,3.01052197265625,-0.8715424537658691,-0.9251115918159485,1.7962234020233154
1772556149401452800,3.020452880859375,-0.6412515640258789,-0.5397891998291016,1.5932233333587646
1772556149411383800,3.0303837890625,-0.3971291780471802,-0.10965324938297272,1.2310667037963867
1772556149421315000,3.040315185546875,-0.20932480692863464,0.27863040566444397,0.7617756128311157
1772556149431245800,3.050245849609375,-0.10982245206832886,0.5450847148895264,0.2801280617713928
1772556149441176800,3.0601767578125,-0.08143261820077896,0.6110566258430481,-0.09026186913251877
1772556149451108000,3.070108154296875,-0.1523725539445877,0.4669945240020752,-0.2648312747478485
1772556149461039900,3.080039794921875,-0.32427239418029785,0.07882178574800491,-0.20793166756629944
1772556149470971000,3.089970947265625,-0.48419204354286194,-0.5535399317741394,-0.03084104135632515
1772556149480902000,3.09990185546875,-0.48829221725463867,-1.1882691383361816,0.12369105219841003
1772556149490833000,3.1098330078125,-0.18242602050304413,-1.4531276226043701,0.11744008213281631
1772556149500764000,3.119763916015625,0.5285022258758545,-1.143489122390747,-0.22623074054718018
1772556149510695000,3.12969482421875,1.4046462774276733,-0.5309186577796936,-0.8808029890060425
1772556149520626000,3.1396259765625,1.9114437103271484,-0.1473042219877243,-1.5656968355178833
1772556149530557000,3.149556884765625,1.7405552864074707,-0.2957831621170044,-2.057605266571045
1772556149540487700,3.15948779296875,1.0071487426757812,-0.9978931546211243,-2.3160383701324463
1772556149550419700,3.169419677734375,0.04605065658688545,-1.9333759546279907,-2.3850481510162354
1772556149560351000,3.17935107421875,-0.8310949206352234,-2.7137718200683594,-2.277224063873291
1772556149570282000,3.189281982421875,-1.3532646894454956,-2.912976026535034,-2.1052732467651367
1772556149580212700,3.199212646484375,-1.4677716493606567,-2.196260690689087,-1.9348795413970947
1772556149590144000,3.20914404296875,-1.3872514963150024,-0.4922269880771637,-1.762017011642456
1772556149600074800,3.21907470703125,-1.0922244787216187,1.8358545303344727,-1.7401920557022095
1772556149610005800,3.229005859375,-0.5045037269592285,4.001375198364258,-1.9416381120681763
1772556149619937000,3.23893701171875,-0.05226358771324158,5.282410621643066,-2.338404893875122
1772556149629867800,3.24886767578125,-0.08414988219738007,5.149820804595947,-2.8498237133026123
1772556149639799800,3.2587998046875,-0.5662223696708679,3.818051815032959,-3.3962769508361816
1772556149649730800,3.268730712890625,-1.0521656274795532,1.8805946111679077,-3.82157564163208
1772556149659661800,3.278661865234375,-1.1597321033477783,0.15686938166618347,-4.0233473777771
1772556149669592800,3.2885927734375,-0.8512657880783081,-0.9089851975440979,-3.8765833377838135
1772556149679523800,3.29852392578125,-0.38112443685531616,-1.0823196172714233,-3.2620015144348145
1772556149689454800,3.308454833984375,0.044287048280239105,-0.4410357177257538,-2.1988589763641357
1772556149699385900,3.3183857421875,0.33121606707572937,0.5424938201904297,-0.8775589466094971
1772556149709318000,3.32831787109375,0.43276506662368774,1.307352066040039,0.4721122086048126
1772556149719249000,3.338248779296875,0.3802785575389862,1.5888237953186035,1.623399019241333
1772556149729180000,3.348179931640625,0.2187381386756897,1.413945198059082,2.4130361080169678
1772556149739111000,3.35811083984375,-0.07739053666591644,0.8805983066558838,2.892855167388916
1772556149749042000,3.3680419921875,-0.40917569398880005,0.13166390359401703,3.1335947513580322
1772556149758973000,3.377972900390625,-0.596744954586029,-0.531489372253418,3.1558785438537598
1772556149768904000,3.387904052734375,-0.5939281582832336,-0.90179044008255,3.0188870429992676
1772556149778835000,3.3978349609375,-0.483755886554718,-1.0209274291992188,2.833463668823242
1772556149788766000,3.407765869140625,-0.3987523019313812,-1.0977671146392822,2.6359732151031494
1772556149798698000,3.417697998046875,-0.4435925781726837,-1.215300440788269,2.4168927669525146
1772556149808628700,3.427628662109375,-0.6068440675735474,-1.3769913911819458,2.2228572368621826
1772556149818560000,3.43756005859375,-0.8025751113891602,-1.5634948015213013,2.0825483798980713
1772556149828491000,3.447490966796875,-0.9681041240692139,-1.673415184020996,1.9763715267181396
1772556149838421800,3.457421875,-1.029232144355774,-1.660619854927063,1.8263071775436401
1772556149848353000,3.46735302734375,-0.9915635585784912,-1.4831113815307617,1.628846287727356
1772556149858283800,3.47728369140625,-0.911653995513916,-1.1889753341674805,1.4312825202941895
1772556149868214800,3.48721484375,-0.7827079892158508,-0.8019943833351135,1.2296687364578247
1772556149878146800,3.497146728515625,-0.6204596161842346,-0.484985888004303,1.0397285223007202
1772556149888078000,3.507078125,-0.4709550440311432,-0.42841050028800964,0.8830385208129883
1772556149898008800,3.5170087890625,-0.3333112895488739,-0.5098617672920227,0.6852082014083862
1772556149907939800,3.52693994140625,-0.17002460360527039,-0.6466031074523926,0.3546696901321411
1772556149917870800,3.536870849609375,0.007967481389641762,-0.8124728202819824,-0.09446729719638824
1772556149927801900,3.5468017578125,0.14799915254116058,-0.9131757616996765,-0.5868679285049438
1772556149937732900,3.55673291015625,0.21321915090084076,-0.9391555190086365,-1.0123469829559326
1772556149947664000,3.566663818359375,0.12660542130470276,-0.7552810311317444,-1.3242048025131226
1772556149957596000,3.576595947265625,-0.09014885872602463,-0.3555762767791748,-1.4524388313293457
1772556149967527000,3.58652685546875,-0.333221435546875,0.25566366314888,-1.410731554031372
1772556149977457700,3.596457763671875,-0.492343932390213,1.0027698278427124,-1.2648731470108032
1772556149987389000,3.606388916015625,-0.4821919798851013,1.6888397932052612,-1.0828380584716797
1772556149997320000,3.61631982421875,-0.3774953782558441,2.0818421840667725,-1.0016850233078003
1772556150007250700,3.626250732421875,-0.22296570241451263,2.045473575592041,-1.1575566530227661
1772556150017182000,3.636181884765625,-0.036424968391656876,1.6751173734664917,-1.5257420539855957
1772556150027113000,3.646113037109375,0.12771841883659363,1.2548987865447998,-2.07635498046875
1772556150037044700,3.656044677734375,0.4187285602092743,1.1431567668914795,-2.8482141494750977
1772556150046975700,3.665975830078125,0.9143760800361633,1.5217552185058594,-3.7978897094726562
1772556150056907000,3.675906982421875,1.4999486207962036,2.2184574604034424,-4.923814296722412
1772556150066837800,3.685837646484375,2.095174551010132,2.7684779167175293,-6.387574195861816
1772556150076768800,3.695768798828125,2.589738368988037,2.7440693378448486,-8.211831092834473
1772556150086700000,3.705699951171875,2.6121578216552734,1.9824076890945435,-9.749347686767578
1772556150096630800,3.715630859375,2.208256483078003,0.35411107540130615,-10.1173095703125
1772556150106561800,3.725561767578125,1.7382423877716064,-1.3823820352554321,-9.294703483581543
1772556150116493800,3.735493896484375,1.4453450441360474,-1.6033357381820679,-7.502753734588623
1772556150126424800,3.7454248046875,1.1624470949172974,-0.33935534954071045,-4.422796726226807
1772556150136355800,3.75535595703125,0.8461799621582031,1.1719902753829956,-0.4890560805797577
1772556150146286800,3.765286865234375,0.63151615858078,1.933924674987793,2.9152822494506836
1772556150156217900,3.7752177734375,0.38073018193244934,1.6753458976745605,4.977668285369873
1772556150166148900,3.78514892578125,0.025697000324726105,0.6943976879119873,5.613547325134277
1772556150176080000,3.795079833984375,-0.23656108975410461,-0.6188914179801941,5.110389709472656
1772556150186011000,3.805010986328125,-0.3287602663040161,-1.7216148376464844,4.224215984344482
1772556150195942000,3.81494189453125,-0.3203403353691101,-2.3014354705810547,3.666116237640381
1772556150205874000,3.8248740234375,-0.37116196751594543,-2.3319196701049805,3.6526923179626465
1772556150215805000,3.834804931640625,-0.5092313289642334,-2.026737689971924,4.148475646972656
1772556150225736000,3.84473583984375,-0.5538949370384216,-1.5167922973632812,4.988901615142822
1772556150235667000,3.8546669921875,-0.5209600925445557,-0.9065764546394348,5.906144618988037
1772556150245598000,3.864597900390625,-0.45730680227279663,-0.5144405961036682,6.679867267608643
1772556150255529000,3.874529052734375,-0.3460654020309448,-0.5147031545639038,7.194742679595947
1772556150265459700,3.884459716796875,-0.18864434957504272,-0.7134756445884705,7.362155437469482
1772556150275391000,3.894390869140625,-0.11931688338518143,-0.9322258234024048,7.255112171173096
1772556150285323000,3.904322998046875,-0.07120554894208908,-0.9978453516960144,6.92443323135376
1772556150295254000,3.91425390625,-0.09920754283666611,-0.9776379466056824,6.36682653427124
1772556150305184800,3.924184814453125,-0.34725329279899597,-1.158715009689331,5.711431503295898
1772556150315116000,3.934115966796875,-0.6996540427207947,-1.5193846225738525,5.051352024078369
1772556150325046800,3.944046875,-0.8825607299804688,-1.8141905069351196,4.299641132354736
1772556150334977800,3.953977783203125,-0.8065491318702698,-1.9479457139968872,3.442904233932495
1772556150344909000,3.963908935546875,-0.5001857280731201,-1.9568017721176147,2.5618624687194824
1772556150354839800,3.97383984375,-0.0846710056066513,-1.7492867708206177,1.7036126852035522
1772556150364771800,3.983771728515625,0.27711036801338196,-1.342881441116333,0.8329390287399292
1772556150374702800,3.993702880859375,0.46422919631004333,-0.8417200446128845,-0.14542870223522186
1772556150384633900,4.0036337890625,0.3902124762535095,-0.5154929161071777,-1.2238160371780396
1772556150394564900,4.01356494140625,0.16381265223026276,-0.4831456243991852,-2.3623123168945312
1772556150404496400,4.023496337890625,-0.0029502385295927525,-0.42745518684387207,-3.4847888946533203
1772556150414427400,4.033427490234375,-0.09670929610729218,-0.13095034658908844,-4.455188751220703
1772556150424358700,4.043358642578125,-0.13325798511505127,0.2506052553653717,-5.228390693664551
1772556150434289400,4.053289306640625,-0.20275381207466125,0.617961049079895,-5.83491849899292
1772556150444220400,4.063220458984375,-0.2876913249492645,0.9744070172309875,-6.222620964050293
1772556150454152700,4.073152587890625,-0.3695421814918518,1.3340965509414673,-6.263419151306152
1772556150464083500,4.08308349609375,-0.4649379253387451,1.6150189638137817,-5.960479736328125
1772556150474014500,4.093014404296875,-0.4895855188369751,1.6555585861206055,-5.464632511138916
1772556150483945700,4.10294580078125,-0.30532407760620117,1.7184779644012451,-4.908657073974609
1772556150493876500,4.11287646484375,-0.02568124607205391,1.974639654159546,-4.223351955413818
1772556150503807500,4.122807373046875,0.08382021635770798,2.2585346698760986,-3.268340587615967
1772556150513738500,4.132738525390625,0.06351467967033386,2.3908181190490723,-2.2311766147613525
1772556150523669500,4.14266943359375,0.0814630538225174,2.3232648372650146,-1.4486117362976074
1772556150533601500,4.1526015625,0.1970711648464203,1.8265857696533203,-1.0228421688079834
1772556150543532500,4.162532470703125,0.5314366221427917,0.7844488024711609,-0.9396533370018005
1772556150553463600,4.172463623046875,0.9973901510238647,-0.4800487458705902,-1.0055201053619385
1772556150563394600,4.18239453125,1.4407767057418823,-1.4120299816131592,-1.0022145509719849
1772556150573325300,4.1923251953125,1.68354332447052,-1.534665822982788,-0.8258178234100342
1772556150583256600,4.202256591796875,1.9376375675201416,-0.9018979668617249,-0.6358656883239746
1772556150593187600,4.2121875,2.4099538326263428,0.12225526571273804,-0.5898178815841675
1772556150603118300,4.222118408203125,2.7850770950317383,0.9906302690505981,-0.6076666712760925
1772556150613050400,4.23205029296875,2.866079330444336,1.4542944431304932,-0.7482795715332031
1772556150622981600,4.241981689453125,2.550081729888916,1.3240909576416016,-1.2507189512252808
1772556150632912400,4.251912353515625,1.902138113975525,0.724256157875061,-2.0608456134796143
1772556150642843400,4.261843505859375,1.1702008247375488,0.3451248109340668,-2.913329601287842
1772556150652774700,4.271774658203125,0.4880296587944031,0.554056704044342,-3.3492631912231445
1772556150662705400,4.281705322265625,-0.04563915729522705,1.1759843826293945,-3.1219613552093506
1772556150672636400,4.291636474609375,-0.18399862945079803,1.7562975883483887,-2.4189140796661377
1772556150682567700,4.301567626953125,-0.11330274492502213,2.1023356914520264,-1.3977879285812378
1772556150692499500,4.31149951171875,0.016834072768688202,2.0123186111450195,-0.3540598154067993
1772556150702430500,4.321430419921875,0.018852215260267258,1.5064462423324585,0.46137213706970215
1772556150712361500,4.331361572265625,-0.23627886176109314,0.600402295589447,1.1155500411987305
1772556150722292500,4.34129248046875,-0.6181013584136963,-0.25116610527038574,1.722308874130249
1772556150732223500,4.351223388671875,-0.9867415428161621,-0.7626519799232483,2.4009597301483154
1772556150742154500,4.361154541015625,-1.2251663208007812,-0.9344839453697205,3.1358072757720947
1772556150752085500,4.37108544921875,-1.3183848857879639,-0.9098778963088989,3.8537981510162354
1772556150762016500,4.3810166015625,-1.3431503772735596,-0.8801159858703613,4.588352680206299
1772556150771947300,4.390947265625,-1.3537081480026245,-0.8880900144577026,5.291742324829102
1772556150781879600,4.400879638671875,-1.3204247951507568,-0.8878183960914612,5.884335041046143
1772556150791810600,4.410810546875,-1.276279091835022,-0.9278274774551392,6.415222644805908
1772556150801741600,4.420741455078125,-1.190730094909668,-1.0711208581924438,6.903824806213379
1772556150811672600,4.430672607421875,-0.9279063940048218,-1.2627458572387695,7.248246192932129
1772556150821603600,4.440603515625,-0.42872345447540283,-1.4614319801330566,7.3159565925598145
1772556150831534300,4.450534423828125,0.07594674825668335,-1.7354766130447388,7.051548480987549
1772556150841465600,4.460465576171875,0.4827403426170349,-1.9743549823760986,6.438527584075928
1772556150851396600,4.470396728515625,0.6323082447052002,-2.264206886291504,5.629536151885986
1772556150861328600,4.48032861328125,0.45644962787628174,-2.6137197017669678,4.727247714996338
1772556150871259400,4.49025927734375,0.07963364571332932,-2.929150104522705,3.8088667392730713
1772556150881190700,4.500190673828125,-0.2556101381778717,-2.9988274574279785,2.944699764251709
1772556150891121400,4.510121337890625,-0.3495975732803345,-2.6768362522125244,2.136315107345581
1772556150901052400,4.520052490234375,-0.2287347912788391,-2.088336706161499,1.4424189329147339
1772556150910983700,4.529983642578125,-0.04047451540827751,-1.5368940830230713,0.858903169631958
1772556150920914400,4.53991455078125,0.1536683291196823,-1.0703316926956177,0.34201693534851074
1772556150930845400,4.549845458984375,0.31386083364486694,-0.5672633647918701,-0.1550392061471939
1772556150940777500,4.559777587890625,0.40771809220314026,-0.052253250032663345,-0.6280714869499207
1772556150950708500,4.56970849609375,0.34221556782722473,0.30692607164382935,-1.180751085281372
1772556150960639500,4.579639404296875,0.09158226102590561,0.5238986611366272,-1.984988808631897
1772556150970570500,4.589570556640625,-0.27308040857315063,0.6640936732292175,-2.9829764366149902
1772556150980501500,4.59950146484375,-0.6845302581787109,0.8212795257568359,-3.9666051864624023
1772556150990432500,4.6094326171875,-1.0910497903823853,1.0938693284988403,-4.741444110870361
1772556151000363500,4.619363525390625,-1.4967784881591797,1.558264970779419,-5.264230251312256
1772556151010294500,4.62929443359375,-1.8116694688796997,2.059964418411255,-5.57862663269043
1772556151020225500,4.6392255859375,-1.9162994623184204,2.4803171157836914,-5.666480541229248
1772556151030157600,4.649157470703125,-1.8035838603973389,2.8318867683410645,-5.485508441925049
1772556151040088300,4.65908837890625,-1.404807448387146,3.0538244247436523,-5.088425636291504
1772556151050019600,4.66901953125,-0.8084527850151062,3.1893365383148193,-4.680292129516602
1772556151059950600,4.67895068359375,-0.268677681684494,3.046642780303955,-4.433382034301758
1772556151069881300,4.68888134765625,-0.020797938108444214,2.485146999359131,-4.464067459106445
1772556151079812600,4.6988125,-0.07221478968858719,1.5674195289611816,-4.560147762298584
1772556151089743600,4.70874365234375,-0.15834477543830872,0.5577595233917236,-4.326022624969482
1772556151099674400,4.71867431640625,-0.21255582571029663,0.041446346789598465,-3.7116591930389404
1772556151109606400,4.7286064453125,-0.2029861956834793,0.21950970590114594,-3.0025413036346436
1772556151119537700,4.73853759765625,0.03995721787214279,0.9131734371185303,-2.625739574432373
1772556151129468400,4.748468505859375,0.5798376202583313,1.5059272050857544,-2.6901657581329346
1772556151139399400,4.7583994140625,1.003273844718933,1.5172594785690308,-2.8450522422790527
1772556151149330700,4.76833056640625,1.0223469734191895,0.8366334438323975,-2.8125736713409424
1772556151159261400,4.778261474609375,0.608970582485199,-0.027497638016939163,-2.4728758335113525
1772556151169192400,4.7881923828125,-0.0952073261141777,-0.6310362815856934,-1.79341721534729
1772556151179123500,4.79812353515625,-0.7657026052474976,-0.7128206491470337,-1.1966379880905151
1772556151189055500,4.808055419921875,-0.9369059801101685,-0.2791377902030945,-1.1729110479354858
1772556151198986500,4.817986572265625,-0.6980881094932556,0.2848441004753113,-1.499258279800415
1772556151208917500,4.82791748046875,-0.45051777362823486,0.5666928291320801,-1.661304235458374
1772556151218848500,4.8378486328125,-0.3775186836719513,0.5159934163093567,-1.428196907043457
1772556151228779500,4.847779541015625,-0.5051184296607971,0.2065107524394989,-0.6336034536361694
1772556151238710500,4.85771044921875,-0.7296585440635681,-0.4635418951511383,0.8422352075576782
1772556151248641500,4.8676416015625,-0.8141071796417236,-0.9768902659416199,2.472275495529175
1772556151258572500,4.877572509765625,-0.6961795091629028,-0.9706193208694458,3.713745594024658
1772556151268504300,4.88750439453125,-0.4841681122779846,-0.7507339119911194,4.520664215087891
1772556151278435600,4.897435546875,-0.2504781484603882,-0.7110000848770142,5.077427864074707
1772556151288366600,4.90736669921875,-0.010660787113010883,-0.8542445302009583,5.503512382507324
1772556151298297300,4.91729736328125,0.19152773916721344,-1.0746726989746094,5.919924736022949
1772556151308228600,4.927228515625,0.31757351756095886,-1.303873062133789,6.416147708892822
1772556151318159600,4.93715966796875,0.4942774474620819,-1.4532530307769775,6.948620319366455
1772556151328090400,4.94709033203125,0.7908926606178284,-1.3621488809585571,7.396785736083984
1772556151338021600,4.957021728515625,1.2878379821777344,-1.1640987396240234,7.746371269226074
1772556151347953700,4.96695361328125,1.9378678798675537,-0.9231590032577515,7.926193714141846
1772556151357884400,4.976884521484375,2.420537233352661,-0.93985515832901,7.748993873596191
1772556151367815400,4.9868154296875,2.337930202484131,-1.2679698467254639,7.0530924797058105
1772556151377746700,4.99674658203125,1.6944398880004883,-1.7761560678482056,5.77040433883667
1772556151387677400,5.006677490234375,0.9095516800880432,-2.254077196121216,4.055368423461914
1772556151397608400,5.0166083984375,0.22968365252017975,-2.528949737548828,2.3642795085906982
1772556151407539200,5.026539306640625,-0.23132073879241943,-2.5447328090667725,1.0920977592468262
1772556151417470000,5.036469970703125,-0.43659186363220215,-2.298288345336914,0.27217379212379456
1772556151427401000,5.04640087890625,-0.4501418471336365,-1.7823400497436523,-0.2304864078760147
1772556151437333000,5.0563330078125,-0.4103928506374359,-1.0433239936828613,-0.5830151438713074
1772556151447264000,5.066263916015625,-0.35779985785484314,-0.2729053497314453,-0.979436457157135
1772556151457195000,5.076195068359375,-0.311186820268631,0.41190630197525024,-1.5355937480926514
1772556151467126000,5.0861259765625,-0.33659055829048157,0.7518252730369568,-2.1591989994049072
1772556151477057000,5.09605712890625,-0.39579370617866516,0.7613812685012817,-2.8710057735443115
1772556151486988000,5.105988037109375,-0.46128392219543457,0.6477582454681396,-3.735590934753418
1772556151496919000,5.1159189453125,-0.5357259511947632,0.4879528880119324,-4.678682327270508
1772556151506850000,5.12585009765625,-0.6456968188285828,0.2727513015270233,-5.513301849365234
1772556151516782000,5.135781982421875,-0.8526577353477478,0.13151134550571442,-6.043140411376953
1772556151526713000,5.145713134765625,-1.1039601564407349,0.16856922209262848,-6.154417514801025
1772556151536644000,5.15564404296875,-1.3004224300384521,0.38855215907096863,-5.753334999084473
1772556151546575000,5.1655751953125,-1.3349051475524902,0.7816919088363647,-4.866399765014648
1772556151556506000,5.175506103515625,-1.0444978475570679,1.116929292678833,-3.665689468383789
1772556151566437000,5.18543701171875,-0.41972631216049194,1.354354977607727,-2.3975164890289307
1772556151576368000,5.1953681640625,0.3259875476360321,1.7316040992736816,-1.453688383102417
1772556151586299000,5.205298828125,0.9044699668884277,2.0109663009643555,-0.9064081907272339
1772556151596231000,5.21523095703125,1.0890718698501587,1.790493369102478,-0.6007193922996521
1772556151606162200,5.225162109375,0.8432831764221191,1.0252801179885864,-0.3759981095790863
1772556151616093200,5.23509326171875,0.3396165370941162,0.20865082740783691,-0.31861016154289246
1772556151626024000,5.24502392578125,-0.12032210826873779,-0.3423212766647339,-0.44077011942863464
1772556151635955200,5.254955078125,-0.3881085515022278,-0.5550549030303955,-0.5029895305633545
1772556151645886000,5.264885986328125,-0.3753681480884552,-0.31828826665878296,-0.39434945583343506
1772556151655817000,5.27481689453125,0.0005993605591356754,0.13039207458496094,-0.13506516814231873
1772556151665748200,5.284748291015625,0.5551966428756714,0.42990511655807495,0.31041085720062256
1772556151675679000,5.294678955078125,0.94682776927948,0.7077586054801941,0.8635904788970947
1772556151685611000,5.304611083984375,1.0121663808822632,0.9229503273963928,1.18276846408844
1772556151695542000,5.3145419921875,0.7222866415977478,0.9290007948875427,1.197967290878296
1772556151705473000,5.32447314453125,0.04134528711438179,0.7430928945541382,1.0953893661499023
1772556151715404000,5.334404052734375,-0.7539635300636292,0.4911916255950928,0.9912831783294678
1772556151725335000,5.3443349609375,-1.2238483428955078,0.2644912004470825,1.0225050449371338
1772556151735266000,5.35426611328125,-1.156650424003601,0.26894959807395935,1.156852126121521
1772556151745197000,5.364197021484375,-0.7028700709342957,0.39644068479537964,1.4213217496871948
1772556151755128000,5.374128173828125,-0.1870570331811905,0.44115251302719116,1.7899341583251953
1772556151765059800,5.384059814453125,0.11803174763917923,0.43935489654541016,2.09043288230896
1772556151774991000,5.3939912109375,0.1197766587138176,0.36752599477767944,2.150526523590088
1772556151784922000,5.403922119140625,-0.08713424205780029,0.05532306432723999,1.9938623905181885
1772556151794852900,5.413852783203125,-0.279811292886734,-0.35947704315185547,1.7956688404083252
1772556151804784000,5.4237841796875,-0.3591559827327728,-0.7279093861579895,1.7758424282073975
1772556151814715100,5.433715087890625,-0.312483549118042,-0.861391007900238,1.9283989667892456
1772556151824646000,5.44364599609375,-0.17361749708652496,-0.6551153659820557,2.108797073364258
1772556151834577200,5.4535771484375,0.013317512348294258,-0.3627282381057739,2.2111401557922363
1772556151844509200,5.46350927734375,0.21138107776641846,-0.7152271866798401,2.122980833053589
1772556151854440000,5.47343994140625,0.3405526280403137,-1.8963987827301025,1.6084846258163452
1772556151864371000,5.483370849609375,0.46235865354537964,-1.4669806957244873,0.8944633603096008
1772556151874302200,5.49330224609375,0.3925907611846924,-0.7746725678443909,0.4552071690559387
1772556151884233000,5.50323291015625,0.02708205208182335,-0.7316328287124634,0.3345789611339569
1772556151894164000,5.5131640625,-0.32902517914772034,-1.0014734268188477,0.3761013448238373
1772556151904095000,5.523094970703125,-0.5241098403930664,-1.069129467010498,0.4660566747188568
1772556151914026000,5.53302587890625,-0.5239681601524353,-0.8413711786270142,0.5876550078392029
1772556151923958000,5.5429580078125,-0.42864328622817993,-0.5526677370071411,0.779279887676239
1772556151933889000,5.552888916015625,-0.28346771001815796,-0.3730657398700714,0.9537757635116577
1772556151943820000,5.562820068359375,-0.07091417163610458,-0.3082246780395508,1.0695494413375854
1772556151953751000,5.5727509765625,0.193194180727005,-0.4576677083969116,1.173793911933899
1772556151963682000,5.58268212890625,0.41492071747779846,-0.5841070413589478,1.1848169565200806
1772556151973613000,5.592613037109375,0.5714770555496216,-0.7358744740486145,1.1039308309555054
1772556151983544000,5.6025439453125,0.5965330004692078,-0.7424062490463257,1.033882737159729
1772556151993475000,5.61247509765625,0.443254292011261,-0.6083405613899231,0.9494160413742065
1772556152003406000,5.622406005859375,0.17834705114364624,-0.4318869709968567,0.8595675230026245
1772556152013338000,5.632338134765625,-0.08465289324522018,-0.3715458810329437,0.7874427437782288
1772556152023268900,5.642268798828125,-0.17002986371517181,-0.378958135843277,0.6918404698371887
1772556152033200000,5.6522001953125,-0.07415526360273361,-0.3528658151626587,0.5064008831977844
1772556152043131100,5.662131103515625,0.14671051502227783,-0.34606143832206726,0.26343539357185364
1772556152053062000,5.672061767578125,0.47919023036956787,-0.4553152024745941,-0.0220768004655838
1772556152062993200,5.6819931640625,0.8225412368774414,-0.6472683548927307,-0.2829623520374298
1772556152072924200,5.691924072265625,1.0029367208480835,-0.8212425112724304,-0.4516485631465912
1772556152082855000,5.70185498046875,0.9073293209075928,-0.9110206365585327,-0.5052833557128906
1772556152092787000,5.711786865234375,0.5285146236419678,-0.9352335929870605,-0.43407145142555237
1772556152102718200,5.72171826171875,0.009643850848078728,-0.9125081896781921,-0.2502477765083313
1772556152112649000,5.73164892578125,-0.4069496691226959,-0.7309554219245911,-0.03925458341836929
1772556152122580000,5.741580078125,-0.5516267418861389,-0.44208958745002747,0.1754695177078247
1772556152132511200,5.75151123046875,-0.45737960934638977,-0.12602803111076355,0.38815009593963623
1772556152142442000,5.76144189453125,-0.19649747014045715,0.11635859310626984,0.5782769918441772
1772556152152373000,5.771373046875,0.19591398537158966,0.16451199352741241,0.7389186024665833
1772556152162304000,5.781303955078125,0.5923168063163757,0.141627699136734,0.8965050578117371
1772556152172235000,5.791235107421875,0.8154191374778748,0.27202296257019043,0.9595181345939636
1772556152182167000,5.8011669921875,0.7663693428039551,0.6942363977432251,0.8618836402893066
1772556152192098000,5.81109814453125,0.5423048138618469,1.16153085231781,0.6954081058502197
1772556152202029000,5.821029052734375,0.3465798795223236,1.4534850120544434,0.42564839124679565
1772556152211960000,5.8309599609375,0.3077954649925232,1.5911576747894287,-0.06096041947603226
1772556152221890800,5.840890869140625,0.3439750373363495,1.6021168231964111,-0.6323400139808655
1772556152231822000,5.850822021484375,0.3651160001754761,1.4394155740737915,-1.2020008563995361
1772556152241753000,5.860753173828125,0.4226115643978119,0.9832233786582947,-1.7529146671295166
1772556152251683800,5.870683837890625,0.38544636964797974,0.3666091859340668,-2.2427585124969482
1772556152261615900,5.880615966796875,0.10153261572122574,-0.10628891736268997,-2.562845230102539
1772556152271547100,5.890547119140625,-0.2543194890022278,-0.3929518461227417,-2.550337314605713
1772556152281478000,5.900477783203125,-0.5066928863525391,-0.4678904414176941,-2.0366103649139404
1772556152291409000,5.910408935546875,-0.6233637928962708,-0.3699958324432373,-1.0270822048187256
1772556152301340200,5.920340087890625,-0.6107239127159119,-0.19320827722549438,0.24623392522335052
1772556152311271000,5.93027099609375,-0.4299283027648926,-0.017189305275678635,1.37385892868042
1772556152321202000,5.940201904296875,-0.15199100971221924,0.23348532617092133,2.0714316368103027
1772556152331133200,5.95013330078125,0.10243302583694458,0.43494656682014465,2.2803099155426025
1772556152341065000,5.96006494140625,0.22346122562885284,0.4030088186264038,2.0213608741760254
1772556152350996000,5.969995849609375,0.11798754334449768,0.19109764695167542,1.4144338369369507
1772556152360927200,5.97992724609375,-0.21239958703517914,-0.07555250823497772,0.6681676506996155
1772556152370858000,5.98985791015625,-0.6071224212646484,-0.38229355216026306,-0.035445086658000946
1772556152380789000,5.9997890625,-0.8651986122131348,-0.6826283931732178,-0.5163435935974121
1772556152390720300,6.00972021484375,-0.9317129254341125,-0.8448215126991272,-0.6793625950813293
1772556152400651300,6.0196513671875,-0.7602095007896423,-0.7970038652420044,-0.611716628074646
1772556152410582300,6.029582275390625,-0.4359014332294464,-0.46395692229270935,-0.4184281527996063
1772556152420514300,6.039514404296875,-0.1050826907157898,0.034556515514850616,-0.17918473482131958
1772556152430445300,6.0494453125,0.10691983997821808,0.4754108786582947,0.018516086041927338
1772556152440376300,6.059376220703125,0.19350361824035645,0.6576560735702515,0.13052457571029663
1772556152450307300,6.069307373046875,0.20347316563129425,0.5241057276725769,0.15273374319076538
1772556152460238300,6.07923828125,0.1899624913930893,0.12863782048225403,0.07219460606575012
1772556152470169300,6.08916943359375,0.2003738433122635,-0.42798545956611633,-0.037714313715696335
1772556152480100400,6.099100341796875,0.20351678133010864,-1.0159271955490112,-0.06652224063873291
1772556152490031400,6.10903125,0.12857303023338318,-1.385954737663269,0.010178927332162857
1772556152499963400,6.11896337890625,0.035577669739723206,-1.3222402334213257,0.12209527939558029
1772556152509894400,6.128894287109375,0.03627008944749832,-0.9033060669898987,0.1848049908876419
1772556152519825200,6.1388251953125,0.1890055388212204,-0.35480740666389465,0.1795305460691452
1772556152529756400,6.14875634765625,0.4135230779647827,0.06759656220674515,0.09081985801458359
1772556152539687400,6.1586875,0.6061327457427979,0.21729755401611328,-0.08099789917469025
1772556152549618200,6.1686181640625,0.690101683139801,0.07071609795093536,-0.3446601629257202
1772556152559549400,6.178549560546875,0.6803632378578186,-0.28654688596725464,-0.6372149586677551
1772556152569480200,6.188480224609375,0.5464981198310852,-0.5715240240097046,-0.9054182171821594
1772556152579411200,6.1984111328125,0.26588383316993713,-0.6846363544464111,-1.0787007808685303
1772556152589343200,6.20834326171875,-0.08212101459503174,-0.6522189974784851,-1.0678808689117432
1772556152599274500,6.2182744140625,-0.3567240238189697,-0.4284011721611023,-0.9030901193618774
1772556152609205200,6.228205322265625,-0.5256726145744324,-0.09207511693239212,-0.6791523694992065
1772556152619136300,6.23813623046875,-0.5352006554603577,0.08511155098676682,-0.4122469425201416
1772556152629067300,6.2480673828125,-0.427206814289093,0.07137949019670486,-0.1272953599691391
1772556152638998300,6.257998291015625,-0.34392550587654114,0.0020257607102394104,0.15288740396499634
1772556152648929300,6.26792919921875,-0.3642275631427765,-0.06332847476005554,0.4586859345436096
1772556152658860300,6.2778603515625,-0.4361599087715149,-0.15607850253582,0.7891650199890137
1772556152668792300,6.287792236328125,-0.43681663274765015,-0.21440492570400238,1.044575572013855
1772556152678723300,6.297723388671875,-0.2454034686088562,-0.18948602676391602,1.0862529277801514
1772556152688654000,6.307654052734375,0.17893528938293457,-0.1948608160018921,0.8316906094551086
1772556152698585300,6.31758544921875,0.6852843761444092,-0.39359426498413086,0.32699671387672424
1772556152708516400,6.327516357421875,1.09037184715271,-0.6833909153938293,-0.3997029960155487
1772556152718447000,6.337447021484375,1.3485679626464844,-0.8612459897994995,-1.4166115522384644
1772556152728378400,6.34737841796875,1.3290367126464844,-0.8366506099700928,-2.5576789379119873
1772556152738309400,6.357309326171875,0.9236493110656738,-0.4035941958427429,-3.465528726577759
1772556152748241200,6.3672412109375,0.4583643972873688,0.6574243307113647,-4.135777473449707
1772556152758172200,6.377172119140625,0.4217703342437744,2.0737743377685547,-4.786137104034424
1772556152768103400,6.387103515625,0.42522525787353516,2.8312876224517822,-5.4062275886535645
1772556152778034200,6.3970341796875,0.2215222716331482,2.4742584228515625,-5.7168402671813965
1772556152787965200,6.406965087890625,0.1520760953426361,1.5923659801483154,-5.4285502433776855
1772556152797896400,6.416896484375,0.4116140604019165,0.5626233220100403,-4.253255367279053
1772556152807827200,6.4268271484375,0.6739993691444397,0.37326619029045105,-2.501920700073242
1772556152817758200,6.43675830078125,0.80975741147995,0.8362429738044739,-0.4921259880065918
1772556152827690200,6.446690185546875,0.9304133057594299,1.2177919149398804,1.371351957321167
1772556152837621200,6.456621337890625,1.053349494934082,1.3210797309875488,2.684251308441162
1772556152847552300,6.46655224609375,1.0901540517807007,1.138078212738037,3.343221664428711
1772556152857483300,6.476483154296875,0.9762954711914062,0.4983460307121277,3.4261417388916016
1772556152867414300,6.486414306640625,0.7239617705345154,-0.33478423953056335,3.1334924697875977
1772556152877345300,6.49634521484375,0.4295702576637268,-0.9003554582595825,2.7207798957824707
1772556152887276300,6.5062763671875,0.2181011587381363,-1.1308634281158447,2.401259183883667
1772556152897207300,6.516207275390625,0.12814243137836456,-1.0866961479187012,2.3331503868103027
1772556152907139300,6.526139404296875,0.20216898620128632,-0.8631195425987244,2.501931667327881
1772556152917070300,6.5360703125,0.4123486876487732,-0.7178394198417664,2.773498058319092
1772556152927001300,6.54600146484375,0.5602073669433594,-0.7494795918464661,2.9723150730133057
1772556152936932400,6.555932373046875,0.5674713850021362,-0.9388532042503357,2.9448611736297607
1772556152946863000,6.565863037109375,0.4251725375652313,-1.2328449487686157,2.637483835220337
1772556152956794400,6.57579443359375,0.12696416676044464,-1.5315651893615723,2.1764156818389893
1772556152966725400,6.585725341796875,-0.22960913181304932,-1.655604362487793,1.688538908958435
1772556152976656100,6.59565625,-0.5261703133583069,-1.4155926704406738,1.2883609533309937
1772556152986587400,6.60558740234375,-0.6846801042556763,-0.9353914260864258,0.9523445963859558
1772556152996519400,6.61551953125,-0.713330864906311,-0.5032331943511963,0.6459623575210571
1772556153006450200,6.6254501953125,-0.6474666595458984,-0.264575332403183,0.3475881516933441
1772556153016381200,6.635381103515625,-0.5372308492660522,-0.22710314393043518,0.06218195706605911
1772556153026312400,6.6453125,-0.44124335050582886,-0.3214211165904999,-0.28900882601737976
1772556153036243200,6.6552431640625,-0.4052901864051819,-0.3104698956012726,-0.7285004258155823
1772556153046174200,6.66517431640625,-0.4446463882923126,-0.07559186965227127,-1.2532531023025513
1772556153056105500,6.67510546875,-0.4881643056869507,0.3003399968147278,-1.8355414867401123
1772556153066036200,6.6850361328125,-0.4719933271408081,0.633041501045227,-2.4409759044647217
1772556153075968300,6.69496826171875,-0.4122985005378723,0.7669907212257385,-3.0168991088867188
1772556153085899300,6.704899169921875,-0.3561209738254547,0.6171778440475464,-3.5388143062591553
1772556153095830300,6.714830322265625,-0.2782030403614044,0.26737892627716064,-3.978883743286133
1772556153105761300,6.72476123046875,-0.21540890634059906,-0.13667213916778564,-4.318515300750732
1772556153115692300,6.7346923828125,-0.2564711570739746,-0.3099465072154999,-4.453096389770508
1772556153125623300,6.744623291015625,-0.3878856301307678,-0.03298413008451462,-4.3463311195373535
1772556153135554300,6.75455419921875,-0.6109458208084106,0.6066665649414062,-3.978203058242798
1772556153145485300,6.7644853515625,-0.8392665982246399,1.3030130863189697,-3.419635534286499
1772556153155416300,6.774416259765625,-0.8648934960365295,1.7888730764389038,-2.978884696960449
1772556153165348400,6.784348388671875,-0.5547503232955933,2.1244864463806152,-2.89729642868042
1772556153175279400,6.794279296875,-0.05992912873625755,2.2169511318206787,-3.0956265926361084
1772556153185210000,6.804210205078125,0.4055861234664917,2.2791249752044678,-3.5085954666137695
1772556153195141400,6.814141357421875,0.7782109975814819,2.050558090209961,-3.9811899662017822
1772556153205072400,6.824072265625,0.8163756728172302,1.1927326917648315,-4.098548889160156
1772556153215003100,6.834003173828125,0.5134280323982239,-0.003959253430366516,-3.6424560546875
1772556153224934400,6.843934326171875,0.2758895754814148,-1.1600793600082397,-2.6460487842559814
1772556153234865200,6.853865234375,0.2144748419523239,-1.5335417985916138,-1.3579546213150024
1772556153244797200,6.863797119140625,0.11745960265398026,-1.1591157913208008,0.08275051414966583
1772556153254728200,6.873728271484375,-0.1705353856086731,-0.5301344990730286,1.5542265176773071
1772556153264659500,6.883659423828125,-0.4098190665245056,-0.22361372411251068,2.9394102096557617
1772556153274590200,6.893590087890625,-0.2990337908267975,-0.05278562754392624,3.9121270179748535
1772556153284521200,6.903521240234375,0.17055340111255646,0.15177497267723083,3.9918057918548584
1772556153294452200,6.9134521484375,0.672295331954956,-0.18819929659366608,3.3689305782318115
1772556153304383200,6.92338330078125,0.7489957213401794,-1.131179928779602,2.566786766052246
1772556153314314200,6.933314208984375,0.4189858138561249,-2.085252285003662,1.898876428604126
1772556153324246500,6.94324658203125,-0.0430196188390255,-2.506164073944092,1.6201531887054443
1772556153334177300,6.95317724609375,-0.3806506097316742,-2.1819283962249756,1.8180043697357178
1772556153344108300,6.9631083984375,-0.43252047896385193,-1.2949990034103394,2.338247060775757
1772556153354039300,6.973039306640625,-0.23505273461341858,-0.4402938783168793,2.9785702228546143
1772556153363970300,6.98297021484375,-0.014473222196102142,-0.029258647933602333,3.5562164783477783
1772556153373901300,6.9929013671875,0.003199552185833454,-0.13827846944332123,3.9503302574157715
1772556153383832300,7.002832275390625,-0.14608660340309143,-0.5830950736999512,4.064549922943115
1772556153393763300,7.012763427734375,-0.36491402983665466,-1.1616665124893188,3.888315439224243
1772556153403694300,7.0226943359375,-0.6178115010261536,-1.6375484466552734,3.4896864891052246
1772556153413626400,7.03262646484375,-0.8823850750923157,-1.7036889791488647,2.9527666568756104
1772556153423557600,7.0425576171875,-0.9973843693733215,-1.2769101858139038,2.401062250137329
1772556153433488600,7.052488525390625,-0.9321689009666443,-0.5677326321601868,1.8972946405410767
1772556153443419400,7.06241943359375,-0.8235875964164734,-0.05544345825910568,1.3529444932937622
1772556153453350700,7.0723505859375,-0.8084965944290161,-0.06939661502838135,0.7900670766830444
1772556153463281400,7.082281494140625,-0.8640149831771851,-0.47493666410446167,0.29913946986198425
1772556153473212400,7.09221240234375,-0.8817974328994751,-0.8778107166290283,-0.0162337813526392
1772556153483143700,7.102143798828125,-0.8359071612358093,-1.0469118356704712,-0.12175355106592178
1772556153493075700,7.11207568359375,-0.7526718974113464,-1.0798354148864746,-0.06559841334819794
1772556153503006500,7.12200634765625,-0.6554574966430664,-0.9661288261413574,0.07688470184803009
1772556153512937500,7.1319375,-0.5440359711647034,-0.609215497970581,0.1756904572248459
1772556153522868500,7.141868408203125,-0.4095335900783539,-0.05964475870132446,0.18475718796253204
1772556153532799500,7.151799560546875,-0.2763622999191284,0.4405101239681244,0.08340416848659515
1772556153542730500,7.16173046875,-0.09500690549612045,0.7322380542755127,-0.14902693033218384
1772556153552661500,7.17166162109375,0.13249070942401886,0.8146544098854065,-0.5271958112716675
1772556153562592500,7.181592529296875,0.32779574394226074,0.7760822176933289,-1.0132675170898438
1772556153572524500,7.191524658203125,0.44732746481895447,0.7061412930488586,-1.5120651721954346
1772556153582455300,7.201455322265625,0.4768717885017395,0.6886592507362366,-1.980672836303711
1772556153592386600,7.211386474609375,0.4458199739456177,0.6555959582328796,-2.3326210975646973
1772556153602317600,7.221317626953125,0.39928656816482544,0.6532931327819824,-2.520674705505371
1772556153612248300,7.231248291015625,0.32558131217956543,0.7299554347991943,-2.568845510482788
1772556153622179600,7.2411796875,0.2212168276309967,0.8677428960800171,-2.465104103088379
1772556153632110600,7.251110595703125,0.07085926085710526,1.0367270708084106,-2.2326598167419434
1772556153642041300,7.261041259765625,-0.08494551479816437,1.3617501258850098,-1.990241527557373
1772556153651972600,7.27097265625,-0.11877956986427307,1.7916878461837769,-1.842421054840088
1772556153661904600,7.280904541015625,-0.018373072147369385,2.0696070194244385,-1.7181811332702637
1772556153671835400,7.29083544921875,0.13655611872673035,2.0982980728149414,-1.619232416152954
1772556153681766400,7.300766357421875,0.2567214071750641,1.906407117843628,-1.5808519124984741
1772556153691697700,7.31069775390625,0.27220651507377625,1.6033612489700317,-1.4825780391693115
1772556153701628400,7.32062841796875,0.13980798423290253,1.4751229286193848,-1.449395775794983
1772556153711559400,7.330559326171875,-0.0018223244696855545,1.6009397506713867,-1.7989788055419922
1772556153721490400,7.340490478515625,-0.06048537418246269,1.7407724857330322,-2.4305756092071533
1772556153731421400,7.35042138671875,0.09653008729219437,1.7462539672851562,-3.123046398162842
1772556153741353500,7.360353515625,0.3470824062824249,1.1616437435150146,-3.5214905738830566
1772556153751284500,7.370284423828125,0.45805418491363525,-0.10729724168777466,-3.334277868270874
1772556153761215500,7.380215576171875,0.5035106539726257,-1.2386250495910645,-2.6058242321014404
1772556153771146500,7.390146484375,0.4815090596675873,-1.4029359817504883,-1.6703753471374512
1772556153781077500,7.400077392578125,0.3674109876155853,-0.7054545879364014,-0.7350984215736389
1772556153791008500,7.410008544921875,0.26042789220809937,0.4145437479019165,0.07884430140256882
1772556153800939500,7.419939453125,0.23387618362903595,1.433793544769287,0.5911464691162109
1772556153810870500,7.42987060546875,0.28563886880874634,1.7860217094421387,0.7210346460342407
1772556153820802600,7.439802490234375,0.3502492904663086,1.2004519701004028,0.5954186320304871
1772556153830733600,7.449733642578125,0.35385534167289734,0.0670684352517128,0.4213999807834625
1772556153840664300,7.459664306640625,0.2505284249782562,-0.9498004913330078,0.30679458379745483
1772556153850595600,7.469595703125,0.06473691016435623,-1.5668226480484009,0.3865758776664734
1772556153860526600,7.479526611328125,-0.1256391555070877,-1.831387996673584,0.6634418368339539
1772556153870457300,7.489457275390625,-0.2013571709394455,-1.6047970056533813,1.0483741760253906
1772556153880388600,7.499388671875,-0.13900165259838104,-0.8669407963752747,1.5685428380966187
1772556153890319600,7.509319580078125,-0.04882289469242096,-0.1475675255060196,2.1809141635894775
1772556153900250400,7.51925048828125,-0.039950840175151825,0.1385909914970398,2.711395740509033
1772556153910182400,7.529182373046875,-0.14780309796333313,0.052039530128240585,2.9814186096191406
1772556153920113700,7.53911376953125,-0.3615979254245758,-0.1755283772945404,2.9346673488616943
1772556153930044400,7.54904443359375,-0.6474745869636536,-0.3383892774581909,2.6337971687316895
1772556153939975400,7.558975341796875,-0.9508933424949646,-0.3452919125556946,2.2498726844787598
1772556153949906700,7.56890673828125,-1.1851674318313599,-0.18210764229297638,1.9216179847717285
1772556153959837400,7.57883740234375,-1.2772276401519775,0.0701134204864502,1.690184235572815
1772556153969768400,7.5887685546875,-1.229279637336731,0.19958750903606415,1.5038092136383057
1772556153979699700,7.59869970703125,-1.0728684663772583,0.03588886186480522,1.3059743642807007
1772556153989631500,7.608631591796875,-0.841563880443573,-0.37615448236465454,1.0915400981903076
1772556153999562500,7.6185625,-0.5834172964096069,-0.9015160202980042,0.8529056906700134
1772556154009493500,7.628493408203125,-0.33927276730537415,-1.4134812355041504,0.6324291825294495
1772556154019424500,7.638424560546875,-0.1564350575208664,-1.7242307662963867,0.4659155607223511
1772556154029355500,7.64835546875,-0.0839674323797226,-1.698708176612854,0.3558994233608246
1772556154039286500,7.65828662109375,-0.12315132468938828,-1.417023777961731,0.3435862958431244
1772556154049217500,7.668217529296875,-0.24330858886241913,-1.04510498046875,0.41219016909599304
1772556154059148500,7.6781484375,-0.367367148399353,-0.6772443056106567,0.5083292126655579
1772556154069079300,7.688079345703125,-0.4334452748298645,-0.3634268045425415,0.5557538866996765
1772556154079011300,7.69801123046875,-0.4500037431716919,-0.16750548779964447,0.5227953791618347
1772556154088942600,7.707942626953125,-0.4258987009525299,-0.12161971628665924,0.3930763304233551
1772556154098873600,7.71787353515625,-0.36490726470947266,-0.13756859302520752,0.18311960995197296
1772556154108804400,7.727804443359375,-0.2832130193710327,-0.1093500554561615,-0.08727238327264786
1772556154118735600,7.737735595703125,-0.1323678344488144,-0.06879650056362152,-0.37337446212768555
1772556154128666400,7.747666259765625,0.06646741926670074,-0.01641879417002201,-0.6633056998252869
1772556154138597400,7.757597412109375,0.25384798645973206,0.07065059244632721,-0.9972559809684753
1772556154148528600,7.767528564453125,0.374906063079834,0.1220274269580841,-1.3224332332611084
1772556154158460700,7.777460693359375,0.35356056690216064,0.05890251696109772,-1.5341037511825562
1772556154168391400,7.787391357421875,0.09534519910812378,-0.13646751642227173,-1.5901013612747192
1772556154178322400,7.797322509765625,-0.3785829544067383,-0.46322035789489746,-1.5447421073913574
1772556154188253400,7.80725341796875,-0.8505524396896362,-0.9224883317947388,-1.3765864372253418
1772556154198184400,7.817184326171875,-1.0723572969436646,-1.380860447883606,-1.0073142051696777
1772556154208115500,7.827115478515625,-1.0126107931137085,-1.7195136547088623,-0.37546971440315247
1772556154218046500,7.83704638671875,-0.8695708513259888,-1.6229127645492554,0.4177549481391907
1772556154227977500,7.8469775390625,-0.7756386399269104,-0.7489327192306519,1.091123104095459
1772556154237909500,7.856909423828125,-0.6641014218330383,0.4687369465827942,1.550400972366333
1772556154247840500,7.866840576171875,-0.5502920150756836,1.126901388168335,1.8932957649230957
1772556154257771500,7.876771484375,-0.39818501472473145,1.1136349439620972,2.0392308235168457
1772556154267702500,7.88670263671875,-0.05921443924307823,0.7633437514305115,1.812170147895813
1772556154277633500,7.896633544921875,0.4596654772758484,0.4230591356754303,1.0360625982284546
1772556154287564500,7.906564453125,0.8300806283950806,0.044023334980010986,-0.1341545730829239
1772556154297495600,7.91649560546875,0.730588436126709,-0.4053936004638672,-1.2352006435394287
1772556154307426600,7.926426513671875,0.3105846345424652,-0.6051973104476929,-2.0210769176483154
1772556154317357600,7.936357666015625,-0.0797990933060646,-0.42935970425605774,-2.4238452911376953
1772556154327289600,7.94628955078125,-0.3331718146800995,0.042555760592222214,-2.3164453506469727
1772556154337220400,7.956220458984375,-0.4764554798603058,0.5580854415893555,-1.706325650215149
1772556154347151600,7.966151611328125,-0.519878625869751,0.8454689383506775,-0.7709434628486633
1772556154357082600,7.97608251953125,-0.4008624851703644,0.9355570077896118,0.2521897554397583
1772556154367013400,7.986013427734375,-0.17640548944473267,1.0053553581237793,1.1314324140548706
1772556154376944600,7.995944580078125,0.084132619202137,1.003748893737793,1.6788358688354492
1772556154386875400,8.00587548828125,0.30219465494155884,0.8292972445487976,1.8385107517242432
1772556154396806400,8.015806396484376,0.4104185998439789,0.5119086503982544,1.6932164430618286
1772556154406738000,8.025738037109376,0.41188663244247437,0.15698423981666565,1.3745008707046509
1772556154416669200,8.035669189453126,0.34480932354927063,-0.11448854953050613,1.0046496391296387
1772556154426600200,8.04560009765625,0.2578968405723572,-0.2534733712673187,0.6780666708946228
1772556154436531000,8.055531005859375,0.1914733499288559,-0.31081920862197876,0.46477413177490234
1772556154446462200,8.065462158203125,0.17032144963741302,-0.34934964776039124,0.3816201388835907
1772556154456393200,8.075393310546875,0.1954835206270218,-0.3666548430919647,0.3560359477996826
1772556154466324000,8.085323974609375,0.21050144731998444,-0.4317415952682495,0.3743509352207184
1772556154476255200,8.095255126953125,0.17702950537204742,-0.5207952857017517,0.43192023038864136
1772556154486186000,8.10518603515625,0.1311917006969452,-0.5982515215873718,0.525972843170166
1772556154496118000,8.115117919921875,0.09760525077581406,-0.5709096789360046,0.6331725120544434
1772556154506049300,8.12504931640625,0.07963337749242783,-0.5386531949043274,0.7342959046363831
1772556154515980000,8.13497998046875,0.08755628019571304,-0.538394033908844,0.794971227645874
1772556154525911000,8.1449111328125,0.1187368780374527,-0.5083065032958984,0.7800363302230835
1772556154535842300,8.15484228515625,0.15688079595565796,-0.4735133945941925,0.6935136914253235
1772556154545773000,8.16477294921875,0.1660643070936203,-0.5028329491615295,0.6009766459465027
1772556154555704000,8.1747041015625,0.1291550248861313,-0.5500534772872925,0.5518304109573364
1772556154565635300,8.18463525390625,0.04823664575815201,-0.5913624167442322,0.5679451823234558
1772556154575567000,8.194567138671875,-0.020454801619052887,-0.5516937971115112,0.6653071641921997
1772556154585498000,8.204498046875,-0.04350012540817261,-0.39934447407722473,0.8403637409210205
1772556154595429000,8.21442919921875,-0.03016461245715618,-0.07514829188585281,0.9874053597450256
1772556154605360000,8.224360107421875,-0.00823234487324953,0.13293012976646423,1.1190078258514404
1772556154615291100,8.234291015625,0.047783784568309784,0.37379252910614014,1.168487548828125
1772556154625222100,8.24422216796875,0.10760693997144699,0.661653459072113,1.1577926874160767
1772556154635153200,8.254153076171875,0.14104852080345154,0.9334383606910706,1.0382362604141235
