time,seconds_elapsed,z,y,x
1772555413445429500,0.068429443359375,-0.5011678991734981,-0.06368979736119508,0.8085447262145579
1772555413455361500,0.078361572265625,-0.7899719815611839,-0.13076514550745486,0.7884004944607615
1772555413465293600,0.08829345703125,-0.8942951103448867,-0.17407924044653772,0.6433237688757479
1772555413475225600,0.0982255859375,-0.8086269976705313,-0.11942761280462146,0.5971547594295814
1772555413485157400,0.108157470703125,-0.5236164623469114,-0.04557692530453205,0.6023365825142711
1772555413495089400,0.11808935546875,-0.14823708931207655,-0.04201221856027841,0.5517976508881897
1772555413505021700,0.128021728515625,0.1248907005161047,-0.06392915907502174,0.432824321189709
1772555413514952700,0.13795263671875,0.2300181314200163,-0.1050870988935232,0.28739070845842357
1772555413524884700,0.147884765625,0.16014087759554385,-0.10454933875501156,0.22559688091166316
1772555413534816500,0.15781640625,0.05635024825334549,-0.08442512687593698,0.23070706353224812
1772555413544748500,0.16774853515625,0.009397942942380905,-0.013710545444488525,0.16126615529842675
1772555413554680600,0.1776806640625,-0.0913233619570732,0.04629880983829498,0.05520100515298545
1772555413564612600,0.187612548828125,-0.17792437156736848,0.08005027279257775,-0.028280520729906854
1772555413574544600,0.197544677734375,-0.20422434947192666,0.11316562980040908,-0.0697257895898074
1772555413584476700,0.2074765625,-0.19788930123150347,0.1269686758339405,-0.1262760904598981
1772555413594408400,0.217408447265625,-0.3197410724431276,0.12223887083306909,-0.18925737422555683
1772555413604340500,0.227340576171875,-0.39396190842986106,0.1336655431240797,-0.21730536484122276
1772555413614272500,0.2372724609375,-0.30213118147253987,0.16205547904521225,-0.18947258787881582
1772555413624204500,0.24720458984375,-0.12016834816932677,0.14992767274752258,-0.1345426182195544
1772555413634136600,0.257136474609375,0.06298281813561916,0.14814941102862358,-0.08501366735361517
1772555413644068400,0.267068359375,0.09503682952225208,0.10208601738139986,-0.020220950251817704
1772555413654000600,0.277000732421875,0.19567747040092945,0.061513330104947084,0.00547821221537888
1772555413663932700,0.2869326171875,0.32441432495117184,0.04802388006523251,0.011609992968663572
1772555413673864700,0.29686474609375,0.4251683630764484,0.008153057447820902,0.06825031020976603
1772555413683796700,0.306796630859375,0.5180787019640207,-0.023390227937698363,0.11360584784857929
1772555413693728800,0.316728759765625,0.5735568435579538,-0.05689955269917846,0.1431491915885359
1772555413703659500,0.326659423828125,0.612348638767004,-0.08312427341043949,0.19238763507530093
1772555413713591600,0.336591552734375,0.6189028827160596,-0.09835749837756157,0.2310951130017638
1772555413723523600,0.346523681640625,0.5232429528594017,-0.11061141527295112,0.2824099974364042
1772555413733455600,0.35645556640625,0.30143443138003345,-0.13356865862086414,0.3777892837207764
1772555413743387600,0.3663876953125,0.1394470491349697,-0.09742430918067693,0.47775516714304683
1772555413753319400,0.3763193359375,0.011523849055171013,-0.09417539038732647,0.5356497222289442
1772555413763251500,0.38625146484375,-0.08375731061697006,-0.14500000708699226,0.5121191359724849
1772555413773183500,0.39618359375,-0.185422618368268,-0.19119447976797818,0.4394148420285433
1772555413783115500,0.406115478515625,-0.31031624149382114,-0.1901265582755208,0.41320327305980026
1772555413793047600,0.416047607421875,-0.407645565867424,-0.13984116301909089,0.38304223581291735
1772555413802979600,0.4259794921875,-0.4546235901415348,-0.1154233455993235,0.37682036562338467
1772555413812911600,0.43591162109375,-0.5039812030285596,-0.11014467454403638,0.36728783651590347
1772555413822843600,0.44584375,-0.49238136612772937,-0.07312164257317781,0.3408963078703731
1772555413832775700,0.455775634765625,-0.4558832348138094,-0.014836480734497308,0.3053567924555391
1772555413842707700,0.465707763671875,-0.44264439853429793,0.026600276025384662,0.27890695775151253
1772555413852639700,0.4756396484375,-0.39795243937075137,0.04532163536921143,0.21115750973597167
1772555413862571800,0.48557177734375,-0.35051322732567786,0.043217794957756996,0.1488558057323098
1772555413872503600,0.495503662109375,-0.30636487351953984,0.0399989790417254,0.0724916741065681
1772555413882435600,0.505435546875,-0.24557868864536284,0.046426235610246655,0.04870272917486727
1772555413892367600,0.51536767578125,-0.16197569180727003,0.05312324903085828,0.09927512467913328
1772555413902299600,0.525299560546875,-0.10022855294644832,0.038583267024904486,0.10906995798461139
1772555413912230400,0.53523046875,0.038297874212265014,0.05439166153147816,0.11080598799698053
1772555413922162400,0.545162353515625,0.16600830832421778,0.06293342603594064,0.09221724205687641
1772555413932094500,0.555094482421875,0.232670691755414,0.032980770842730996,0.06772256000861525
1772555413942026500,0.565026611328125,0.2957984713196754,-0.026069822410494086,0.048066915489360686
1772555413951958800,0.574958740234375,0.3025882775902748,-0.09808028887137771,-0.01517930282279849
1772555413961890800,0.584890869140625,0.28536241750121116,-0.1435866331577301,-0.02778605174385011
1772555413971822600,0.594822509765625,0.2324865673601627,-0.15738164201527832,0.017067893048375846
1772555413981754600,0.604754638671875,0.14996142888665198,-0.1958972506314516,0.058367798620834944
1772555413991686700,0.614686767578125,0.05589139856994152,-0.24167729729264972,0.04853175652213394
1772555414001618700,0.62461865234375,-0.014214987835288047,-0.24668781893104313,0.03481521972827613
1772555414011550700,0.63455078125,-0.07760638677179812,-0.250961696857959,0.08967749444618821
1772555414021482800,0.644482666015625,-0.16414543706178664,-0.24150194072574377,0.1082167752213776
1772555414031414500,0.65441455078125,-0.20876023933589458,-0.24347499436438083,0.09519282380156219
1772555414041346600,0.6643466796875,-0.22625731758177278,-0.24423721090853212,0.10030088753029703
1772555414051278600,0.674278564453125,-0.25757424686551095,-0.2230688968040049,0.13205854631885885
1772555414061210600,0.684210693359375,-0.2383814706176519,-0.17824001338779924,0.16130780248306692
1772555414071142700,0.694142578125,-0.20833763000965116,-0.1441382756911218,0.194906193767488
1772555414081074700,0.70407470703125,-0.2138122620284557,-0.09576324410066007,0.22315423699989914
1772555414091006500,0.71400634765625,-0.30425358045399187,-0.061572951337695116,0.2959789424531162
1772555414100938500,0.7239384765625,-0.3449041552722454,-0.03939706762582063,0.3275235430128872
1772555414110870500,0.73387060546875,-0.309462255012989,0.00011544307321310043,0.29599508987031875
1772555414120801800,0.7438017578125,-0.24984511391818523,0.030458412758260965,0.25344759538955985
1772555414130733600,0.753733642578125,-0.1856312926828861,0.02764773925170302,0.2115066884998232
1772555414140665600,0.76366552734375,-0.12971592871546744,0.02525675246194005,0.16812720017433166
1772555414150597600,0.77359765625,-0.06610708763599395,0.022769319560378788,0.14547712307944893
1772555414160529700,0.78352978515625,-0.021019407153129575,0.012478665561974047,0.14702647141329944
1772555414170461700,0.793461669921875,0.00786357298195362,0.011740852806717156,0.15189531955868005
1772555414180393700,0.803393798828125,0.016821955463290215,0.013963351161777972,0.12390424676202237
1772555414190325500,0.813325439453125,-0.04254734835028648,0.00923500746563077,0.11037358792908489
1772555414200257500,0.823257568359375,-0.07383914319276809,0.0027289865724742413,0.09779957223385571
1772555414210189600,0.833189453125,-0.07839724488854408,0.0052248950414359565,0.10478205153234302
1772555414220121600,0.84312158203125,-0.12833294992446898,-0.003125876935571432,0.09650653674863278
1772555414230053600,0.8530537109375,-0.21136779148578644,0.008619652046263217,0.10434892081208526
1772555414239985700,0.862985595703125,-0.2397463292300701,0.012126491123437881,0.12420330277383326
1772555414249917400,0.87291748046875,-0.17412614832818507,0.008463000179827212,0.13748955839164553
1772555414259849500,0.882849365234375,-0.05520867700278759,0.022444763781130313,0.13868103319853545
1772555414269781500,0.892781494140625,0.07242167761027812,0.02948138441964984,0.12906469826512038
1772555414279713500,0.902713623046875,0.1576502298235893,0.019876959119737147,0.10253310356177389
1772555414289645600,0.9126455078125,0.22187281888723373,0.041008448345214124,0.09088818541020155
1772555414299577600,0.92257763671875,0.2338338903158903,0.05678630158305168,0.10105557835511862
1772555414309509600,0.932509521484375,0.1651017148733139,0.07010390218719839,0.1068483364123851
1772555414319441700,0.942441650390625,0.051202948492765424,0.0683722560890019,0.1318508949175477
1772555414329372700,0.95237255859375,-0.028094460105895995,0.06322656376361846,0.1353033734589815
1772555414339304700,0.9623046875,-0.07802022826969623,0.07139087325781583,0.13770853490456939
1772555414349236500,0.972236572265625,-0.061461892178654665,0.06078092417716979,0.1330296563733369
1772555414359168500,0.98216845703125,-0.027855975174903867,0.04389861682876944,0.13262407124713063
1772555414369100500,0.9921005859375,0.004493219766020774,0.03262874253466725,0.11381284166276454
1772555414379032600,1.002032470703125,-0.028269232150912284,-0.0041657413773238654,0.10498130043148994
1772555414388964000,1.011964111328125,-0.053420040020346636,-0.015679945821315048,0.11374372194930911
1772555414398896000,1.021896240234375,-0.0863520032852888,-0.014855769956856965,0.12499087295494973
1772555414408828200,1.031828125,-0.1370557700842619,-0.03431187331601977,0.11865421727932988
1772555414418760000,1.041760009765625,-0.1989332573264837,-0.05136193844676017,0.08816402114331721
1772555414428692200,1.051692138671875,-0.20302724864184854,-0.06744725019857287,0.07031286876276135
1772555414438624300,1.061624267578125,-0.1433949099779129,-0.07738909075930714,0.07104512856006621
1772555414448556300,1.071556396484375,-0.0876373669207096,-0.07698840100392698,0.03339863092862069
1772555414458488300,1.08148828125,-0.06751403182446956,-0.07621390950009227,0.03954897025190294
1772555414468420000,1.091420166015625,-0.07774258037209511,-0.08872326246127486,0.0701342973254621
1772555414478352100,1.10135205078125,-0.07508826647102833,-0.08778013639226555,0.07600406614169478
1772555414488284200,1.1112841796875,-0.02854161935150623,-0.06412000547200442,0.05262867044694721
1772555414498216200,1.12121630859375,-0.004900631523132324,-0.05576265762373805,0.06462079460099339
1772555414508148200,1.131148193359375,0.025679800179600715,-0.05390329349264502,0.06401091907434166
1772555414518080300,1.141080322265625,0.04794657704532146,-0.04072290940210223,0.04637910853289067
1772555414528012000,1.151011962890625,0.04768412671685218,-0.0409825832515955,0.09758154556900263
1772555414537944000,1.160944091796875,0.023443419429659842,-0.0182395671762526,0.12340659943819045
1772555414547875000,1.170875,0.005116320100426674,0.01691737866178155,0.11102262642234563
1772555414557807000,1.18080712890625,-0.015849311038851736,0.022835078272968528,0.17342260316871105
1772555414567739100,1.1907392578125,-0.017352116817235946,0.026714696185290814,0.198019795743376
1772555414577671200,1.200671142578125,0.010258359163999557,0.03165259097889066,0.1582071330539882
1772555414587603200,1.210603271484375,0.07819675388038158,0.033737726689875125,0.1415187408424914
1772555414597535200,1.22053515625,0.13920388802886008,0.04450535055026412,0.14172156993821264
1772555414607467300,1.23046728515625,0.11642974616289138,0.057163172071427105,0.11005100491121411
1772555414617399300,1.2403994140625,0.06728489924371242,0.08697408070638775,0.12272957695946096
1772555414627331300,1.250331298828125,0.05880348662436008,0.10551423826441168,0.18044914080463348
1772555414637263000,1.26026318359375,0.05060030642449855,0.10902546125575899,0.22919212892465293
1772555414647195100,1.270195068359375,0.033763737913966176,0.07684300118386744,0.24370865698978303
1772555414657127200,1.280127197265625,0.02077390795946121,0.04787029693871736,0.2360927020933479
1772555414667059200,1.29005908203125,0.031002456507086752,0.02986439238786697,0.23075462900102137
1772555414676991200,1.2999912109375,0.05199789826273918,0.043932519098371266,0.21312442589476704
1772555414686923000,1.309923095703125,0.11419278089106082,0.03112389092966914,0.17767697267755864
1772555414696855000,1.31985498046875,0.1426847158819437,0.02191124142631888,0.13979293996319173
1772555414706787000,1.329787109375,0.13171616262197494,0.011108107861131429,0.12797748755030333
1772555414716719000,1.339718994140625,0.07851707187592982,0.01360270115584135,0.08902114942930638
1772555414726651100,1.349651123046875,-0.009729366853833198,0.003232406049966812,0.08873173802867532
1772555414736583200,1.359583251953125,-0.08619768950641155,-0.011603197901695965,0.10614851757995784
1772555414746515000,1.369514892578125,-0.10906184774339199,-0.01891410543695092,0.08787672863453626
1772555414756446200,1.3794462890625,-0.09512333876192569,-0.03337269276976585,0.10482793650068342
1772555414766378200,1.389378173828125,-0.022495909446477887,-0.03994695659354329,0.11229922222942114
1772555414776310300,1.399310302734375,0.011858780097961425,-0.04532397345677018,0.09484919799566269
1772555414786242300,1.4092421875,-0.013965981510281562,-0.07443871652111411,0.08785020595379173
1772555414796174000,1.419174072265625,-0.05773205800056457,-0.08810016212686896,0.08006393599174916
1772555414806106000,1.429106201171875,-0.10622516301274298,-0.08003419844061135,0.07411569511182606
1772555414816038100,1.4390380859375,-0.1411415780931711,-0.07783537322208285,0.0803990862302482
1772555414825970200,1.44897021484375,-0.13458265796899796,-0.10746405715793371,0.07573409009389578
1772555414835902200,1.458902099609375,-0.10859423023164272,-0.13342062845230102,0.055673518035560844
1772555414845834200,1.468834228515625,-0.09962883348762988,-0.12977598833963275,0.04499510682858526
1772555414855766000,1.47876611328125,-0.10900690268576145,-0.1279638243511319,0.06845007056556641
1772555414865698000,1.488697998046875,-0.1142681842148304,-0.131913731020689,0.09674334117919206
1772555414875630000,1.498630126953125,-0.164849785938859,-0.13023162315264344,0.11132007499895989
1772555414885562000,1.50856201171875,-0.24911095442473888,-0.12387976990789175,0.0925762846276164
1772555414895494100,1.518494140625,-0.3003635872781277,-0.10764365150853991,0.08388554010652005
1772555414905426000,1.528426025390625,-0.2863666261076927,-0.08325432953089475,0.0837218009121716
1772555414915358000,1.53835791015625,-0.20659575477838515,-0.08314385489374398,0.09769830381646752
1772555414925290000,1.5482900390625,-0.13444412628114222,-0.07050517646446823,0.06761252376288175
1772555414935222300,1.55822216796875,-0.06553659427165985,-0.058387307038903234,0.04182129909805953
1772555414945154300,1.568154296875,-0.03733633570373058,-0.04661123678833246,0.06590856938920915
1772555414955086300,1.57808642578125,-0.008860182803869247,-0.015743658707290886,0.09374912779927254
1772555414965017000,1.58801708984375,-0.002778232541680336,0.00984758640602231,0.11435564330257475
1772555414974949000,1.59794921875,-0.03898410291075706,0.017292641714960335,0.13757212210856376
1772555414984881200,1.607881103515625,-0.05675766001045703,0.04787950315847993,0.15715630882680415
1772555414994813200,1.617813232421875,-0.09701894325017929,0.0776668847873807,0.1559483212765306
1772555415004745200,1.6277451171875,-0.11589490863382816,0.07541676777303219,0.17105587403737008
1772555415014677000,1.637677001953125,-0.06282791983485221,0.06167027423232793,0.18296550753973423
1772555415024609000,1.647609130859375,0.019478022930026054,0.05384148030281066,0.18690014357492327
1772555415034541000,1.657541015625,0.09146072460114955,0.044853287205100054,0.20130035178400574
1772555415044473000,1.66747314453125,0.12074760936200618,0.0391132822483778,0.20563238963894545
1772555415054405000,1.677405029296875,0.12558920417428016,0.04892418990582227,0.18402495346479117
1772555415064337200,1.687337158203125,0.0892015474975109,0.043514147555828095,0.15535773497223854
1772555415074269200,1.697269287109375,0.030218612653017042,0.0527932864241302,0.16609934760853648
1772555415084201200,1.707201171875,0.0013140052080154417,0.05500614016801118,0.21326229999549687
1772555415094133200,1.71713330078125,0.03591010229289532,0.053244245062023396,0.20767704720906913
1772555415104065300,1.727065185546875,0.09176759859323501,0.054523325087130065,0.20969795857742426
1772555415113997300,1.736997314453125,0.13244681498408317,0.04514817849844694,0.2023003956720233
1772555415123929000,1.74692919921875,0.14855916087329388,0.04110197184756398,0.1739183507964015
1772555415133861000,1.756861083984375,0.14127777169346808,0.038627544558048246,0.13340659992694853
1772555415143793200,1.766793212890625,0.13790683395564554,0.025871084968000647,0.10858414722904562
1772555415153725200,1.77672509765625,0.07899462625980377,0.023379852674156425,0.09623181146048009
1772555415163656200,1.78665625,0.012257424026727675,0.0037400633111596107,0.10589059729613363
1772555415173588000,1.796587890625,-0.034948563784360884,-0.012408522935211658,0.12355397201962769
1772555415183520000,1.80652001953125,-0.08904664919674396,-0.02804272991865873,0.10909940327480434
1772555415193452000,1.8164521484375,-0.11619886001646518,-0.03871756092905998,0.10317257050909101
1772555415203384000,1.826384033203125,-0.11446575261354446,-0.05871624673232436,0.10122362839840351
1772555415213316000,1.836316162109375,-0.11157178473770618,-0.06925166927203535,0.09572232756838202
1772555415223248100,1.846248046875,-0.14619360078573226,-0.08067191182225943,0.07396211198531091
1772555415233180200,1.85618017578125,-0.16316460933089255,-0.10187821984961629,0.05820844334065914
1772555415243112200,1.8661123046875,-0.17496026106476784,-0.12628712331056594,0.0303789908464998
1772555415253044200,1.876044189453125,-0.21904899363815783,-0.1310530225381255,0.03688355043493211
1772555415262976300,1.885976318359375,-0.19774141719341276,-0.12529255931526423,0.06710355132743716
1772555415272908300,1.895908203125,-0.1394733526200056,-0.11847586503773927,0.0738776485722512
1772555415282840300,1.90584033203125,-0.12962065164744854,-0.12416048654541373,0.06738894414007664
1772555415292772000,1.915772216796875,-0.1629489207535982,-0.14019377584904433,0.08305047752186656
1772555415302704000,1.9257041015625,-0.1592202556192875,-0.14453063600957392,0.12418898198753595
1772555415312636200,1.93563623046875,-0.10751695638895034,-0.14006941881701349,0.16462737535983324
1772555415322568200,1.945568115234375,-0.041105917370319364,-0.12989625371843574,0.1669704313546419
1772555415332500200,1.955500244140625,0.009938625690340996,-0.13382307177335023,0.15986476406790315
1772555415342432000,1.965431884765625,0.07126432426869869,-0.11992591771557927,0.18627273239158093
1772555415352364000,1.975364013671875,0.12062193715572357,-0.10338657858595252,0.21086422587782144
1772555415362295000,1.985294921875,0.12046879242062568,-0.0963635480813682,0.21243768573962152
1772555415372227000,1.99522705078125,0.04865151044428348,-0.08932692744284867,0.22689101237542925
1772555415382159400,2.005159423828125,-0.00362462023794651,-0.0853494021140039,0.24952070426940917
1772555415392091600,2.015091552734375,-0.00462064553797245,-0.07340279760211706,0.2812603890098631
1772555415402023700,2.025023681640625,-0.040814825469255446,-0.07018705042600631,0.27286702000014484
1772555415411955700,2.034955810546875,-0.05982523088753223,-0.045995442977547644,0.2342106877390295
1772555415421888000,2.044887939453125,-0.029078210446238515,-0.04652472754865884,0.2185046576283872
1772555415431820000,2.054820068359375,-0.0039040217012166973,-0.02135872211009264,0.20031382496468722
1772555415441752000,2.064751953125,-0.02393850947022438,-0.029837358250468966,0.16700513734184205
1772555415451683800,2.074683837890625,-0.00907528685927391,-0.03145750679820776,0.15181611684262752
1772555415461615900,2.084615966796875,0.0033668460845947264,-0.0008199380807578563,0.1412636701028794
1772555415471548000,2.0945478515625,0.008213701593875885,0.00815904879719019,0.12473331799730658
1772555415481480000,2.10447998046875,0.003049450698494911,0.0007101940959692001,0.13799648500047623
1772555415491412000,2.114411865234375,-0.004104512709379196,0.004970189628005027,0.14994922699220478
1772555415501344000,2.124343994140625,0.0032429274439811705,0.015093670365959405,0.14978592618927358
1772555415511275800,2.13427587890625,-0.00210837045609951,0.029664632032066582,0.13662614649534224
1772555415521207800,2.144207763671875,-0.014160627299547195,0.03196034175381064,0.1042208374530077
1772555415531139800,2.154139892578125,-0.0680570526599884,0.029721184524893758,0.11726451648660004
1772555415541072000,2.16407177734375,-0.07368249132633209,0.04149900834113359,0.1308248398054391
1772555415551004000,2.17400390625,-0.03626549160182476,0.01998041949421167,0.1608865083310753
1772555415560935700,2.183935791015625,0.042402971443533895,0.008259878823161124,0.1625545876737684
1772555415570867000,2.193866943359375,0.09723813895881175,0.01927972387894988,0.1452326467990875
1772555415580799000,2.203799072265625,0.09430267002880573,0.010333470226824282,0.1275201722368598
1772555415590731000,2.21373095703125,0.06439853015244007,-0.008338204756379128,0.11732011913135647
1772555415600663000,2.2236630859375,0.04031505925357341,-0.008105565044283867,0.13762275631725787
1772555415610594800,2.2335947265625,-0.01787643295228481,0.009467208786308764,0.1521576237566769
1772555415620526800,2.24352685546875,-0.12465513819456099,0.006764087307453155,0.18268406024985015
1772555415630459000,2.253458984375,-0.1426893920570612,-0.005676876592636108,0.18822408565506338
1772555415640391000,2.263390869140625,-0.06552665739953517,-0.007483487623184919,0.18780542185157537
1772555415650323000,2.273322998046875,0.01899403880536556,-0.015691343998163937,0.15928535674475133
1772555415660255000,2.2832548828125,0.06380933208763599,-0.03190627347901463,0.16433569893687963
1772555415670186800,2.293186767578125,0.06767594438791275,-0.059504182239621874,0.14764840270392596
1772555415680118800,2.303118896484375,0.09618541503548622,-0.07055661439076065,0.12023754094801843
1772555415690050800,2.31305078125,0.11265081214606762,-0.06096709439903497,0.09247969238534569
1772555415699982800,2.32298291015625,0.06293956351578235,-0.05435469052195549,0.09407149162143469
1772555415709915000,2.332914794921875,-0.04892155955731869,-0.05742986018359661,0.1059686309684068
1772555415719847000,2.342846923828125,-0.11305939294695853,-0.0389870255202055,0.10101137388721108
1772555415729778700,2.35277880859375,-0.11965046177506446,-0.020217004729062318,0.10188472265563904
1772555415739710700,2.362710693359375,-0.08783259723186493,-0.018098843531310558,0.1255577130574733
1772555415749642800,2.372642822265625,-0.013280337333679199,-0.014851239912211893,0.1267614628240466
1772555415759574800,2.38257470703125,0.05411620559096336,-0.01430135094448924,0.10755436578989028
1772555415769505800,2.392505859375,0.09178045807480811,-0.010110475125908852,0.091737787976861
1772555415779437800,2.402437744140625,0.09340893605947494,0.00732639736533165,0.06591353782527148
1772555415789369900,2.412369873046875,0.0758604198873043,0.030690029557049272,0.056555196240916844
1772555415799302000,2.422302001953125,0.059086395218968385,0.03905132292807102,0.06147489779070019
1772555415809234000,2.43223388671875,0.03831716343462467,0.033372254378348586,0.056477162568643685
1772555415819166000,2.442166015625,0.005709609818458557,0.04252221390902996,0.060201078462600706
1772555415829097700,2.45209765625,0.000218026664853096,0.048788434696942565,0.07410342015214264
1772555415839029800,2.46202978515625,0.011809680259227752,0.03498144314065575,0.07446553146280348
1772555415848961800,2.4719619140625,-0.005889642560482025,0.03805485923662782,0.0853082663860172
1772555415858893800,2.481893798828125,-0.002101940715312958,0.04956657946258783,0.10261924747526645
1772555415868825900,2.491825927734375,0.011597498813271523,0.03763195764943957,0.11844240115955472
1772555415878758000,2.5017578125,-0.0295364756077528,0.006405775389075279,0.09882811156399547
1772555415888689700,2.511689697265625,-0.10051204606294631,0.0018735387869179248,0.11158829748108982
1772555415898621700,2.52162158203125,-0.14165887996554374,-0.008040683114528656,0.16987755097299814
1772555415908553700,2.5315537109375,-0.12082359720766543,-0.021161153711378573,0.21723726804107427
1772555415918485800,2.54148583984375,-0.08053250335156917,-0.043514147555828095,0.19995076380595564
1772555415928418000,2.55141796875,-0.046530280506610865,-0.06545753768607973,0.18236622647233305
1772555415938350000,2.56135009765625,0.013643909949064253,-0.07933408734723925,0.16653342817686498
1772555415948281900,2.57128173828125,0.02537058809995651,-0.0832025993436575,0.1278773881766945
1772555415958214000,2.5812138671875,0.01801028846502304,-0.09599179215952754,0.08798070046566427
1772555415968145000,2.591144775390625,0.025038579666614533,-0.10603270918056368,0.0712009036436677
1772555415978077000,2.601076904296875,0.024888357540965078,-0.10566650621667503,0.07346870244517922
1772555415988008700,2.6110087890625,-0.005935819789767265,-0.10072612720504402,0.09825418413355946
1772555415997940700,2.620940673828125,-0.04867079966664314,-0.09720409055873751,0.11729162368923425
1772555416007872800,2.630872802734375,-0.07491641703546047,-0.09005275749936699,0.13841982497908173
1772555416017804800,2.6408046875,-0.08660451674163341,-0.0850254308566451,0.16010931341350076
1772555416027736800,2.65073681640625,-0.1066688151270151,-0.06416004522144794,0.16732238659746945
1772555416037668900,2.6606689453125,-0.14180033426284788,-0.05411342911198735,0.19338366037532687
1772555416047600600,2.6706005859375,-0.16207973670363426,-0.047739217904955146,0.20825776970647275
1772555416057532700,2.68053271484375,-0.15946517029106616,-0.03358648165091872,0.2222683210108429
1772555416067464700,2.690464599609375,-0.09320902957320212,-0.004717530041188001,0.20455906131900845
1772555416077397000,2.70039697265625,-0.04215221155285835,0.016833645901083945,0.17494827836602925
1772555416087329000,2.7103291015625,-0.02246843691766262,0.0005726853214204311,0.15968115112930537
1772555416097261000,2.720260986328125,-0.0080517890304327,-0.0088294954046607,0.17555837308838962
1772555416107192800,2.73019287109375,0.026564766320586203,0.007546908248215914,0.1879326284278184
1772555416117124900,2.740124755859375,0.07446925778985022,-0.00044774376749992365,0.2058676596995443
1772555416127057000,2.750056884765625,0.09547755902707576,-0.0028774551324546337,0.18371004229672253
1772555416136989000,2.759989013671875,0.10440203923881053,0.0036713819891214367,0.19517054379209875
1772555416146921000,2.7699208984375,0.0760825382053852,-0.001967500680685043,0.20186346555948256
1772555416156853000,2.77985302734375,0.011430325552821159,-0.0158726919144392,0.20239888761043548
1772555416166784800,2.78978466796875,-0.03467851467132568,-0.020740736342221497,0.18900310720354319
1772555416176715800,2.7997158203125,-0.0697170948266983,0.018789017752557993,0.17233897265046835
1772555416186647800,2.809647705078125,-0.05859656587541103,0.044362434948235746,0.1879516253892332
1772555416196579800,2.819579833984375,-0.026802082207798957,0.005826806457340717,0.18867073344402013
1772555416206511600,2.82951171875,0.010512041664123534,-0.004593903661519289,0.18653397714365272
1772555416216444000,2.83944384765625,0.03870060979425907,-0.03410013026148081,0.19838000735789535
1772555416226376000,2.8493759765625,0.10791033962070941,-0.012931231635063887,0.2510522246856242
1772555416236308000,2.859307861328125,0.0819908854663372,-0.04467164702787995,0.17230715274009853
1772555416246240000,2.869239990234375,0.030813655936717987,-0.02303118536695838,0.043428990023024375
1772555416256172000,2.879172119140625,-0.046020577418804165,0.015591098494082689,0.16598335654605179
1772555416266103800,2.889103759765625,-0.09494272149801254,0.007299509358406066,0.18427406938765198
1772555416276035800,2.899035888671875,-0.09492577036321162,0.039231501800566906,0.12303254196140914
1772555416285968000,2.9089677734375,-0.06659983958899975,0.08730258200839161,0.08744275766406208
1772555416295900000,2.91889990234375,-0.0060702598243951795,0.02972220743820071,0.04481649885866791
1772555416305832000,2.92883203125,0.05367839869558811,-0.02220657111108303,-0.01522007322460413
1772555416315764000,2.938763916015625,0.11361644230782986,-0.03354220411777496,0.010653349830955266
1772555416325695700,2.94869580078125,0.0900210471868515,-0.048610301651060575,0.11848813999742269
1772555416335627800,2.958627685546875,0.027717443487048146,-0.15039470573738217,0.0323306729035452
1772555416345559800,2.968559814453125,-0.07412438987493515,-0.18423150888755915,0.020240349072031677
1772555416355491800,2.978491943359375,-0.4049310462117195,0.3950371364459395,0.14258384932335466
1772555416365423900,2.988423828125,-0.6671510730564594,0.6571401127822697,-0.034119309885986146
1772555416375356000,2.99835595703125,-0.38902503654956816,0.1533564781524241,-0.16177523733172564
1772555416385287700,3.00828759765625,-0.15517711770832537,-0.00040142040774226187,-0.06932166576832532
1772555416395218400,3.018218505859375,0.023417700466513633,-0.004934387662261724,0.15776432118993253
1772555416405150500,3.028150390625,0.11650982566177845,-0.08070040726438164,0.307072985256277
1772555416415082500,3.03808251953125,0.19321546420156954,-0.18298209334835408,0.3161305537957698
1772555416425014300,3.04801416015625,0.2819090621769428,-0.23004969560205935,0.27983145218528804
1772555416434946300,3.0579462890625,0.37329555249810215,-0.21700287476330996,0.2376690480319783
1772555416444878300,3.06787841796875,0.3772942667454481,-0.18955095034465191,0.18936003088243306
1772555416454810400,3.077810302734375,0.29393267744779583,-0.13878054805025458,0.16782145869340748
1772555416464742400,3.087742431640625,0.1835667613685131,-0.09375848014950752,0.12859521758984774
1772555416474674400,3.09767431640625,0.07187690320909022,-0.03939896732196212,0.06881302212644368
1772555416484606200,3.107606201171875,-0.0070434887707233424,0.0016008593253791332,0.0191914245409891
1772555416494538200,3.117538330078125,-0.07182663432657718,-0.024734628283977506,-0.037029279048554596
1772555416504470300,3.12747021484375,-0.14469664022624493,-0.06760521723926068,-0.028354901140369475
1772555416514402300,3.13740234375,-0.19915420660078526,-0.0657226183630526,-0.0004523468773812055
1772555416524334300,3.147334228515625,-0.24509295095503328,-0.0575007334627211,0.027718904791772365
1772555416534266000,3.15726611328125,-0.2678121477633715,-0.04151201395317912,0.04058525449708104
1772555416544198400,3.167198486328125,-0.2882435258954763,-0.03484057336524129,0.047283948418125506
1772555416554130400,3.17713037109375,-0.31919922065138817,-0.0286345583319664,0.07065123387165367
1772555416564062500,3.1870625,-0.3083434801161289,-0.05179579981938004,0.1212560703407973
1772555416573994500,3.196994384765625,-0.25189210957586766,-0.03726531629413366,0.17921755318306384
1772555416583926500,3.206926513671875,-0.14532792386710644,-0.024621669428795574,0.19294205408766865
1772555416593857300,3.216857177734375,-0.024794249516725538,-0.024821137523651123,0.1839367637246847
1772555416603789300,3.226789306640625,0.0744096365571022,-0.022836685708165168,0.13985661631654947
1772555416613721300,3.236721435546875,0.13788111499249933,-0.02974251957386732,0.0774003062730655
1772555416623653400,3.2466533203125,0.1569891355663538,-0.0445693556971848,0.03993471816647798
1772555416633585400,3.25658544921875,0.12689677964150906,-0.06548603312820196,0.0014434768065810203
1772555416643517200,3.26651708984375,0.12048165190219878,-0.06460282055288553,-0.01739372746925801
1772555416653449200,3.27644921875,0.11440496233701705,-0.08425663844123482,-0.028968649124540388
1772555416663381200,3.28638134765625,0.09207038093209266,-0.10047902057617902,-0.01566416373029351
1772555416673313300,3.296313232421875,0.06531272238790989,-0.10499562121778726,-0.019799656099826098
1772555416683245300,3.306245361328125,0.07882920656502246,-0.09431319142282009,-0.034506117246486244
1772555416693177300,3.31617724609375,0.042786417803168296,-0.06438289419189096,-0.06829447814505547
1772555416703109400,3.326109375,0.000633037206530571,-0.02315276592001319,-0.12428572036027907
1772555416713041400,3.33604150390625,-0.07973696905970573,0.00042889293655753134,-0.13306279145795852
1772555416722973400,3.345973388671875,-0.13800795624256132,0.05003244340866804,-0.12428667020834981
1772555416732905500,3.355905517578125,-0.18279869960546494,0.07595131304115056,-0.11064674231465906
1772555416742837500,3.36583740234375,-0.2541770056426525,0.08582724875882268,-0.07686760590216145
1772555416752769300,3.375769287109375,-0.32846155451536174,0.09107114076167344,-0.044364188513904806
1772555416762701300,3.385701416015625,-0.4103519022166729,0.08481836397722363,0.015422792722471058
1772555416772633300,3.39563330078125,-0.4617781380712986,0.08371814765036105,0.09990094669358804
1772555416782565400,3.4055654296875,-0.4787655132293701,0.07834303048327565,0.19487983548352494
1772555416792497400,3.415497314453125,-0.4342845664680004,0.07131400862932205,0.2540782762422226
1772555416802428200,3.42542822265625,-0.3282552182883024,0.07617679236009717,0.28955742150563746
1772555416812360200,3.435360107421875,-0.19063947623372077,0.08831804266124964,0.2714888635147363
1772555416822292200,3.445292236328125,-0.05964753623306751,0.07343918408975005,0.19842357250498607
1772555416832224300,3.455224365234375,0.05275719219744205,0.06931567441895603,0.14625554183973
1772555416842156300,3.46515625,0.1356786365121603,0.06608531419560312,0.11060016322657465
1772555416852088600,3.475088623046875,0.18764672415852546,0.050931730335950845,0.08712468642452731
1772555416862020400,3.485020263671875,0.21690905900001525,0.018428075485676525,0.10589436015579849
1772555416871952400,3.494952392578125,0.2375678161472082,-0.006841536457836628,0.12000287367561831
1772555416881884400,3.504884521484375,0.2774351316332817,-0.03151537446528673,0.12354390728333964
1772555416891816400,3.51481640625,0.3180330994814634,-0.06695961281210183,0.11676708835847675
1772555416901748500,3.52474853515625,0.33572248542904853,-0.07567176544740796,0.12094957994120195
1772555416911680500,3.534680419921875,0.32938217649161816,-0.07492723069041966,0.12401070281118154
1772555416921612300,3.5446123046875,0.3454056750535965,-0.06340586585327983,0.11619407424349337
1772555416931544300,3.55454443359375,0.3382815222620964,-0.06370967110544443,0.12307356809154152
1772555416941476400,3.564476318359375,0.2944710221081972,-0.05161167542412877,0.10079024194981902
1772555416951408400,3.574408447265625,0.21816052036583422,-0.04534823111519217,0.0754579765662551
1772555416961340400,3.58434033203125,0.11499708301126957,-0.025348376268148422,0.07544635919369756
1772555416971272200,3.594272216796875,-0.02676934898197651,-0.002543254742026329,0.0948277168162167
1772555416981204200,3.604204345703125,-0.13756313508450985,0.029867461127787827,0.12624383215811102
1772555416991136300,3.61413623046875,-0.2293283955901861,0.05035772984027862,0.15689342010691762
1772555417001068300,3.624068359375,-0.31735154695808887,0.019025456856936216,0.1416570716009475
1772555417011000300,3.634000244140625,-0.41920682432353495,0.004857084642350674,0.14594452139548955
1772555417020932400,3.643932373046875,-0.4982733467757702,-0.0014814707294106483,0.16700564879849553
1772555417030863400,3.65386328125,-0.5492489162534475,0.009604863691329955,0.16460772081129252
1772555417040795400,3.66379541015625,-0.5391729279190302,0.022982962311059237,0.16552646135771645
1772555417050727400,3.6737275390625,-0.4824626141816377,0.04712079374566674,0.1671704657050781
1772555417060659500,3.683659423828125,-0.42514205959141255,0.046071138562262054,0.1800793211115524
1772555417070591500,3.693591552734375,-0.3716547995537519,0.035893443419039245,0.19463291151775047
1772555417080523300,3.703523193359375,-0.32514380826950073,0.014216449140012263,0.20350335998730734
1772555417090455300,3.713455322265625,-0.3204290547072887,0.009973989264667034,0.21052434466527772
1772555417100387300,3.72338720703125,-0.26215631395876404,-0.002907850270718336,0.2505435445111245
1772555417110319400,3.7333193359375,-0.17042846285402774,-0.03523059559613466,0.2482160148790106
1772555417120251400,3.74325146484375,-0.07490764920711517,-0.047441696263104675,0.25178786375010387
1772555417130183400,3.753183349609375,-0.00109013332426548,-0.06983005368188024,0.25315356261273847
1772555417140115200,3.763115234375,0.09386837026476859,-0.05797244262769818,0.24824343260889872
1772555417150047200,3.773047119140625,0.19645371547043322,-0.04254837126359343,0.2622850001060404
1772555417159979300,3.782979248046875,0.2449614335298538,-0.03696691786944866,0.26583768761893734
1772555417169911300,3.792911376953125,0.2768856810569763,-0.03536225915178656,0.2857511428241618
1772555417179843300,3.80284326171875,0.3182224845737219,-0.02609232650324702,0.33099852564707394
1772555417189775400,3.812775390625,0.3530991521656513,-0.008200695981830358,0.33745515444055196
1772555417199707400,3.822707275390625,0.36607261550724507,-0.01205444880053401,0.32987514764033254
1772555417209639400,3.832639404296875,0.34816929454803464,-0.01377133572101593,0.30720906925871966
1772555417219571500,3.842571533203125,0.33410277527272697,-0.010199906975030898,0.2807552524993196
1772555417229503500,3.85250341796875,0.2895388264030218,0.01557253992408514,0.27487373844636603
1772555417239434200,3.862434326171875,0.2215337961912155,0.037137306000292296,0.2679594838121906
1772555417249366300,3.8723662109375,0.1266454352289438,0.05232523052096367,0.2678855600594543
1772555417259298300,3.88229833984375,0.040918870365619656,0.06559373128637672,0.28778001830326394
1772555417269230300,3.892230224609375,-0.08484627489745616,0.05977116261273622,0.3239372820239514
1772555417279162400,3.902162353515625,-0.14558043732345102,0.07120470303595065,0.3197909759994596
1772555417289094400,3.912094482421875,-0.20162088897526262,0.072183192679286,0.3166659758467227
1772555417299026200,3.922026123046875,-0.21308687036335466,0.05978460661619901,0.3131497113540768
1772555417308958200,3.931958251953125,-0.18925825100839136,0.06182619544640183,0.3057805890918709
1772555417318890200,3.94189013671875,-0.16152385638654232,0.04256254591941833,0.3052493865583092
1772555417328822300,3.951822265625,-0.14006430425047875,0.02505348497480154,0.28576714411089194
1772555417338754300,3.96175439453125,-0.132902157536149,0.025367373229563235,0.24938966176826505
1772555417348686300,3.971686279296875,-0.12499240732491015,0.021649229489266873,0.23862300602225586
1772555417358618400,3.981618408203125,-0.10609598367512225,0.011235533633083104,0.23966340018697083
1772555417368550400,3.99155029296875,-0.06658931819498538,-0.005034194774925708,0.23728945586355402
1772555417378482400,4.001482421875,-0.0196545485407114,-0.03413710127100348,0.19853976449687033
1772555417388414500,4.01141455078125,0.01637947239279747,-0.06694003132879733,0.15770722070783375
1772555417398346500,4.021346435546875,0.07063011801838874,-0.06992796109840274,0.14154612203976139
1772555417408278500,4.031278564453125,0.12853577902019023,-0.06396919882446526,0.11658648936087265
1772555417418210600,4.04121044921875,0.15708090550303458,-0.07640344072282314,0.0818217211782001
1772555417428142600,4.051142578125,0.20332886193692684,-0.0703860801294446,0.05721563291102647
1772555417438074600,4.06107470703125,0.24998832178115843,-0.07233458384871483,0.050488516613095995
1772555417448006400,4.07100634765625,0.28142273996472356,-0.08480302027761935,0.04873798315133899
1772555417457938400,4.0809384765625,0.2966390137970447,-0.09259864258989692,0.0159125124681741
1772555417467869400,4.090869384765625,0.26984569941759107,-0.07786708353459834,-0.004711538691818714
1772555417477801500,4.100801513671875,0.2255114676505327,-0.03230287158116698,-0.012979308560490607
1772555417487733200,4.110733154296875,0.17024492298066615,0.0014632044203579425,-0.04386489722225815
1772555417497665300,4.120665283203125,0.12693009738922117,0.0191698337636888,-0.04871489453669637
1772555417507597600,4.13059765625,0.10352993257939815,0.03185395876988768,-0.05394618278630078
1772555417517529600,4.140529541015625,0.09977554848194121,0.049035102934390305,-0.06405643871650099
1772555417527461600,4.150461669921875,0.09595628245472908,0.05656856717914342,-0.09548428102880716
1772555417537393700,4.1603935546875,0.030834114202857015,0.060357730329036706,-0.09824881383869796
1772555417547325400,4.170325439453125,-0.018153496327996253,0.06369841905906796,-0.0958166547883302
1772555417557257500,4.180257568359375,-0.07611117977797985,0.06021569150984287,-0.08229394179983064
1772555417567189500,4.190189453125,-0.15581424656808376,0.06864581233337522,-0.049372865255083886
1772555417577121500,4.20012158203125,-0.16206570817828178,0.06830255185365676,-0.0414143439986743
1772555417587053600,4.210053466796875,-0.13981120627224444,0.07371171742081642,-0.0008079005830921233
1772555417596985600,4.219985595703125,-0.0974497358828783,0.05336494883224368,0.006934237976279109
1772555417606917400,4.22991748046875,-0.07170330020785332,0.03039075434952974,0.01615541784595698
1772555417616849400,4.239849365234375,-0.04066284977793693,0.012612959466129541,0.03723959733098745
1772555417626781400,4.249781494140625,-0.031360768425464626,-0.010896510937064886,0.05732459144452586
1772555417636713500,4.25971337890625,-0.04168167143166065,-0.016558043830096722,0.07477779401605948
1772555417646645500,4.2696455078125,-0.06131809979379177,-0.02371931376159191,0.0737615479119122
1772555417656577500,4.27957763671875,-0.05639233382940292,-0.002461129416525364,0.06507736099576578
1772555417666509300,4.28950927734375,-0.052662499651312825,0.0018074878133833407,0.07084419916048645
1772555417676441300,4.29944140625,-0.04027823437452316,-0.01817293168082833,0.08871518875267356
1772555417686372600,4.30937255859375,-0.028631635722517965,-0.043603141013532874,0.1116653630389832
1772555417696304600,4.3193046875,-0.009935118559002875,-0.06122413790002465,0.09922978770006448
1772555417706236400,4.329236328125,-0.010816577568650246,-0.0678835957892239,0.0927008791216649
1772555417716168400,4.33916845703125,-0.00014846855998039245,-0.07864347473457454,0.08857572548305616
1772555417726100500,4.3491005859375,0.007364975810050964,-0.08462021105661988,0.09283897241810336
1772555417736032500,4.359032470703125,-0.0189051914781332,-0.08297595098093151,0.09028408203721046
1772555417745964500,4.368964599609375,-0.06275485459864139,-0.07351371063068508,0.08230230776937678
1772555417755896600,4.378896484375,-0.07274024204015732,-0.04922638772279024,0.09566029518283903
1772555417765828400,4.388828369140625,-0.08370411912500858,-0.0456738098077476,0.11972856851257384
1772555417775760400,4.398760498046875,-0.09317746539115905,-0.06019917876645922,0.1507460033930838
1772555417785692400,4.4086923828125,-0.0877116012006998,-0.05379924859628081,0.18994809643607585
1772555417795624400,4.41862451171875,-0.048048868376016615,-0.07026420731544494,0.2335514018463902
1772555417805556500,4.428556396484375,-0.05534136347174644,-0.09921192324981093,0.2689697385669686
1772555417815488500,4.438488525390625,-0.07255670216679573,-0.12538739799186588,0.2829337655821815
1772555417825420300,4.448420166015625,-0.08314356263279915,-0.10814590194225311,0.28389881122205407
1772555417835352300,4.458352294921875,-0.10897475398182868,-0.07511340091228484,0.26506827414901923
1772555417845284400,4.468284423828125,-0.15185644885301589,-0.04346680128276348,0.24022781087039038
1772555417855216400,4.47821630859375,-0.14429098203480242,-0.020622078398615122,0.23258968067476524
1772555417865148700,4.488148681640625,-0.09292202932536602,-0.0011729893021285532,0.22812744056889786
1772555417875080700,4.498080810546875,-0.017597031489014623,-0.015189531955868005,0.20464056559000163
1772555417885012500,4.508012451171875,0.0440583374351263,-0.030051001001149415,0.17747427144600078
1772555417894944500,4.517944580078125,0.0866577082335949,-0.02450330374613404,0.16253599257115273
1772555417904876500,4.52787646484375,0.10682429794967174,-0.019083909045904873,0.1493883417064324
1772555417914807600,4.5378076171875,0.07863806790709495,-0.03406388990432024,0.15850702931601554
1772555417924739300,4.5477392578125,0.025678046613931655,-0.028106881196051835,0.18129185697278008
1772555417934671400,4.55767138671875,0.009138999745249747,-0.021076398037374017,0.19630630635637789
1772555417944603400,4.567603271484375,0.030472879675030706,-0.019037147294729946,0.17353148863697423
1772555417954535400,4.577535400390625,0.07875964846014977,-0.02488134327828884,0.12598319019423798
1772555417964467500,4.587467529296875,0.09866320332586764,-0.01104439497515559,0.08103404139922932
1772555417974399500,4.5973994140625,0.1179495030760765,-0.028894670572876927,0.05862995668835937
1772555417984331300,4.607331298828125,0.08263678215444087,-0.05359335076063871,0.06369482059618457
1772555417994263300,4.61726318359375,0.03458966734409332,-0.04412395001724362,0.0926060221787542
1772555418004195300,4.6271953125,-0.0220814834266901,-0.03463336035534739,0.11213634155159816
1772555418014127600,4.637127685546875,-0.045207507470250125,-0.03144508570805192,0.11154332582820206
1772555418024059600,4.6470595703125,-0.053773675763607025,-0.027252164062857628,0.10574786435719578
1772555418033991700,4.65699169921875,-0.04025309993326664,-0.02636106044203043,0.10419774883836508
1772555418043923500,4.66692333984375,-0.06915595381259917,-0.014838380430638788,0.11707449207352473
1772555418053855500,4.67685546875,-0.1047170965373516,-0.01719897208213806,0.12773894782038406
1772555418063787500,4.68678759765625,-0.14406827919483184,-0.013032646182924509,0.15408236300786957
1772555418073719600,4.696719482421875,-0.18061492582559585,-0.012076952893286943,0.16933301403382792
1772555418083651600,4.706651611328125,-0.1821726766616106,-0.0019391513690352438,0.16873095648745073
1772555418093583600,4.71658349609375,-0.14875322214066983,0.014967559768259524,0.1702114591024816
1772555418103515400,4.726515380859375,-0.10476794994175434,0.013887363316118716,0.15554439838444814
1772555418113447400,4.736447509765625,-0.08951134409904479,0.009872282455861569,0.1512648213691078
1772555418123379500,4.74637939453125,-0.11511106477975845,0.027654168992489576,0.15881678938493132
1772555418133311500,4.7563115234375,-0.15023381608724592,0.04097191572710871,0.17129326298981903
1772555418143242200,4.7662421875,-0.12705752316117286,0.044373686994612214,0.16044450018461792
1772555418153174500,4.776174560546875,-0.08030220172703266,0.0530241725705564,0.13923461196068673
1772555418163106600,4.7861064453125,-0.005900163954496383,0.0351201209589839,0.13645879057180135
1772555418173038600,4.79603857421875,0.0652899260342121,0.024959961472451685,0.14646845393804833
1772555418182970600,4.805970703125,0.09320786052942276,0.0037587680116295814,0.16695897837886586
1772555418192902700,4.815902587890625,0.08686287541687487,-0.014607932675629853,0.17770241764606906
1772555418202834400,4.82583447265625,0.07280395492613315,-0.005994125848263501,0.20067104090452192
1772555418212766500,4.835766357421875,0.03952653922438621,-0.011030512580275535,0.21399368300996718
1772555418222698500,4.845698486328125,0.023954876083135603,-0.01392141171619296,0.2352884913046844
1772555418232630500,4.855630615234375,-0.002404723054170608,-0.0030723931826651093,0.2378705071545206
1772555418242562600,4.8655625,-0.005025134685635566,-0.003457885368913412,0.21187122922958804
1772555418252494600,4.87549462890625,0.007103110003471374,0.0023303426437079906,0.19891818762151522
1772555418262426400,4.88542626953125,0.05509995593130588,0.0018875673122704028,0.17531875564623622
1772555418272358400,4.8953583984375,0.1057762502014637,-0.021243279036879538,0.16291510981554164
1772555418282290400,4.90529052734375,0.12692775930166245,-0.038493396784365176,0.16311655067177488
1772555418292222500,4.915222412109375,0.11401450171470641,-0.048737873553484676,0.1701868909168057
1772555418302154500,4.925154541015625,0.06956395009160041,-0.048290568177402016,0.1859315908037126
1772555418312086500,4.93508642578125,0.024565116935968398,-0.046544455162435765,0.19427147606052458
1772555418322018300,4.945018310546875,0.004514262554049492,-0.04090864123255014,0.1970344197015278
1772555418331950300,4.954950439453125,-0.04124737166762352,-0.02251651384308934,0.18349097445225343
1772555418341882400,4.96488232421875,-0.08881284044086933,-0.0008558861769735812,0.15186406590389087
1772555418351814400,4.974814453125,-0.1021077908217907,0.03459916582480073,0.13260911114001647
1772555418361746400,4.984746337890625,-0.08270634025931357,0.06961699545308947,0.09134431341355666
1772555418371678500,4.994678466796875,-0.06582768617272376,0.06805895235612988,0.0398727953787893
1772555418381609500,5.004609375,0.0017424597531557082,0.06595116642192006,0.012150145993661135
1772555418391542000,5.0145419921875,0.024303251129388807,0.058735682085156435,0.01792145940409973
1772555418401474000,5.02447412109375,0.04687222581207752,0.005931289745122194,0.014876246489305049
1772555418411406000,5.034406005859375,0.08046002263724804,-0.013677812218666076,0.0012515526973642407
1772555418421338000,5.044338134765625,0.08410393209755421,-0.0324859730631113,-0.022997484026756138
1772555418431270100,5.054270263671875,0.054370472612977026,-0.08070654474422335,-0.0490671237741597
1772555418441202000,5.064201904296875,0.02552957805395126,-0.0975935282677412,-0.07077836738266051
1772555418451134000,5.074134033203125,0.006263152047991752,-0.08915463961586356,-0.08531400200705974
1772555418461066000,5.08406591796875,-0.018355156379938124,-0.08922492837309837,-0.09297783289952204
1772555418470998000,5.093998046875,-0.013754969108104705,-0.07635580218881369,-0.11352476370269432
1772555418480930000,5.103929931640625,-0.021348492977023122,-0.05720438086465001,-0.11660239931605755
1772555418490862000,5.113862060546875,-0.059901218733191486,-0.0325993703097105,-0.11899070095838978
1772555418500793900,5.1237939453125,-0.10076748212873936,-0.014724398662149906,-0.10092389653315767
1772555418510726000,5.133725830078125,-0.10922142221927642,-0.02172477894350886,-0.05428991819005459
1772555418520658000,5.143657958984375,-0.15221534529328345,-0.026727117275446653,0.0020416984280571342
1772555418530590000,5.15358984375,-0.14905600447952747,-0.04825052842795849,0.05380025324327871
1772555418540522000,5.16352197265625,-0.13900164345502852,-0.06531944438964128,0.12373161187516525
1772555418550454000,5.1734541015625,-0.137812725931406,-0.07029270275756716,0.16543759576417505
1772555418560386000,5.183385986328125,-0.14293606029450892,-0.08611337222382426,0.20103625748772172
1772555418570318000,5.193318115234375,-0.16020868213474748,-0.08981266513317823,0.2312700311772525
1772555418580250000,5.20325,-0.1840460693180561,-0.06693667032793164,0.24993107516858726
1772555418590182100,5.21318212890625,-0.20615911692678926,-0.04585208898410201,0.2597948455244303
1772555418600114200,5.2231142578125,-0.22184008566141128,-0.03402326563298702,0.2499167361159809
1772555418610045000,5.233044921875,-0.20371932255923747,-0.023525544755160808,0.24794868744602425
1772555418619977000,5.24297705078125,-0.17848785066902637,-0.021821225055307147,0.2573962782164104
1772555418629909000,5.252908935546875,-0.14523615393042563,-0.03959361311122775,0.2652977903222665
1772555418639841000,5.262841064453125,-0.05837737016677856,-0.05037964941114187,0.2772315170862712
1772555418649773000,5.27277294921875,0.03829670516848564,-0.08812441978529095,0.267029089360591
1772555418659704800,5.282704833984375,0.1143634612828493,-0.12679273474514483,0.2666567671831697
1772555418669636900,5.292636962890625,0.17442776162326334,-0.14669862769842146,0.269256848412659
1772555418679569000,5.30256884765625,0.23447394178509712,-0.16522504899203777,0.2633768139307387
1772555418689501000,5.3125009765625,0.276464825296402,-0.15428528343513606,0.23335343158887698
1772555418699433200,5.32243310546875,0.2473971362441778,-0.1338154729887843,0.18788646946484222
1772555418709365200,5.332365234375,0.1445148539185524,-0.09741641813516616,0.1564562159997411
1772555418719297000,5.342297119140625,0.03926350437402725,-0.046971886794269085,0.12981538876825943
1772555418729229000,5.35222900390625,-0.042567222094535825,0.0007493570625782013,0.11793680799128486
1772555418739161000,5.3621611328125,-0.07730535799860953,0.028760376668721437,0.09943510101381689
1772555418749093000,5.372093017578125,-0.0805658210992813,0.04683496254161,0.09504521375810727
1772555418759025200,5.382025146484375,-0.03840250363051891,0.07409618669375777,0.08955434299055487
1772555418768957000,5.39195703125,0.007288987964391708,0.07941080584526061,0.09702433181134984
1772555418778889000,5.401888916015625,0.023821020570397377,0.07034794007614255,0.10910391505314036
1772555418788821000,5.411821044921875,0.041598669323325156,0.07597089452445506,0.1095173546922393
1772555418798753000,5.4217529296875,0.05522153648436069,0.08902443736493587,0.08510761098107322
1772555418808685000,5.43168505859375,0.07614625109136104,0.10923998078927397,0.06060443509910255
1772555418818617000,5.4416171875,0.09139993432462215,0.1161477143511176,0.01828189021432772
1772555418828548900,5.451548828125,0.04768120410740375,0.10644786585271358,-0.009131912417337297
1772555418838481000,5.46148095703125,-0.008297872745990753,0.10738616961613297,-0.018941322237439454
1772555418848412200,5.471412109375,-0.10259586659967898,0.11301087763011455,-0.016715006223786622
1772555418858344200,5.48134423828125,-0.1650187127649784,0.11106441973745822,0.01364206505184993
1772555418868276200,5.491276123046875,-0.1680991431236267,0.11243556196019053,0.03265511908493936
1772555418878208000,5.5012080078125,-0.09771920047402381,0.10018456767424941,0.058011587327998125
1772555418888140000,5.51114013671875,-0.0346691623210907,0.08060323050022125,0.0940131672966294
1772555418898072000,5.521072021484375,0.0177723880559206,0.027831425255537032,0.13332336035659537
1772555418908004000,5.531004150390625,0.0592646743953228,-0.011496522656828165,0.19741331775020807
1772555418917936000,5.54093603515625,0.09414368007481097,-0.047501463626325124,0.2507216775570065
1772555418927868200,5.5508681640625,0.12270400412678718,-0.09002557723149657,0.2765929451880976
1772555418937800000,5.560800048828125,0.10509060602486132,-0.11630407395660877,0.26808468109443784
1772555418947732000,5.57073193359375,0.09655483286976814,-0.11407222325131297,0.2565291217267513
1772555418957664000,5.5806640625,0.07509761882126331,-0.12154650465473532,0.24825406360076738
1772555418967596000,5.590595947265625,0.045404491347074506,-0.1264171794310212,0.237534133073315
1772555418977528000,5.600528076171875,0.02077390795946121,-0.12447042927742004,0.2401897986812517
1772555418987459800,5.6104599609375,0.001724339574575424,-0.12830460061281918,0.2424679910126142
1772555418997392000,5.620391845703125,-0.0029950901627540587,-0.15838614288270472,0.22738085998529567
1772555419007324000,5.630323974609375,0.00020808979272842406,-0.16749577040299773,0.23479497216669842
1772555419017256000,5.640255859375,0.006700374421477318,-0.17288535448685288,0.23798905550027263
1772555419027188000,5.65018798828125,-0.004642857369780541,-0.18038199385255574,0.2308629116810858
1772555419037120000,5.6601201171875,-0.019984218886494636,-0.16774258477091789,0.24594938512127845
1772555419047052000,5.670052001953125,-0.056714405390620226,-0.14428236033692954,0.25385380157027393
1772555419056984000,5.679984130859375,-0.07630582556724548,-0.1265973583035171,0.26274914701906965
1772555419066916000,5.689916015625,-0.11395663404762744,-0.113444592872262,0.24048697326323015
1772555419076848000,5.69984814453125,-0.12823065859377383,-0.10150354131832719,0.21252251447886228
1772555419086779100,5.709779052734375,-0.145011697524786,-0.07028115845024585,0.17770795233771203
1772555419096711000,5.7197109375,-0.14780921928882598,-0.02865881599038839,0.13526079469257965
1772555419106643000,5.729642822265625,-0.14102525823712347,0.009833850141614675,0.10290509694563224
1772555419116575000,5.739574951171875,-0.14918810642659663,0.04990750185474753,0.08400145810376852
1772555419126507000,5.749507080078125,-0.14147534009218216,0.08358633796423673,0.05989140972523018
1772555419136439000,5.75943896484375,-0.11909165884852409,0.10857771748825908,0.0203772185257636
1772555419146371000,5.76937109375,-0.13043372159600258,0.14444091189950703,0.010563643987197429
1772555419156302800,5.779302734375,-0.13359072432219982,0.16572306164205072,0.02523022978119552
1772555419166235000,5.78923486328125,-0.0970230349034071,0.15721446875482797,0.027466080808173865
1772555419176167000,5.7991669921875,-0.0557224717438221,0.13627455657869578,0.04398076042057946
1772555419186099000,5.809098876953125,-0.010078326421976088,0.11913725155591964,0.07074378925962373
1772555419196031000,5.819031005859375,0.029835166293382644,0.0925040961742401,0.08817929177768528
1772555419205963000,5.828962890625,0.07027239062190055,0.06517185261249542,0.07678062173845246
1772555419215895000,5.83889501953125,0.07747486934661865,0.0472413513854146,0.06593070815578103
1772555419225827000,5.8488271484375,0.08972761719822883,0.0351613297522068,0.06507652074554934
1772555419235759000,5.858759033203125,0.10094926843643189,0.03800912039875984,0.09698447472499683
1772555419245691100,5.868691162109375,0.14478431850969792,0.01879150197058916,0.09990313865067436
1772555419255623200,5.878623046875,0.1692933213442564,0.0024653672002255913,0.10429136367226019
1772555419265555000,5.888554931640625,0.18376549881100654,-0.013783610680699348,0.10803531770724803
1772555419275487000,5.898487060546875,0.200419111970067,-0.03440481229647994,0.10382628517746925
1772555419285419000,5.9084189453125,0.19969313578307626,-0.04768704932630062,0.0653655120210722
1772555419295351000,5.91835107421875,0.20559271521568298,-0.04659443178400397,0.019860683838371185
1772555419305283000,5.928282958984375,0.13809738809168337,-0.04551277402713894,-0.000737575293239206
1772555419315215000,5.938215087890625,0.04476794700920581,-0.0373985872849822,0.008895601177122443
1772555419325145900,5.948145751953125,-0.05616787742376327,-0.020845511890947816,0.026805644138064234
1772555419335078000,5.958077880859375,-0.14265490526556968,-0.012287526904046536,0.051501456515304744
1772555419345010000,5.968010009765625,-0.18728841224014758,-0.02613835760205984,0.06460320414537564
1772555419354942200,5.977942138671875,-0.2200917806893587,-0.035870062543451785,0.10514328606016933
1772555419364874200,5.987874267578125,-0.22846739484667777,-0.03960179641768336,0.13083240205738692
1772555419374806000,5.997805908203125,-0.2420557752162218,-0.044116058971732854,0.1451015312327072
1772555419384738000,6.007738037109375,-0.22615561077296734,-0.038795156209915874,0.14956609115982428
1772555419394670300,6.01767041015625,-0.182791100820899,-0.03180909671485424,0.1389521417574957
1772555419404602400,6.027602294921875,-0.16328151370882987,-0.04657046638652682,0.14945178059777245
1772555419414534400,6.037534423828125,-0.14098317266106605,-0.0683155574657023,0.14006371972858905
1772555419424466200,6.047466064453125,-0.12276713249087333,-0.0781760033532977,0.1408831646190025
1772555419434398200,6.057398193359375,-0.09180442347228526,-0.06906886005103588,0.1593865155642852
1772555419444330200,6.067330322265625,-0.057795186364650725,-0.0607458528637886,0.14324024913916364
1772555419454262300,6.07726220703125,-0.02095218713581562,-0.06150456227660179,0.1255371269271709
1772555419464194300,6.0871943359375,0.008995207360386849,-0.04282382720410824,0.11013778814552351
1772555419474126300,6.097126220703125,0.006233925953507423,-0.02053133137524128,0.0779170418898575
1772555419484058000,6.10705810546875,-0.01185293487906456,-0.0041335926733911035,0.08963031256990507
1772555419493990100,6.116990234375,-0.026891514056921004,0.012325959218293428,0.1207649440892972
1772555419503922200,6.126922119140625,-0.0321551336735487,0.020713117682933806,0.13657786864051594
1772555419513854200,6.136854248046875,-0.012910919499397277,0.012038082187622786,0.14866998257031663
1772555419523786200,6.1467861328125,0.014617138895392416,0.007192687983065843,0.14768363841408863
1772555419533718000,6.156718017578125,0.045535424250364304,0.008733049292862415,0.15080863856682553
1772555419543650000,6.166650146484375,0.045453006663918494,0.005838204634189605,0.15715762400105596
1772555419553582000,6.17658203125,0.048448681348562235,0.011125643517822026,0.16209738195817916
1772555419563514000,6.18651416015625,0.014893033227324486,0.028532267001271247,0.16752541662259027
1772555419573446400,6.1964462890625,-0.018000351592898367,0.030388270131498574,0.18222575855571777
1772555419583377200,6.206377197265625,-0.016749474748969078,0.029999563074856996,0.1858074895000085
1772555419593309200,6.21630908203125,0.01710369501411915,0.01711363188624382,0.18990016564112155
1772555419603241200,6.2262412109375,0.05359013589024544,-0.013125439032912254,0.19460003216145558
1772555419613173200,6.23617333984375,0.0913064108222723,-0.028440643195062874,0.17961225158907473
1772555419623105300,6.246105224609375,0.09764496619403362,-0.0337051395945251,0.15186749996999277
1772555419633037300,6.256037353515625,0.10112228691577911,-0.02839431983530521,0.13654982985612005
1772555419642969000,6.265968994140625,0.07105564995408058,-0.0244888368293643,0.13873868166990577
1772555419652901000,6.275901123046875,-0.005139700976014137,-0.034477585271745916,0.15100923917284234
1772555419662833200,6.285833251953125,-0.05213526090681553,-0.04322159435003996,0.15799756369022652
1772555419672765200,6.29576513671875,-0.07736614827513694,-0.0546983893930912,0.15791953001795336
1772555419682697200,6.305697265625,-0.09961422044038772,-0.057379152909666296,0.14848187611969188
1772555419692629200,6.315629150390625,-0.11194763231277464,-0.06039981590509414,0.11355830064611509
1772555419702561000,6.32556103515625,-0.08390227204561233,-0.07227379357218743,0.10413630097471177
1772555419712493000,6.3354931640625,-0.06628595133423805,-0.07439195476993918,0.08412619872828946
1772555419722425300,6.34542529296875,-0.0856377175360918,-0.08371493277996778,0.0690680745997466
1772555419732357400,6.355357421875,-0.12684417267143724,-0.08663008957430719,0.0867188090373762
1772555419742289400,6.365289306640625,-0.15914368325173853,-0.06158069625273346,0.08890292987711727
1772555419752221200,6.37522119140625,-0.17274959927797318,-0.05156403689011931,0.07729509233292192
1772555419762153200,6.3851533203125,-0.156544898930192,-0.050551352716237306,0.06892108561079949
1772555419772085200,6.395085205078125,-0.13745032235980034,-0.05362710689976811,0.07338471395615488
1772555419782017300,6.405017333984375,-0.08313771741390227,-0.04037453435584903,0.0840654632506892
1772555419791949300,6.41494921875,-0.04044482311308384,-0.04463292245268821,0.08228466251483187
1772555419801881300,6.42488134765625,-0.03480184879004955,-0.06029430970400571,0.08662378769768402
1772555419811813000,6.434813232421875,-0.03223170604109764,-0.06553659427165985,0.08495934335049242
1772555419821744000,6.444744140625,-0.029240707531571385,-0.06777779732719064,0.1026867414872162
1772555419831676200,6.45467626953125,-0.024826982742547986,-0.08194894602075219,0.12134274397725239
1772555419841608200,6.464608154296875,-0.031018823119997978,-0.06693608580604195,0.09290065774377435
1772555419851540200,6.474540283203125,-0.06770575500428676,-0.015982435899227855,0.07302789987511932
1772555419861472300,6.48447216796875,-0.08306815930902957,0.02624225636795163,0.0538636738683097
1772555419871404300,6.494404296875,-0.08286065403819083,0.06787248987331986,0.016186927229072896
1772555419881336300,6.50433642578125,-0.07288520346879959,0.1269517246991396,-0.006426416318304836
1772555419891268400,6.514268310546875,-0.08315116141736507,0.1493006268903613,-0.02706391148176044
1772555419901200400,6.524200439453125,-0.06867196968793869,0.16273776222094893,-0.03145931516280397
1772555419911132400,6.53413232421875,-0.009047229808568953,0.1638075834095478,-0.00147675802167505
1772555419921064200,6.544064208984375,0.050727147674560547,0.13702113716229797,0.024058847914263604
1772555419930996200,6.553996337890625,0.10689327153265475,0.08431494449973106,0.06857398920617998
1772555419940928300,6.56392822265625,0.11317279019355773,0.04104775744229555,0.10342734898775816
1772555419950860300,6.5738603515625,0.13391279588341712,0.023449118518084285,0.142193388701044
1772555419960792300,6.583792236328125,0.15256021320819854,0.0004205634996294975,0.1348882167868316
1772555419970724000,6.59372412109375,0.19504501771628854,-0.0010696750581264496,0.1261582545001991
1772555419980656000,6.60365625,0.18671850339770316,0.00461713840663433,0.11495684233242645
1772555419990588200,6.613588134765625,0.1183241816073656,0.007425181564688682,0.09682959469053894
1772555420000520200,6.623520263671875,0.0413701212644577,0.011803835040330887,0.09703552905879914
1772555420010452200,6.6334521484375,-0.026501053434610365,0.03861351603269577,0.09195342175522819
1772555420020384300,6.64338427734375,-0.0706798023790121,0.02962181580364704,0.08239479009211063
1772555420030316000,6.65331591796875,-0.08698328692615032,0.03787015031948685,0.09269428498409688
1772555420040248000,6.663248046875,-0.10517360813319683,0.032750907609611746,0.11578931110119446
1772555420050180000,6.67318017578125,-0.11801964570283889,0.007213584640622139,0.13020740202683956
1772555420060111400,6.683111328125,-0.1143552779763937,-0.019705694206058978,0.17039872530288994
1772555420070043400,6.69304345703125,-0.1067693528920412,-0.03472366898730397,0.19900462379595263
1772555420079975200,6.70297509765625,-0.09542904371023178,-0.04693842291608453,0.1736053027918562
1772555420089907200,6.7129072265625,-0.09667349081337451,-0.055135173375159496,0.17813890936719254
1772555420099839200,6.722839111328125,-0.10839549278914928,-0.04689969834089279,0.16091189850065857
1772555420109771300,6.732771240234375,-0.1199842237740755,-0.016953326757997274,0.14794391505178064
1772555420119703300,6.742703369140625,-0.11546820765435695,0.01087999819368124,0.1321863739496097
1772555420129635300,6.75263525390625,-0.08405424773693085,0.008625058873742819,0.11617831041878089
1772555420139567000,6.762567138671875,-0.04139408666193485,0.003101911538094282,0.10919995930613949
1772555420149499100,6.7724990234375,-0.007549684727191925,-0.0038416239894926547,0.1125517904846929
1772555420159431200,6.78243115234375,0.006580547434091567,-0.03310293591767549,0.10331902977507561
1772555420169363200,6.79236328125,0.006367196944355964,-0.05841200308874249,0.10523301017023623
1772555420179295200,6.802295166015625,0.018878887993097303,-0.04798720131665468,0.0948485769411549
1772555420189227300,6.812227294921875,0.03969663509428501,-0.04481383197754621,0.08148399539012462
1772555420199159000,6.822158935546875,0.04640343925654888,-0.03675035250931978,0.07614992261948063
1772555420209091000,6.832091064453125,0.03816109609007835,-0.021960487395524978,0.07436272867545485
1772555420219023000,6.842023193359375,0.0057400049567222595,-0.02040799725651741,0.09462377347564324
1772555420228955400,6.851955322265625,-0.015372925698757171,0.01138517123684287,0.12416253237202762
1772555420238887400,6.861887451171875,-0.05870762503445148,0.024765315683186052,0.1408460840116255
1772555420248819200,6.871819091796875,-0.09376841702163219,0.0004629413366317749,0.13175278657162562
1772555420258751200,6.881751220703125,-0.13979951583445072,0.011084873116016388,0.09735206592837348
1772555420268683300,6.891683349609375,-0.19342238495051858,0.040015053393691775,0.10548386139245704
1772555420278615300,6.901615234375,-0.19180852001309392,0.006228957517445087,0.1730583729662001
1772555420288547300,6.91154736328125,-0.11243570809066294,-0.07222717795148491,0.36154629718922077
1772555420298479400,6.921479248046875,-0.06324000776708126,-0.09594751462638378,0.4625787869296968
1772555420308411100,6.9314111328125,-0.09316869756281375,-0.08342150279134511,0.41711398023013024
1772555420318342100,6.941342041015625,-0.059875499770045276,-0.0500133003167808,0.297720744619146
1772555420328274200,6.951274169921875,0.01698211446106434,-0.014202274484187363,0.2480586323602125
1772555420338206200,6.961206298828125,0.08820201506614685,-0.024901217022538183,0.12341547686439007
1772555420348138200,6.97113818359375,0.14093115021288394,-0.02785261417403817,0.09392875868249684
1772555420358070000,6.981070068359375,0.09937632003128528,-0.03012947306483984,0.09309782428368925
1772555420368002300,6.991002197265625,0.03055412821769714,-0.04630407053530216,0.03578399169519544
1772555420377934300,7.000934326171875,-0.046294133663177486,-0.028343904822319743,0.0397168376320973
1772555420387866400,7.010866455078125,-0.07647182978391646,-0.04773673368692398,0.03868376825731248
1772555420397798400,7.02079833984375,-0.0703530546426773,-0.029810616374015806,0.04441752613633871
1772555420407730400,7.03073046875,-0.036011224579811096,-0.016055793396383522,0.11087883403748273
1772555420417662200,7.040662109375,-0.00799216779768467,-0.018205811037123203,0.15469963638968764
1772555420427594200,7.05059423828125,-0.0020487492233514783,-0.050696752536296845,0.1717007478121668
1772555420437526300,7.0605263671875,0.03278758635818958,-0.04799143910035491,0.2126665260594338
1772555420447458300,7.070458251953125,0.037570144459605215,-0.06906389161497355,0.2134894232822582
1772555420457390300,7.080390380859375,0.014243044885993003,-0.09962196535542607,0.20290654487162826
1772555420467322000,7.090322021484375,-0.042784664237499236,-0.09770151868686079,0.17005469763819128
1772555420477254100,7.100254150390625,-0.0982861867070198,-0.05528218063041568,0.14389138825796544
1772555420487186200,7.110186279296875,-0.13833470397889613,-0.009187515062093735,0.10106401738990098
1772555420497118200,7.1201181640625,-0.17124036375880242,0.0223069627456367,0.035857531855441625
1772555420507050200,7.13005029296875,-0.18045359778404235,0.03356704629808664,-0.005259235702455044
1772555420516982300,7.139982177734375,-0.17297347116172312,0.024916414591670034,0.0001581131711602211
1772555420526914000,7.1499140625,-0.1097626894891262,0.034022827241569756,0.010816979427449405
1772555420536846000,7.15984619140625,0.008871288719773293,0.016625848369300363,0.03374854034483433
1772555420546778000,7.169778076171875,0.12330372358560561,-0.016252923403680324,0.03320438699815422
1772555420556710100,7.179710205078125,0.19830489629507064,-0.02893324901759624,0.0019220541037619113
1772555420566642200,7.18964208984375,0.22574060023128986,0.0009236907161772251,-0.012104900346137582
1772555420576573200,7.1995732421875,0.251550164270401,0.03589636602848768,-0.02847936777025461
1772555420586505200,7.209505126953125,0.231575882256031,0.07179156301319599,-0.025648601323738692
1772555420596437200,7.219437255859375,0.16362287449240684,0.08402838264331221,-0.028630028287321328
1772555420606369300,7.229369384765625,0.08391103987395764,0.08256488596200942,0.014232815752923489
1772555420616301300,7.23930126953125,0.0450561163008213,0.07650222492218017,0.07469860956631601
1772555420626233300,7.2492333984375,0.02314940491914749,0.06872925283312797,0.14320315026547759
1772555420636165000,7.2591650390625,-0.007395955470204353,0.05350055791065097,0.20573902835119515
1772555420646097200,7.26909716796875,-0.01814355945587158,0.06172755737751722,0.22540724009107796
1772555420656029200,7.279029296875,-0.0218418294519186,0.07755567949786782,0.2160351622423157
1772555420665961200,7.288961181640625,0.002804536026716232,0.08960545212328433,0.22449228067062793
1772555420675893200,7.298893310546875,0.05224222841262817,0.08679580153003334,0.20303323999121783
1772555420685825000,7.308824951171875,0.10147241552770137,0.059728638645261525,0.18068503191974014
1772555420695757000,7.318757080078125,0.15206804577708244,0.028830957686901092,0.19810151921007782
1772555420705689000,7.328689208984375,0.17590952461361883,0.013395342015475034,0.19951003430113196
1772555420715621000,7.33862109375,0.17649872267842293,-0.019164719197154043,0.18574209611359982
1772555420725553200,7.34855322265625,0.11423311290144919,-0.07227686231210828,0.19991434078570455
1772555420735485400,7.3584853515625,0.024495558831095693,-0.08694923852607607,0.21636614776235072
1772555420745417200,7.368417236328125,-0.051966334080696105,-0.07846957947239279,0.22569332702346145
1772555420755349200,7.378349365234375,-0.11556699185371398,-0.06245002643316984,0.23883666703924536
1772555420765281300,7.38828125,-0.13963351161777973,-0.05988733633831143,0.20212076478879898
1772555420775213300,7.39821337890625,-0.11967968786954879,-0.03774433198273182,0.15543496492691336
1772555420785145300,7.408145263671875,-0.10450140796005725,-0.04100990964993834,0.14291169303823262
1772555420795077400,7.418077392578125,-0.09921966816484927,-0.05500394821092486,0.14275471237823367
1772555420805009200,7.428009033203125,-0.08333353224694728,-0.050757688943296665,0.15450027789268642
1772555420814941200,7.437941162109375,-0.04994564190804958,-0.056013855905830856,0.18720365656614302
1772555420824872200,7.4478720703125,-0.05479366646111011,-0.05625014887973666,0.19257778735253958
1772555420834804200,7.45780419921875,-0.02550269004702568,-0.09824205530434846,0.1852749169932678
1772555420844736300,7.467736328125,0.012320552390813826,-0.09806976747736335,0.15697631261739878
1772555420854668000,7.47766796875,0.01855097121298313,-0.08080693637877702,0.13277148036118597
1772555420864600000,7.48760009765625,0.041543724265694616,-0.06233531401231884,0.09376012411732226
1772555420874532000,7.497531982421875,0.07153554242551326,-0.04047799473032355,0.03393664679545909
1772555420884464400,7.50746435546875,0.08115326559841632,-0.038930473027378315,0.011092471900582313
1772555420894396400,7.517396484375,0.07549217109680176,-0.042642625418305394,0.03221902922261506
1772555420904328200,7.527328125,0.033329438149929044,-0.04740662494972348,0.054125338745489714
1772555420914260200,7.53726025390625,-0.030216274565458296,-0.04095949463695287,0.10151844662651419
1772555420924192300,7.547192138671875,-0.056985039025545116,-0.015870061565935612,0.10435308553054928
1772555420934124300,7.557124267578125,-0.12662731505036354,0.028317455206811427,0.03386880572363734
1772555420944056300,7.567056396484375,-0.1456248609870672,0.06039455520808697,0.022423063405975698
1772555420953988400,7.57698828125,-0.12955518519580364,0.09442439671233296,-0.005662227012775838
1772555420963920100,7.586920166015625,-0.10249299074709414,0.12777180891036988,-0.08065474149174988
1772555420973852200,7.59685205078125,-0.04039455423057079,0.14063815861567855,-0.10941811383515596
1772555420983784200,7.6067841796875,0.04822422494292259,0.10410261790081858,-0.12608929918352513
1772555420993716200,7.61671630859375,0.12819675632417202,0.04596855497062206,-0.1008629783924669
1772555421003648300,7.626648193359375,0.18779519271850584,-0.018854630334675312,-0.04822469986695796
1772555421013580300,7.636580322265625,0.1599637674629688,-0.04698401562348008,-0.018673392016254363
1772555421023512000,7.646511962890625,0.08932663518190384,-0.054308513292670245,0.04379278183411806
1772555421033444000,7.656444091796875,0.02895955250263214,-0.08406009295582771,0.042246502240188416
1772555421043376000,7.666376220703125,-0.005267711269855499,-0.07144231118410825,-0.013468407251685856
1772555421053308200,7.67630810546875,-0.04547697206139564,-0.038576691153645516,-0.08777578901071101
1772555421063240200,7.686240234375,-0.09592179566323757,0.003264554753899574,-0.12476846237592398
1772555421073172200,7.696172119140625,-0.13520575830340384,0.02429623686671257,-0.14191826155409215
1772555421083103200,7.706103271484375,-0.17835750228762626,0.047463908094912764,-0.11427037617191671
1772555421093035300,7.71603515625,-0.22495324924588203,0.06618848230913281,-0.09415949869845062
1772555421102967300,7.72596728515625,-0.23510873255729675,0.07521276963353156,-0.06428180843759328
1772555421112899300,7.7358994140625,-0.21274843218922615,0.06536795970648526,-0.03618800591882318
1772555421122831000,7.7458310546875,-0.16296353380084036,0.02434519057497382,-0.017795659333653745
1772555421132763100,7.75576318359375,-0.07962590990066527,-0.021517419803142545,0.02379274432398379
1772555421142695200,7.765695068359375,0.008185644543170929,-0.07966565738916397,0.10479195187184959
1772555421152627200,7.775627197265625,0.04427987123131752,-0.15606749067679046,0.1812660101454705
1772555421162559200,7.785559326171875,0.020345453414320945,-0.21829510653093456,0.22080917171109465
1772555421172491300,7.7954912109375,-0.02322831537425518,-0.21293431015014647,0.22236904143895952
1772555421182423000,7.805423095703125,-0.041703298741579055,-0.16766352818533778,0.2057346809696406
1772555421192355000,7.81535498046875,-0.058018473726511,-0.1320325350947678,0.15888671281598507
1772555421202287000,7.825287109375,-0.02626023041605949,-0.09238046979457139,0.09877042656000704
1772555421212219100,7.83521923828125,0.015230302357673644,-0.07086115029528736,0.07415525993723422
1772555421222151200,7.845151123046875,0.06537000553309917,-0.07048764080777764,0.11334584520552307
1772555421232083200,7.855083251953125,0.0923304931730032,-0.11515899557471275,0.12868874109219758
1772555421242015200,7.86501513671875,0.09286708426773548,-0.13638459282442927,0.13696787260510027
1772555421251947300,7.874947265625,0.036790976780653,-0.13356719731613992,0.09932155763674527
1772555421261879300,7.88487939453125,-0.035332010143995285,-0.09606734161376952,0.033540669747814535
1772555421271811300,7.894811279296875,-0.08005027279257775,-0.03247428262531757,0.008232954283617436
1772555421281743400,7.904743408203125,-0.05257306780219078,0.004402180481702089,0.020186938384361565
1772555421291675400,7.91467529296875,-0.040886721661686894,-0.0024468086302280425,0.03504237954765558
1772555421301607200,7.924607177734375,0.0031149171501398086,-0.038621407078206535,0.05100680486615747
1772555421311539200,7.934539306640625,0.04423077139258384,-0.03355082581564784,0.11756989264134317
1772555421321471200,7.94447119140625,0.10006430229544638,-0.035680385190248486,0.1730307177742943
1772555421331402200,7.95440234375,0.11259411352276802,-0.06965440485402942,0.2166251274921
1772555421341334000,7.964333984375,0.05785831472873688,-0.07403598093912005,0.2449248643791303
1772555421351266000,7.97426611328125,0.02181318787932396,-0.04904284784942865,0.19686014084685594
1772555421361198000,7.984197998046875,-0.008148819664120673,0.002432633974403143,0.24093016871977596
1772555421371130000,7.994130126953125,-0.0989829367995262,0.02363748069703579,0.37952714036405083
1772555421381062100,8.004062255859376,-0.07912848177254199,-0.06296046017333864,0.33798224705457686
