time,seconds_elapsed,z,y,x
1772445426793885400,0.072885498046875,-0.16142506897449493,0.1618536114692688,-0.04808709770441055
1772445426803817500,0.0828173828125,-0.18834377825260162,0.2195739448070526,0.0007203659042716026
1772445426813749500,0.09274951171875,-0.21322277188301086,0.2425844520330429,0.07533867657184601
1772445426823682600,0.1026826171875,-0.22805269062519073,0.24125395715236664,0.15244071185588837
1772445426833614600,0.112614501953125,-0.24027234315872192,0.26136642694473267,0.2180817872285843
1772445426843547600,0.122547607421875,-0.24109768867492676,0.28600558638572693,0.2771863043308258
1772445426853479700,0.132479736328125,-0.22882744669914246,0.2950874865055084,0.30254384875297546
1772445426863412700,0.142412841796875,-0.21248331665992737,0.2723671495914459,0.2901810109615326
1772445426873344800,0.1523447265625,-0.19394531846046448,0.23598648607730865,0.2403697818517685
1772445426883276500,0.162276611328125,-0.16866599023342133,0.19843436777591705,0.15944337844848633
1772445426893209300,0.172209228515625,-0.14752502739429474,0.16692198812961578,0.05258536338806152
1772445426903141400,0.182141357421875,-0.1264929473400116,0.13897192478179932,-0.06789088994264603
1772445426913074400,0.192074462890625,-0.10823563486337662,0.09702926874160767,-0.18288086354732513
1772445426923006500,0.20200634765625,-0.08621621876955032,0.029890405014157295,-0.2869548201560974
1772445426932939500,0.211939453125,-0.05887380614876747,-0.06104668974876404,-0.36606401205062866
1772445426942871600,0.22187158203125,-0.02658873051404953,-0.14425675570964813,-0.41234657168388367
1772445426952803600,0.231803466796875,0.007258715573698282,-0.2076900601387024,-0.43073731660842896
1772445426962736600,0.241736572265625,0.031290341168642044,-0.25724121928215027,-0.415149450302124
1772445426972668700,0.251668701171875,0.03891151025891304,-0.2876816689968109,-0.3773341476917267
1772445426982601700,0.261601806640625,0.04750538617372513,-0.28556615114212036,-0.3150724172592163
1772445426992533800,0.27153369140625,0.047661714255809784,-0.26044961810112,-0.23696269094944
1772445427002466600,0.281466552734375,0.039978932589292526,-0.20634961128234863,-0.15570451319217682
1772445427012398600,0.291398681640625,0.024999450892210007,-0.13116538524627686,-0.08101271092891693
1772445427022330600,0.30133056640625,0.010190258733928204,-0.06389858573675156,-0.02877615951001644
1772445427032263400,0.311263427734375,0.0011038193479180336,-0.008954644203186035,0.0038552857004106045
1772445427042195500,0.321195556640625,-0.010275845415890217,0.029097365215420723,0.012873584404587746
1772445427052128500,0.33112841796875,-0.015350231900811195,0.05022022873163223,0.021894244477152824
1772445427062060500,0.341060546875,-0.021765343844890594,0.047116026282310486,0.03549989312887192
1772445427071993600,0.35099365234375,-0.01854105293750763,0.03439544141292572,0.05812664330005646
1772445427081925600,0.360925537109375,-0.008170127868652344,0.017985453829169273,0.09184661507606506
1772445427091857700,0.370857666015625,0.0021203267388045788,-0.0006683934479951859,0.12610764801502228
1772445427101790700,0.380790771484375,0.012907304801046848,-0.01278851181268692,0.15509238839149475
1772445427111722500,0.390722412109375,0.025608453899621964,-0.017637062817811966,0.17149798572063446
1772445427121655600,0.400655517578125,0.030640047043561935,-0.03038618341088295,0.1735466867685318
1772445427131587600,0.410587646484375,0.03171010687947273,-0.04196427762508392,0.15779487788677216
1772445427141520400,0.420520263671875,0.029205450788140297,-0.04162558913230896,0.1428205370903015
1772445427151452400,0.430452392578125,0.02145964652299881,-0.029311135411262512,0.12947702407836914
1772445427161384700,0.440384765625,0.010336844250559807,-0.024061497300863266,0.1154605969786644
1772445427171317500,0.4503173828125,0.008107511326670647,-0.025927040725946426,0.10000307857990265
1772445427181249500,0.46024951171875,0.003940286580473185,-0.04077654331922531,0.08880466222763062
1772445427191182600,0.4701826171875,-0.010479399003088474,-0.06135345995426178,0.07221902906894684
1772445427201114600,0.480114501953125,-0.009914165362715721,-0.06513787806034088,0.04462277516722679
1772445427211047700,0.490047607421875,-0.015541158616542816,-0.056747324764728546,0.014341570436954498
1772445427220979500,0.4999794921875,-0.011961514130234718,-0.03545825928449631,-0.009867190383374691
1772445427230911500,0.509911376953125,-0.01113087497651577,-0.024686040356755257,-0.022332914173603058
1772445427240844500,0.519844482421875,-0.010410582646727562,-0.02328385040163994,-0.03448218107223511
1772445427250776600,0.529776611328125,-0.007313060574233532,-0.024091053754091263,-0.04679397493600845
1772445427260709600,0.539709716796875,-0.006001082714647055,-0.03018188662827015,-0.06870834529399872
1772445427270641700,0.5496416015625,-0.0035528389271348715,-0.03416091576218605,-0.07946911454200745
1772445427280574500,0.559574462890625,0.010480735450983047,-0.023489488288760185,-0.07888446748256683
1772445427290506500,0.569506591796875,0.013887718319892883,0.006719548255205154,-0.058539241552352905
1772445427300438500,0.5794384765625,0.013069776818156242,0.03894602134823799,-0.022086624056100845
1772445427310371600,0.58937158203125,0.013497481122612953,0.07241582870483398,0.016014423221349716
1772445427320303600,0.5993037109375,0.009118087589740753,0.09119027107954025,0.04859491437673569
1772445427330236700,0.609236572265625,0.010817715898156166,0.10031932592391968,0.06080284342169762
1772445427340168400,0.61916845703125,0.008140929043293,0.1058257669210434,0.0709378719329834
1772445427350100500,0.6291005859375,0.007941458374261856,0.10439112037420273,0.0722886323928833
1772445427360033500,0.639033447265625,0.009442351758480072,0.10043361783027649,0.06386598199605942
1772445427369965600,0.648965576171875,0.008715841919183731,0.097370445728302,0.05870025232434273
1772445427379898600,0.658898681640625,0.00962565653026104,0.08056958764791489,0.05095542222261429
1772445427389830700,0.66883056640625,0.012794286012649536,0.0601348876953125,0.04977404326200485
1772445427399763700,0.678763671875,0.01602204702794552,0.046728648245334625,0.05579463392496109
1772445427409695700,0.68869580078125,0.014841999858617783,0.02484625019133091,0.045710839331150055
1772445427419627800,0.698627685546875,0.017314733937382698,-0.009633008390665054,0.029693011194467545
1772445427429560600,0.708560546875,0.019362440332770348,-0.02615179866552353,0.015251487493515015
1772445427439492400,0.718492431640625,0.025172311812639236,-0.026165872812271118,0.005075105465948582
1772445427449425400,0.72842529296875,0.028153453022241592,-0.021399347111582756,0.006018131040036678
1772445427459357400,0.738357421875,0.031109001487493515,-0.018051721155643463,0.0062290094792842865
1772445427469290500,0.74829052734375,0.028695642948150635,-0.012903030961751938,0.010065292939543724
1772445427479222500,0.758222412109375,0.02586849220097065,-0.015388241037726402,0.008573255501687527
1772445427489154600,0.768154541015625,0.023133693262934685,-0.010489355772733688,0.0008183969184756279
1772445427499087600,0.778087646484375,0.023276282474398613,0.006389955058693886,-0.01586288958787918
1772445427509019600,0.78801953125,0.02721988968551159,0.014491023495793343,-0.012975757010281086
1772445427518952700,0.79795263671875,0.028020808473229408,0.010849757120013237,-0.0005886871367692947
1772445427528884700,0.807884765625,0.03310052305459976,0.008259035646915436,0.016116522252559662
1772445427538817500,0.817817626953125,0.03734384849667549,-0.009120439179241657,0.030345529317855835
1772445427548749600,0.82774951171875,0.03781869262456894,-0.014758883975446224,0.038518235087394714
1772445427558681600,0.837681640625,0.03894611820578575,-0.010289758443832397,0.045765407383441925
1772445427568614400,0.847614501953125,0.038185786455869675,-0.006159729324281216,0.05253303050994873
1772445427578546400,0.85754638671875,0.03077992983162403,-0.0015438338741660118,0.06354281306266785
1772445427588479500,0.8674794921875,0.02565361000597477,0.0004162527620792389,0.07381995022296906
1772445427598411500,0.87741162109375,0.02403550036251545,-0.002163463272154331,0.08396987617015839
1772445427608344600,0.887344482421875,0.020388301461935043,0.004770874977111816,0.07888936251401901
1772445427618276600,0.897276611328125,0.018031183630228043,0.012979025021195412,0.07395589351654053
1772445427628208600,0.907208740234375,0.016413312405347824,0.010376052930951118,0.06188618764281273
1772445427638141700,0.9171416015625,0.016631921753287315,-0.00337156280875206,0.05307457968592644
1772445427648073700,0.92707373046875,0.01696854643523693,-0.01709270104765892,0.05242317169904709
1772445427658003500,0.93700341796875,0.011715532280504704,-0.01616918481886387,0.04257915914058685
1772445427667935500,0.946935546875,0.01295523438602686,0.0016252584755420685,0.027549345046281815
1772445427677867800,0.95686767578125,0.007896247319877148,0.02052823267877102,0.01966124027967453
1772445427687800600,0.966800537109375,0.005471439100801945,0.0294365081936121,0.02110360749065876
1772445427697732600,0.976732666015625,0.0030451426282525063,0.028574369847774506,0.025519084185361862
1772445427707665700,0.986665771484375,0.0055490462109446526,0.01752997562289238,0.03646733984351158
1772445427717597700,0.99659765625,0.002494540996849537,0.005937928333878517,0.03782927989959717
1772445427727530800,1.00653076171875,-0.0004011141136288643,0.0007972288876771927,0.03307979926466942
1772445427737462500,1.016462646484375,-0.000026514288038015366,0.015944086015224457,0.020390931516885757
1772445427747394600,1.02639453125,-0.004557882901281118,0.02571016177535057,0.017563987523317337
1772445427757327600,1.03632763671875,-0.0069165462628006935,0.017713215202093124,0.02770078182220459
1772445427767259600,1.046259765625,-0.004106378648430109,0.004249339923262596,0.045302942395210266
1772445427777192700,1.056192626953125,-0.0017981177661567926,-0.00792874488979578,0.06316867470741272
1772445427787124700,1.066124755859375,0.002268795855343342,-0.017137156799435616,0.07521042227745056
1772445427797057500,1.0760576171875,-0.0009151971898972988,-0.011033084243535995,0.0734986811876297
1772445427806989600,1.085989501953125,-0.0008795107714831829,0.009468995034694672,0.06795743852853775
1772445427816921600,1.095921630859375,0.005544017069041729,0.03656568378210068,0.06256316602230072
1772445427826854700,1.105854736328125,0.002757551148533821,0.04406274855136871,0.062297116965055466
1772445427836786400,1.115786376953125,0.00010096235200762749,0.03775934875011444,0.0697694942355156
1772445427846719500,1.125719482421875,0.0050094351172447205,0.020205924287438393,0.06668848544359207
1772445427856651500,1.135651611328125,0.005711859557777643,0.005257880315184593,0.053528524935245514
1772445427866583600,1.14558349609375,0.0071624829433858395,-0.005462675355374813,0.037233442068099976
1772445427876516600,1.1555166015625,0.007013718131929636,-0.019773297011852264,0.027506567537784576
1772445427886448600,1.16544873046875,0.00834423303604126,-0.02504236251115799,0.025400539860129356
1772445427896381700,1.175381591796875,0.012088267132639885,-0.017295632511377335,0.02840772643685341
1772445427906313700,1.185313720703125,0.014691771939396858,-0.012502474710345268,0.03255506604909897
1772445427916246500,1.19524658203125,0.021524673327803612,-0.024912185966968536,0.04332311078906059
1772445427926178800,1.2051787109375,0.030081141740083694,-0.03203028440475464,0.04993893578648567
1772445427936110600,1.215110595703125,0.03259670361876488,-0.03090035542845726,0.051069580018520355
1772445427946043400,1.22504345703125,0.032651033252477646,-0.02692105993628502,0.04895076900720596
1772445427955975400,1.234975341796875,0.03251904994249344,-0.02301374077796936,0.04080171883106232
1772445427965908500,1.244908447265625,0.031050583347678185,-0.020331671461462975,0.03773455694317818
1772445427975840500,1.254840576171875,0.03308399021625519,-0.018631013110280037,0.028953056782484055
1772445427985772500,1.2647724609375,0.0329018272459507,-0.014141456224024296,0.02079579420387745
1772445427995705600,1.27470556640625,0.03437422588467598,-0.00956042855978012,0.023417748510837555
1772445428005637600,1.2846376953125,0.03347141668200493,-0.0011432413011789322,0.022617734968662262
1772445428015570700,1.29457080078125,0.03392261266708374,-0.001867036335170269,0.027758296579122543
1772445428025502700,1.304502685546875,0.03275508061051369,0.0011993274092674255,0.03002517856657505
1772445428035435800,1.314435791015625,0.028467629104852676,-0.0060737645253539085,0.038310691714286804
1772445428045367800,1.324367919921875,0.028592266142368317,-0.015940243378281593,0.043452188372612
1772445428055299600,1.334299560546875,0.025668257847428322,-0.02160595916211605,0.046137191355228424
1772445428065232600,1.344232666015625,0.024314040318131447,-0.017537713050842285,0.044388025999069214
1772445428075164700,1.35416455078125,0.021206583827733994,-0.02500958740711212,0.054586462676525116
1772445428085097500,1.364097412109375,0.01835247129201889,-0.034522928297519684,0.0660838633775711
1772445428095029500,1.374029541015625,0.01612112857401371,-0.030958183109760284,0.07292605191469193
1772445428104962600,1.383962646484375,0.011387092992663383,-0.02262888103723526,0.07003811746835709
1772445428114894600,1.39389453125,0.006080816499888897,-0.018010493367910385,0.06332358717918396
1772445428124826600,1.40382666015625,0.003658139146864414,-0.006744257174432278,0.0523737333714962
1772445428134759700,1.413759765625,-0.0037400461733341217,0.01597299985587597,0.04457058012485504
1772445428144691700,1.423691650390625,-0.01127892266958952,0.032685138285160065,0.047545596957206726
1772445428154624800,1.433624755859375,-0.012419897131621838,0.035969384014606476,0.05441797524690628
1772445428164556500,1.443556640625,-0.011057157069444656,0.02076326683163643,0.07475867122411728
1772445428174488600,1.453488525390625,-0.0080331452190876,0.007458943873643875,0.08670833706855774
1772445428184421600,1.463421630859375,-0.005597950424998999,0.0000337846577167511,0.08483906090259552
1772445428194353700,1.473353759765625,-0.012202885933220387,-0.01314445398747921,0.07338625192642212
1772445428204286500,1.483286376953125,-0.015095345675945282,-0.02463679388165474,0.05978788062930107
1772445428214218500,1.493218505859375,-0.014517728239297867,-0.026967346668243408,0.04087843745946884
1772445428224150800,1.50315087890625,-0.011210082098841667,-0.018039366230368614,0.01975557766854763
1772445428234083600,1.51308349609375,-0.01774207316339016,-0.003137967549264431,0.0031783385202288628
1772445428244015600,1.523015625,-0.01690157875418663,0.00442141480743885,-0.00396745465695858
1772445428253948700,1.53294873046875,-0.013567199930548668,0.01427672803401947,-0.00603894330561161
1772445428263880400,1.54288037109375,-0.014905438758432865,0.014990454539656639,-0.007170787081122398
1772445428273813800,1.552813720703125,-0.009626204147934914,0.0014502853155136108,-0.0021317284554243088
1772445428283745500,1.56274560546875,-0.010122884064912796,-0.00505128875374794,0.0018534259870648384
1772445428293677600,1.572677490234375,-0.00596359558403492,-0.013396833091974258,0.004124179948121309
1772445428303610600,1.582610595703125,-0.00849732756614685,-0.022170351818203926,-0.0035854047164320946
1772445428313542700,1.592542724609375,-0.006497302558273077,-0.024516917765140533,-0.008590363897383213
1772445428323475700,1.602475830078125,-0.010945314541459084,-0.027033606544137,-0.013878603465855122
1772445428333407700,1.61240771484375,-0.014658522792160511,-0.02684064954519272,-0.012711707502603531
1772445428343340500,1.622340576171875,-0.014734689146280289,-0.017502542585134506,-0.01475621573626995
1772445428353272600,1.6322724609375,-0.018649261444807053,-0.008590097539126873,-0.013444570824503899
1772445428363204600,1.64220458984375,-0.024724729359149933,0.0007189828902482986,-0.008242884650826454
1772445428373137700,1.6521376953125,-0.02813279815018177,0.011352896690368652,-0.00673162005841732
1772445428383069400,1.6620693359375,-0.03262634947896004,0.020044123753905296,0.0020882366225123405
1772445428393002500,1.67200244140625,-0.032142747193574905,0.02155647985637188,0.010827654972672462
1772445428402934500,1.6819345703125,-0.03242078423500061,0.018350830301642418,0.01150090154260397
1772445428412866600,1.691866455078125,-0.028469083830714226,0.007171165198087692,0.013179941102862358
1772445428422799600,1.701799560546875,-0.025888215750455856,-0.0024228719994425774,0.014925376512110233
1772445428432731600,1.711731689453125,-0.021459627896547318,-0.0036665694788098335,0.01233875285834074
1772445428442664700,1.721664794921875,-0.023924916982650757,0.00019954144954681396,0.011146456003189087
1772445428452596700,1.7315966796875,-0.02536734938621521,0.007296724244952202,0.015114103443920612
1772445428462528800,1.74152880859375,-0.02687203511595726,0.005370458588004112,0.016537031158804893
1772445428472461800,1.7514619140625,-0.027033202350139618,0.003307076171040535,0.015789957717061043
1772445428482393600,1.7613935546875,-0.02276921458542347,0.0012993179261684418,0.010461771860718727
1772445428492326400,1.771326416015625,-0.02386687509715557,0.004583904519677162,0.009601717814803123
1772445428502258400,1.781258544921875,-0.026065316051244736,-0.0004183109849691391,0.005461301188915968
1772445428512191500,1.79119140625,-0.02347847819328308,0.0014202632009983063,0.0023442916572093964
1772445428522123500,1.80112353515625,-0.016475163400173187,0.0038155093789100647,-0.009008497931063175
1772445428532055600,1.8110556640625,-0.019992925226688385,0.005365114659070969,-0.01756919175386429
1772445428541988600,1.820988525390625,-0.023135989904403687,0.0032569561153650284,-0.027345389127731323
1772445428551920600,1.830920654296875,-0.023496253415942192,0.0013748649507761002,-0.040189653635025024
1772445428561853700,1.840853759765625,-0.02865479700267315,0.0003815051168203354,-0.04775489866733551
1772445428571785700,1.85078564453125,-0.02464127540588379,0.0007400400936603546,-0.04905484616756439
1772445428581717500,1.860717529296875,-0.024850599467754364,0.007325503975152969,-0.04441322386264801
1772445428591650800,1.87065087890625,-0.023755328729748726,0.005479205399751663,-0.034994177520275116
1772445428601582600,1.88058251953125,-0.018584536388516426,0.00032971613109111786,-0.023554304614663124
1772445428611515600,1.890515625,-0.01625155285000801,-0.0009266221895813942,-0.015977872535586357
1772445428621447700,1.90044775390625,-0.015781771391630173,-0.010487103834748268,-0.01063610427081585
1772445428631379700,1.910379638671875,-0.016582157462835312,-0.01444635447114706,-0.008800074458122253
1772445428641312500,1.9203125,-0.012593808583915234,-0.02048587054014206,-0.01148613728582859
1772445428651244300,1.930244384765625,-0.01174890249967575,-0.022960850968956947,-0.006026114337146282
1772445428661177300,1.94017724609375,-0.008462028577923775,-0.02051660232245922,-0.002752291038632393
1772445428671109000,1.950109130859375,-0.0081668421626091,-0.01500313077121973,0.005455526057630777
1772445428681042400,1.96004248046875,-0.007636073976755142,-0.004741438664495945,0.0008826125413179398
1772445428690974200,1.96997412109375,-0.01121706236153841,0.003981992602348328,-0.0028499923646450043
1772445428700906200,1.97990625,-0.011541701853275299,0.009701929986476898,-0.008761677891016006
1772445428710839300,1.98983935546875,-0.015234239399433136,0.009959494695067406,-0.006382308900356293
1772445428720771300,1.999771240234375,-0.014135684818029404,-0.001613536849617958,-0.0031353821977972984
1772445428730704400,2.009704345703125,-0.00993896834552288,-0.007334345951676369,-0.005972760729491711
1772445428740636400,2.019636474609375,-0.007443585898727179,-0.008410529233515263,-0.005591128952801228
1772445428750568400,2.029568359375,-0.007586582563817501,-0.0028115883469581604,-0.011284833773970604
1772445428760501500,2.03950146484375,-0.006906411144882441,-0.004137576557695866,-0.008424066007137299
1772445428770433500,2.04943359375,-0.006286322604864836,-0.002384311519563198,-0.005121322348713875
1772445428780366300,2.059366455078125,-0.007543334737420082,-0.00013740174472332,-0.00020938832312822342
1772445428790298000,2.069298095703125,-0.004952672868967056,-0.002576022408902645,0.0021936865523457527
1772445428800230100,2.079230224609375,-0.0030051034409552813,-0.003393080085515976,-0.00047453492879867554
1772445428810163200,2.0891630859375,-0.003349285339936614,0.011613814160227776,-0.008804820477962494
1772445428820095200,2.09909521484375,-0.006304595153778791,0.033863458782434464,-0.01745796389877796
1772445428830028300,2.1090283203125,-0.010576659813523293,0.022852037101984024,-0.013376116752624512
1772445428839960300,2.118960205078125,-0.0058383638970553875,0.003213886171579361,-0.007099313661456108
1772445428849892400,2.128892333984375,0.0014396673068404198,-0.013704007491469383,-0.0009843222796916962
1772445428859825400,2.138825439453125,0.0053989882580935955,-0.029718127101659775,-0.0007590185850858688
1772445428869757400,2.14875732421875,0.006036277394741774,-0.03886253386735916,-0.012664980255067348
1772445428879690500,2.1586904296875,0.010983098298311234,-0.03416898101568222,-0.020924776792526245
1772445428889622300,2.168622314453125,0.007339263800531626,-0.01757838949561119,-0.02410154789686203
1772445428899555300,2.178555419921875,0.003249447327107191,-0.005835182033479214,-0.03012401983141899
1772445428909487400,2.1884873046875,0.0030654226429760456,-0.0026511065661907196,-0.024023249745368958
1772445428919419400,2.19841943359375,-0.001583391334861517,-0.01281985454261303,-0.017632726579904556
1772445428929352200,2.208352294921875,0.00045350054278969765,-0.01454112771898508,-0.009122641757130623
1772445428939284200,2.2182841796875,0.003071121871471405,0.0000705718994140625,-0.00964861735701561
1772445428949217300,2.22821728515625,0.006419771816581488,0.0209452286362648,-0.00863706599920988
1772445428959149300,2.2381494140625,0.006027222145348787,0.022755645215511322,0.0006986446678638458
1772445428969081300,2.248081298828125,0.009138477966189384,0.017961230129003525,0.024162551388144493
1772445428979014400,2.258014404296875,0.016254976391792297,0.013210948556661606,0.038739629089832306
1772445428988946200,2.2679462890625,0.013587412424385548,0.0029751937836408615,0.0408494733273983
1772445428998879500,2.27787939453125,0.009416368789970875,-0.010858595371246338,0.03370421379804611
1772445429008811300,2.287811279296875,0.003809081856161356,-0.020620236173272133,0.018343569710850716
1772445429018743300,2.297743408203125,0.008229395374655724,-0.007956638932228088,-0.0016961852088570595
1772445429028676400,2.30767626953125,0.0057014101184904575,0.015203168615698814,-0.013383454643189907
1772445429038608400,2.3176083984375,0.0020837723277509212,0.010765276849269867,-0.005205686204135418
1772445429048541200,2.327541259765625,0.006316556129604578,-0.0014397753402590752,0.008902116678655148
1772445429058473500,2.337473388671875,0.009297698736190796,-0.0043617961928248405,0.016670290380716324
1772445429068405500,2.347405517578125,0.009244320914149284,-0.009320087730884552,0.01948416605591774
1772445429078338300,2.35733837890625,0.005704181734472513,-0.009954453445971012,0.012666208669543266
1772445429088270300,2.367270263671875,0.001446746289730072,-0.007567301392555237,-0.0007348852232098579
1772445429098203400,2.377203369140625,-0.0002254527062177658,0.006211627274751663,-0.018851304426789284
1772445429108135200,2.38713525390625,-0.003761549014598131,0.014727137982845306,-0.02368313819169998
1772445429118068200,2.397068115234375,-0.005498196464031935,0.01210392452776432,-0.02534548193216324
1772445429128000300,2.407000244140625,-0.000979013741016388,0.007234208285808563,-0.016774969175457954
1772445429137932300,2.416932373046875,0.0018079844303429127,0.005803026258945465,-0.004943078383803368
1772445429147865300,2.426865234375,0.0024028816260397434,0.0021911077201366425,0.0004095146432518959
1772445429157797400,2.43679736328125,0.004856451880186796,-0.004406874068081379,0.001295815221965313
1772445429167730400,2.44673046875,0.005777852144092321,0.0018847901374101639,0.00004879757761955261
1772445429177662500,2.456662353515625,0.006541912909597158,0.002736201509833336,0.003901592455804348
1772445429187594500,2.466594482421875,0.0071691409684717655,0.00047736242413520813,0.012433154508471489
1772445429197527300,2.47652734375,0.00713851535692811,-0.0069933366030454636,0.016977040097117424
1772445429207459300,2.486459228515625,0.007214730139821768,-0.012420096434652805,0.022769566625356674
1772445429217392000,2.49639208984375,0.007830720394849777,-0.01916002482175827,0.025842588394880295
1772445429227324200,2.50632421875,0.004246671684086323,-0.01608499512076378,0.029450275003910065
1772445429237256200,2.516256103515625,0.007414768449962139,-0.011543506756424904,0.030459079891443253
1772445429247189200,2.526189208984375,0.0012605893425643444,-0.0004325173795223236,0.022581737488508224
1772445429257121300,2.536121337890625,-0.0008076215162873268,0.008481349796056747,0.00894901528954506
1772445429267054300,2.546054443359375,-0.004513724707067013,-0.00030491501092910767,-0.0013531278818845749
1772445429276986400,2.555986328125,-0.003488674061372876,-0.009815596044063568,-0.007226996123790741
1772445429286918400,2.56591845703125,0.0024833036586642265,-0.01001797802746296,-0.002519228495657444
1772445429296851500,2.5758515625,0.0013727652840316296,-0.011282180435955524,0.002589247189462185
1772445429306783200,2.585783203125,0.0057920729741454124,-0.012195149436593056,0.005616888869553804
1772445429316716500,2.595716552734375,0.0008071684278547764,-0.007016632705926895,0.0024384064599871635
1772445429326648300,2.6056484375,-0.002619523089379072,-0.0022835731506347656,-0.0002314457669854164
1772445429336580400,2.615580322265625,-0.0029862402006983757,-0.0010622479021549225,-0.0013523707166314125
1772445429346513200,2.62551318359375,-0.002627298003062606,-0.012009579688310623,0.0021879421547055244
1772445429356445400,2.635445556640625,0.0005253520794212818,-0.0140913724899292,0.009609639644622803
1772445429366378200,2.645378173828125,-0.003569576656445861,-0.010781293734908104,0.019955690950155258
1772445429376310300,2.655310302734375,-0.0008683325722813606,0.0010202378034591675,0.02201910875737667
1772445429386243300,2.665243408203125,0.003398264292627573,0.013953560963273048,0.02012760564684868
1772445429396175400,2.67517529296875,-0.0027368597220629454,0.025242969393730164,0.021114841103553772
1772445429406107400,2.685107421875,-0.004374596755951643,0.024226101115345955,0.021127842366695404
1772445429416040400,2.69504052734375,-0.006557589862495661,0.011671161279082298,0.022691916674375534
1772445429425972200,2.70497216796875,0.0017419359646737576,-0.013335691764950752,0.02776317112147808
1772445429435905300,2.7149052734375,0.009967375546693802,-0.03135969862341881,0.03063751943409443
1772445429445837300,2.72483740234375,0.009731470607221127,-0.037118375301361084,0.030183810740709305
1772445429455769300,2.734769287109375,0.0062826769426465034,-0.03251244127750397,0.020927727222442627
1772445429465702400,2.744702392578125,0.002455239649862051,-0.022090192884206772,0.00791887752711773
1772445429475634400,2.754634521484375,-0.0020673410035669804,-0.014355573803186417,-0.0010874001309275627
1772445429485567200,2.764567138671875,-0.005998966284096241,-0.0030739810317754745,-0.011085943318903446
1772445429495499300,2.774499267578125,-0.009491436183452606,0.008496122434735298,-0.014738733880221844
1772445429505431300,2.784431396484375,-0.006288025062531233,0.01582130417227745,-0.01488572359085083
1772445429515364400,2.7943642578125,-0.010125374421477318,0.005801428109407425,-0.0027912436053156853
1772445429525296000,2.804296142578125,-0.0036264655645936728,-0.005113448016345501,0.028029577806591988
1772445429535229200,2.814229248046875,-0.002365725114941597,-0.008716171607375145,0.05433255434036255
1772445429545161200,2.8241611328125,-0.002320181578397751,-0.009223947301506996,0.060304395854473114
1772445429555093200,2.83409326171875,-0.001225089654326439,-0.017947398126125336,0.04896438866853714
1772445429565026300,2.8440263671875,-0.004395320080220699,-0.0159613024443388,0.030175551772117615
1772445429574958300,2.853958251953125,-0.0067346408031880856,-0.009408594109117985,0.009321669116616249
1772445429584891400,2.863891357421875,-0.00755815114825964,-0.014339401386678219,0.002762765623629093
1772445429594823400,2.873823486328125,0.0005849967710673809,-0.023745685815811157,0.007726364769041538
1772445429604755500,2.88375537109375,0.0018257214687764645,-0.0329102985560894,0.011108670383691788
1772445429614688500,2.8936884765625,0.006431658752262592,-0.03392495959997177,0.01148257777094841
1772445429624620300,2.903620361328125,0.004352259915322065,-0.034363940358161926,0.004634021781384945
1772445429634553300,2.91355322265625,0.002912022639065981,-0.019122136756777763,-0.004956554621458054
1772445429644485000,2.923485107421875,0.00023996224626898766,-0.005567729473114014,-0.013761957176029682
1772445429654417200,2.933417236328125,-0.004720707889646292,-0.006948311813175678,-0.01308258343487978
1772445429664350000,2.943349853515625,0.00006573600694537163,-0.0068144965916872025,-0.0031189965084195137
1772445429674282000,2.953281982421875,-0.00040937168523669243,-0.0018492983654141426,0.0011961236596107483
1772445429684215000,2.963215087890625,-0.0012943320907652378,0.004228299483656883,0.005661097355186939
1772445429694147000,2.97314697265625,-0.0023156541865319014,0.000802941620349884,0.009534664452075958
1772445429704079000,2.9830791015625,-0.0014924239367246628,-0.006171734072268009,0.0069832694716751575
1772445429714012200,2.99301220703125,0.0019113621674478054,-0.0014257142320275307,0.00676009664312005
1772445429723944000,3.00294384765625,0.0028666313737630844,-0.0041438257321715355,0.004352889023721218
1772445429733877200,3.012877197265625,0.0007677944377064705,-0.014415638521313667,0.009759904816746712
1772445429743809000,3.02280908203125,0.0030130562372505665,-0.01643010601401329,0.01303147803992033
1772445429753741000,3.032740966796875,0.0038855080492794514,-0.021148961037397385,0.01188498642295599
1772445429763674000,3.042674072265625,0.0009046318009495735,-0.023877102881669998,0.0006400551646947861
1772445429773606100,3.052606201171875,0.0006971717812120914,-0.028599154204130173,-0.003108876757323742
1772445429783539000,3.0625390625,0.0011702575720846653,-0.021546997129917145,-0.010551275685429573
1772445429793471000,3.072470947265625,-0.0038295607082545757,-0.014198804274201393,-0.02076263539493084
1772445429803403300,3.0824033203125,-0.004421948455274105,-0.020114945247769356,-0.02257477305829525
1772445429813336000,3.092336181640625,-0.0010256189852952957,-0.02158607542514801,-0.020179258659482002
1772445429823268000,3.10226806640625,0.00043762847781181335,-0.0214848555624485,-0.017453059554100037
1772445429833201200,3.112201171875,-0.0016987593844532967,-0.019865920767188072,-0.009233743883669376
1772445429843133000,3.1221328125,-0.00047265319153666496,-0.019233686849474907,-0.0027999160811305046
1772445429853066000,3.13206591796875,-0.002097181510180235,-0.00992753729224205,-0.0020105550065636635
1772445429862998000,3.141998046875,-0.002279008738696575,-0.0055223498493433,-0.000713900662958622
1772445429872930000,3.151929931640625,-0.0013580876402556896,-0.011964003555476665,0.0047256057150661945
1772445429882863000,3.161863037109375,-0.0003828415647149086,-0.017926644533872604,0.005746065638959408
1772445429892795100,3.171795166015625,-0.0017186831682920456,-0.012714838609099388,0.007413204293698072
1772445429902728200,3.181728271484375,-0.008396030403673649,-0.015906989574432373,0.0044636051170527935
1772445429912660200,3.19166015625,-0.009319614619016647,-0.02334653027355671,0.00506201758980751
1772445429922592300,3.20159228515625,-0.010292895138263702,-0.027586353942751884,0.005239068530499935
1772445429932525000,3.211525146484375,-0.010009001940488815,-0.02496660128235817,0.00225792545825243
1772445429942457000,3.22145703125,-0.009187514893710613,-0.019357647746801376,0.00024347472935914993
1772445429952390000,3.231389892578125,-0.008049280382692814,-0.0039182379841804504,0.0025196783244609833
1772445429962322000,3.241322021484375,-0.013737846165895462,0.011284185573458672,-0.002057560719549656
1772445429972254000,3.25125390625,-0.020361926406621933,0.016107436269521713,-0.005405419506132603
1772445429982187000,3.26118701171875,-0.02011159062385559,0.006435634568333626,-0.006056562997400761
1772445429992119000,3.271119140625,-0.019301988184452057,-0.003864406608045101,-0.005237109027802944
1772445430002052000,3.281052001953125,-0.01816626451909542,-0.012528307735919952,-0.0036660097539424896
1772445430011984100,3.290984130859375,-0.01665332354605198,-0.01986371912062168,-0.004418087191879749
1772445430021916200,3.300916259765625,-0.018366634845733643,-0.020768769085407257,-0.0052508339285850525
1772445430031849200,3.31084912109375,-0.017892325296998024,-0.02211260050535202,-0.003111249767243862
1772445430041781000,3.320781005859375,-0.016414908692240715,-0.022142533212900162,-0.004432691261172295
1772445430051714300,3.33071435546875,-0.014060141518712044,-0.010877097025513649,-0.002606028690934181
1772445430061646000,3.34064599609375,-0.016120316460728645,-0.006458326242864132,0.0017820904031395912
1772445430071578000,3.350578125,-0.014383934438228607,-0.007717202417552471,-0.0018019918352365494
1772445430081511000,3.360510986328125,-0.011041784659028053,0.0007866080850362778,-0.007994421757757664
1772445430091443000,3.37044287109375,-0.011974423192441463,0.0054375529289245605,-0.01966838911175728
1772445430101376000,3.3803759765625,-0.009526697918772697,-0.004802124574780464,-0.02802073396742344
1772445430111308000,3.39030810546875,-0.00710588414222002,-0.018717408180236816,-0.02183287777006626
1772445430121240000,3.400239990234375,-0.0035180714912712574,-0.025480948388576508,-0.014480892568826675
1772445430131173000,3.410173095703125,-0.0042733438313007355,-0.02620852366089821,-0.00945950299501419
1772445430141105200,3.420105224609375,-0.002759128576144576,-0.02822982706129551,-0.009267556481063366
1772445430151038200,3.4300380859375,-0.004295506048947573,-0.023046784102916718,-0.012757097370922565
1772445430160970000,3.439969970703125,-0.007181570399552584,-0.011336509138345718,-0.012687882408499718
1772445430170902000,3.449902099609375,-0.0030273054726421833,-0.005240798927843571,-0.004871238023042679
1772445430180835000,3.4598349609375,-0.0042253597639501095,0.00039641931653022766,0.007897798903286457
1772445430190767000,3.46976708984375,-0.00032010022550821304,-0.005177842453122139,0.019485479220747948
1772445430200700200,3.4797001953125,-0.00029343878850340843,-0.004387272521853447,0.026300139725208282
1772445430210632200,3.489632080078125,-0.003972063306719065,-0.0038892608135938644,0.024797318503260612
1772445430220564200,3.499564208984375,-0.004016412887722254,-0.0012560896575450897,0.01583169586956501
1772445430230497000,3.5094970703125,-0.01036032848060131,0.007758177816867828,-0.0004820302128791809
1772445430240429000,3.519428955078125,-0.013032853603363037,0.00747787207365036,-0.013540483079850674
1772445430250362000,3.529362060546875,-0.013098366558551788,0.0032011009752750397,-0.016582611948251724
1772445430260294000,3.5392939453125,-0.014589523896574974,-0.0005254559218883514,-0.01616196520626545
1772445430270226000,3.549225830078125,-0.014341050758957863,-0.006636611185967922,-0.011733926832675934
1772445430280159000,3.559158935546875,-0.012471352703869343,-0.013436535373330116,-0.011945830658078194
1772445430290091000,3.569091064453125,-0.007301890756934881,-0.02169845998287201,-0.01582365855574608
1772445430300024000,3.579024169921875,-0.0027533425018191338,-0.020264098420739174,-0.01468980498611927
1772445430309956000,3.5889560546875,-0.004636463709175587,-0.012997929006814957,-0.010994669049978256
1772445430319888100,3.59888818359375,-0.0008173598907887936,-0.0012961626052856445,-0.009058194234967232
1772445430329821200,3.6088212890625,-0.0011356072500348091,0.007747666910290718,-0.009267518296837807
1772445430339753200,3.618753173828125,-0.0005500633269548416,0.007544416934251785,-0.0030434168875217438
1772445430349686300,3.628686279296875,0.0015679486095905304,0.001233791932463646,0.0017888881266117096
1772445430359618300,3.638618408203125,0.003342308569699526,-0.004283941350877285,0.00977069791406393
1772445430369550000,3.648550048828125,0.007742649409919977,-0.01120203547179699,0.012396042235195637
1772445430379483000,3.65848291015625,0.008848140016198158,-0.009888741187751293,0.013863690197467804
1772445430389415000,3.668414794921875,0.00736822048202157,-0.006425832398235798,0.010485470294952393
1772445430399348000,3.678347900390625,0.006683683022856712,-0.003095214255154133,0.0037868707440793514
1772445430409280000,3.688280029296875,0.00859210453927517,0.0033658798784017563,-0.0026292167603969574
1772445430419212000,3.6982119140625,0.010852176696062088,0.0009450856596231461,-0.000043093226850032806
1772445430429145000,3.70814501953125,0.010043108835816383,-0.003382817842066288,0.010332582518458366
1772445430439077000,3.7180771484375,0.008547854609787464,-0.002974271774291992,0.014538705348968506
1772445430449010200,3.72801025390625,0.008393657393753529,-0.0004511941224336624,0.009594281204044819
1772445430458942200,3.737942138671875,0.0017533735372126102,0.001279028132557869,0.0011239759624004364
1772445430468874000,3.7478740234375,0.0003235223703086376,0.0012159105390310287,-0.003326166421175003
1772445430478807000,3.75780712890625,-0.0007616225630044937,0.0023286864161491394,-0.004190390929579735
1772445430488739000,3.767739013671875,0.0020932862535119057,0.0012724772095680237,-0.012312499806284904
1772445430498672000,3.777672119140625,0.0030524716712534428,-0.005431517027318478,-0.009544138796627522
1772445430508604200,3.787604248046875,0.00469084782525897,-0.010653442703187466,-0.007826133631169796
1772445430518536200,3.7975361328125,0.005108318757265806,-0.010357851162552834,-0.003494429402053356
1772445430528469000,3.807468994140625,0.0026235892437398434,-0.006865647621452808,0.00010509882122278214
1772445430538401000,3.817401123046875,0.0024010888300836086,0.0012233331799507141,0.002336917445063591
1772445430548334000,3.827333984375,-0.0015814020298421383,-0.0048803649842739105,-0.004818197339773178
1772445430558266000,3.83726611328125,0.0007578600198030472,-0.010980210267007351,-0.0069054169580340385
1772445430568198000,3.847197998046875,0.004499334841966629,-0.016682570800185204,-0.0009396690875291824
1772445430578131000,3.857130859375,0.0021706800907850266,-0.016057439148426056,0.0015306603163480759
1772445430588063000,3.86706298828125,0.00246309582144022,-0.014306144788861275,0.004273983184248209
1772445430597996000,3.87699609375,0.001849787775427103,-0.005569468252360821,0.002651275135576725
1772445430607928000,3.886927978515625,0.00008437829092144966,-0.0010940264910459518,0.004527737852185965
1772445430617860000,3.896860107421875,0.000508022028952837,-0.0005211420357227325,0.0032317694276571274
1772445430627793200,3.906793212890625,0.0005295933224260807,0.00025490298867225647,0.004691980313509703
1772445430637725200,3.91672509765625,0.0021666958928108215,0.006647160276770592,-0.0032444074749946594
1772445430647658000,3.926657958984375,0.0028652427718043327,0.011254696175456047,-0.005166943185031414
1772445430657590300,3.93659033203125,0.0002768198028206825,0.014663701876997948,-0.005244681611657143
1772445430667522300,3.946522216796875,0.0032265367917716503,0.01143248938024044,0.006029011216014624
1772445430677455400,3.956455322265625,0.00616257032379508,0.0037765931338071823,0.019883595407009125
1772445430687387400,3.966387451171875,0.004893574398010969,-0.0065889619290828705,0.03184891119599342
1772445430697319400,3.9763193359375,0.007435768377035856,-0.0069460561498999596,0.03437884524464607
1772445430707252500,3.98625244140625,0.008788654580712318,-0.0030956584960222244,0.03209118917584419
1772445430717184500,3.9961845703125,0.00396824162453413,-0.00019774585962295532,0.030205367133021355
1772445430727117600,4.00611767578125,0.0051429616287350655,-0.0022382596507668495,0.03065996803343296
1772445430737049300,4.01604931640625,0.0063117449171841145,-0.00023584812879562378,0.03359159082174301
1772445430746981400,4.0259814453125,0.005039552692323923,0.00430191308259964,0.03127969801425934
1772445430756914400,4.03591455078125,-0.0007774392142891884,0.019032904878258705,0.01774425059556961
1772445430766846500,4.045846435546875,-0.0007830318063497543,0.019934916868805885,0.009594712406396866
1772445430776779500,4.055779541015625,0.0005530896596610546,0.01833183504641056,0.0019159028306603432
1772445430786711600,4.065711669921875,-0.0007156399078667164,0.016606641933321953,0.002277826890349388
1772445430796643600,4.0756435546875,0.002014768309891224,0.00008928962051868439,0.0058349305763840675
1772445430806576400,4.085576416015625,0.006237742956727743,-0.012863793410360813,0.01526385173201561
1772445430816508400,4.09550830078125,0.004943848121911287,-0.016022907570004463,0.018218781799077988
1772445430826441500,4.10544140625,0.005066353362053633,-0.014596252702176571,0.015318067744374275
1772445430836373200,4.115373291015625,-0.0003524455241858959,-0.006129227578639984,0.0037446939386427402
1772445430846305300,4.12530517578125,-0.001750871306285262,0.009936824440956116,-0.0035536987707018852
1772445430856238300,4.13523828125,-0.0022297087125480175,0.012411756440997124,-0.00020141154527664185
1772445430866170400,4.14517041015625,0.0007383842021226883,-0.002938171848654747,0.013789238408207893
1772445430876103400,4.155103515625,0.005217080935835838,-0.008072663098573685,0.024947550147771835
1772445430886035500,4.165035400390625,0.007680238224565983,-0.009017552249133587,0.029140695929527283
1772445430895967500,4.174967529296875,0.004884037654846907,-0.009325840510427952,0.025720566511154175
1772445430905900500,4.184900634765625,0.006944259162992239,-0.0005264896899461746,0.022844353690743446
1772445430915832600,4.19483251953125,0.004085094667971134,0.01326359249651432,0.01253732293844223
1772445430925765600,4.204765625,-0.0009328336454927921,0.013157334178686142,0.010443812236189842
1772445430935697700,4.21469775390625,-0.00020108604803681374,0.009116677567362785,0.00892424676567316
1772445430945629400,4.22462939453125,-0.0034269727766513824,0.010503118857741356,0.00804380513727665
1772445430955562200,4.234562255859375,-0.0020404611714184284,0.006788238883018494,0.01082742027938366
1772445430965494300,4.244494384765625,-0.004166196100413799,0.005353327840566635,0.009494774043560028
1772445430975427300,4.25442724609375,-0.0038605702575296164,0.001294473186135292,0.00914754718542099
1772445430985359400,4.264359375,-0.004662714432924986,0.0024694595485925674,0.007745393086224794
1772445430995291400,4.27429150390625,-0.009237042628228664,0.009994437918066978,0.0025601573288440704
1772445431005224400,4.284224365234375,-0.007398663088679314,0.020323242992162704,0.0014536138623952866
1772445431015156500,4.294156494140625,-0.010070465505123138,0.014051748439669609,0.006412751041352749
1772445431025089500,4.304089599609375,-0.0038538489025086164,0.004416696727275848,0.01506136730313301
1772445431035021600,4.314021484375,-0.003358071204274893,-0.002383081242442131,0.017186621204018593
1772445431044953300,4.323953369140625,0.0008779526688158512,-0.000657619908452034,0.016281411051750183
1772445431054886400,4.333886474609375,-0.0012372047640383244,0.008833866566419601,0.014932801946997643
1772445431064818400,4.343818359375,0.000512758269906044,0.024487659335136414,0.010294906795024872
1772445431074751500,4.35375146484375,-0.0036925352178514004,0.029797399416565895,0.008226646110415459
1772445431084683500,4.36368359375,-0.0036387392319738865,0.025303849950432777,0.007180823478847742
1772445431094615600,4.373615478515625,-0.001613924279808998,0.02134653367102146,0.010819116607308388
1772445431104548400,4.38354833984375,0.0007339185103774071,0.017867380753159523,0.011409806087613106
1772445431114480400,4.39348046875,0.00022359518334269524,0.005029207095503807,0.010670676827430725
1772445431124412400,4.403412353515625,0.002157050184905529,-0.005233017727732658,0.012749806977808475
1772445431134345500,4.413345458984375,0.003146206960082054,-0.008243105374276638,0.011479144915938377
1772445431144277200,4.42327734375,0.0025342125445604324,-0.007176775485277176,0.0051077986136078835
1772445431154210300,4.433210205078125,0.0013267113827168941,-0.009868873283267021,-0.002916267141699791
1772445431164142300,4.443142333984375,0.0013967524282634258,-0.007027014158666134,-0.007646308280527592
1772445431174074400,4.453074462890625,0.0007073036395013332,0.0017201919108629227,-0.008649138733744621
1772445431184007400,4.46300732421875,-0.005095457658171654,0.011727819219231606,-0.011882482096552849
1772445431193939500,4.472939453125,-0.0026558248791843653,0.02315080724656582,-0.011726654134690762
1772445431203872500,4.48287255859375,-0.005766130518168211,0.016761617735028267,-0.010913857258856297
1772445431213804500,4.492804443359375,-0.0016638892702758312,0.019100623205304146,-0.0034954240545630455
1772445431223736600,4.502736572265625,0.00202858354896307,0.016751715913414955,0.014055872336030006
1772445431233669600,4.512669677734375,0.006235982291400433,0.0023180171847343445,0.03260897099971771
1772445431243601700,4.5226015625,0.010929270647466183,-0.0049665262922644615,0.045443277806043625
1772445431253534500,4.532534423828125,0.01154262013733387,-0.007464929483830929,0.04787923023104668
1772445431263466200,4.54246630859375,0.0059885988011956215,-0.004769544117152691,0.042155563831329346
1772445431273398300,4.552398193359375,0.005880700424313545,0.008888747543096542,0.03207715228199959
1772445431283331300,4.562331298828125,0.006155539304018021,0.018403423950076103,0.0269167460501194
1772445431293263400,4.572263427734375,0.003926433622837067,0.01938622258603573,0.019973643124103546
1772445431303196400,4.582196533203125,0.005534983240067959,0.010711507871747017,0.01445876806974411
1772445431313128400,4.59212841796875,0.004269697237759829,0.0031372755765914917,0.014466704800724983
1772445431323060500,4.602060546875,0.0024819173850119114,0.0029998552054166794,0.009642921388149261
1772445431332993500,4.61199365234375,0.00462335767224431,0.002417866140604019,0.009450397454202175
1772445431342925600,4.621925537109375,0.0025543472729623318,-0.0007441053166985512,0.004865232855081558
1772445431352858600,4.631858642578125,-0.0018710887525230646,-0.00021407566964626312,0.00554613908752799
1772445431362790400,4.641790283203125,0.0019137957133352757,-0.003488698974251747,0.00167789775878191
1772445431372722400,4.651722412109375,0.004463327117264271,0.0024738162755966187,0.003960853908210993
1772445431382655500,4.661655517578125,0.00536028016358614,0.004337230697274208,0.005715610459446907
1772445431392587500,4.67158740234375,0.002971816807985306,-0.0005566347390413284,0.006943101994693279
1772445431402519600,4.68151953125,0.0010977503843605518,-0.0010522501543164253,0.011480862274765968
1772445431412452400,4.691452392578125,0.0013656402006745338,0.005068464204668999,0.014499463140964508
1772445431422384400,4.70138427734375,0.004577945452183485,0.004303870722651482,0.026837622746825218
1772445431432317400,4.7113173828125,0.0066740857437253,0.000032315030694007874,0.035887300968170166
1772445431442249500,4.72124951171875,0.00943897943943739,-0.0044652316719293594,0.043534569442272186
1772445431452181200,4.73118115234375,0.008780397474765778,-0.007027815096080303,0.04108361899852753
1772445431462114300,4.7411142578125,0.005798456724733114,-0.002864762209355831,0.0349666029214859
1772445431472046300,4.75104638671875,0.0030635902658104897,-0.001757858321070671,0.02641049213707447
1772445431481979400,4.7609794921875,0.0009330613538622856,0.000792650505900383,0.013028373941779137
1772445431491911400,4.770911376953125,-0.0028614713810384274,0.001194644719362259,-0.0017509404569864273
1772445431501843500,4.780843505859375,-0.006453010253608227,-0.002686113119125366,-0.005356328561902046
1772445431511776500,4.790776611328125,-0.007398846093565226,-0.0043764617294073105,-0.008682581596076488
1772445431521708500,4.80070849609375,-0.008650798350572586,-0.008597571402788162,-0.01025810744613409
1772445431531641600,4.8106416015625,-0.0023125139996409416,-0.017559759318828583,0.0011172425001859665
1772445431541573600,4.82057373046875,-0.00249866908416152,-0.014932551421225071,0.01416726503521204
1772445431551505400,4.83050537109375,-0.0018098505679517984,-0.009120185859501362,0.022267207503318787
1772445431561438500,4.8404384765625,-0.0034199978690594435,-0.004810125567018986,0.029651354998350143
1772445431571370200,4.850370361328125,-0.004073826130479574,-0.0057035814970731735,0.03288963437080383
1772445431581303300,4.86030322265625,-0.007063224446028471,-0.004916350357234478,0.030624879524111748
1772445431591235300,4.8702353515625,-0.008176824077963829,0.000755753368139267,0.02525267004966736
1772445431601167400,4.88016748046875,-0.011036260053515434,0.011275505647063255,0.02255275659263134
1772445431611100400,4.890100341796875,-0.015723740682005882,0.017346182838082314,0.014326829463243484
1772445431621032400,4.900032470703125,-0.015149297192692757,0.02274414710700512,0.01906219683587551
1772445431630964500,4.909964599609375,-0.014602447859942913,0.021558435633778572,0.02393253520131111
1772445431640897500,4.9198974609375,-0.012977919541299343,0.013807039707899094,0.030208539217710495
1772445431650829600,4.92982958984375,-0.009423499926924706,0.004419466480612755,0.04126869887113571
1772445431660763000,4.939762939453125,-0.008115089498460293,-0.001427769660949707,0.049123428761959076
1772445431670695000,4.94969482421875,-0.00818545836955309,-0.008615782484412193,0.04491419717669487
1772445431680627000,4.959626953125,-0.008787598460912704,-0.010779068805277348,0.031826622784137726
1772445431690559700,4.969559814453125,-0.010601010173559189,-0.009913027286529541,0.017865560948848724
1772445431700492000,4.979491943359375,-0.013568038120865822,-0.007488485425710678,0.00028709881007671356
1772445431710424800,4.9894248046875,-0.015668388456106186,0.003988990560173988,-0.011695997789502144
1772445431720356600,4.999356689453125,-0.019496949389576912,0.007036978378891945,-0.016091279685497284
1772445431730288600,5.00928857421875,-0.020761296153068542,0.010109009221196175,-0.016903970390558243
1772445431740221700,5.0192216796875,-0.018196938559412956,0.004355248063802719,-0.007390893064439297
1772445431750153700,5.02915380859375,-0.013684164732694626,-0.005552875809371471,0.00290791317820549
1772445431760086800,5.039086669921875,-0.005441681016236544,-0.008452259004116058,0.01969195157289505
1772445431770018800,5.049018798828125,-0.002545807044953108,-0.006012969650328159,0.031769558787345886
1772445431779950800,5.058950927734375,-0.0018882725853472948,-0.002394532784819603,0.03593553975224495
1772445431789884000,5.0688837890625,-0.002832958707585931,-0.003558596596121788,0.0340612418949604
1772445431799816000,5.07881591796875,-0.0057123685255646706,-0.0036992114037275314,0.03324950858950615
1772445431809748000,5.088748046875,-0.006316759157925844,-0.0017840303480625153,0.02350626513361931
1772445431819681000,5.098680908203125,-0.00826139934360981,0.002799004316329956,0.016374319791793823
1772445431829612800,5.10861279296875,-0.0101546049118042,0.006505502387881279,0.007621011696755886
1772445431839545600,5.118545654296875,-0.013418309390544891,0.008688228204846382,0.0018589962273836136
1772445431849478000,5.128477783203125,-0.010840635746717453,0.008718056604266167,0.002687506377696991
1772445431859410000,5.138409912109375,-0.008506374433636665,0.0013397689908742905,0.004805517848581076
1772445431869342700,5.1483427734375,-0.006413324736058712,-0.006148545071482658,0.005652218125760555
1772445431879274800,5.158274658203125,-0.007802429609000683,-0.009245002642273903,0.005925991106778383
1772445431889207800,5.168207763671875,-0.004025236703455448,-0.006348581984639168,0.0031167585402727127
1772445431899139800,5.178139892578125,-0.0076367491856217384,0.002934930846095085,-0.0025011803954839706
1772445431909072000,5.18807177734375,-0.008483506739139557,0.005030998960137367,-0.0067136893048882484
1772445431919005000,5.1980048828125,-0.010299250483512878,0.005742596462368965,-0.009337701834738255
1772445431928936700,5.207936767578125,-0.01200671587139368,0.0021656304597854614,-0.0043984344229102135
1772445431938869800,5.217869873046875,-0.013732710853219032,-0.0016669239848852158,0.0013952730223536491
1772445431948801800,5.2278017578125,-0.014795549213886261,-0.0049314601346850395,0.004887343849986792
1772445431958733800,5.23773388671875,-0.011384306475520134,-0.001100769266486168,0.0016052639111876488
1772445431968667000,5.2476669921875,-0.009076716378331184,0.002549983561038971,0.001491038128733635
1772445431978599000,5.257598876953125,-0.00863116979598999,0.0027795471251010895,0.005402156617492437
1772445431988531000,5.267531005859375,-0.007865307852625847,0.00015657953917980194,0.00474384892731905
1772445431998463700,5.277463623046875,-0.006300434935837984,0.002347562462091446,0.003866337239742279
1772445432008396000,5.28739599609375,-0.009484837763011456,0.005908479914069176,-0.000939568504691124
1772445432018328800,5.297328857421875,-0.007278408855199814,0.0049108583480119705,-0.004723653197288513
1772445432028260600,5.307260498046875,-0.009073544293642044,0.009639231488108635,-0.014798442833125591
1772445432038192600,5.317192626953125,-0.011602748185396194,0.006861554458737373,-0.016315381973981857
1772445432048125700,5.327125732421875,-0.00839985441416502,-0.00037721171975135803,-0.017205294221639633
1772445432058057700,5.3370576171875,-0.006728720851242542,-0.002240625210106373,-0.011749274097383022
1772445432067990800,5.34699072265625,-0.009921319782733917,-0.005249932408332825,-0.01272367313504219
1772445432077922800,5.3569228515625,-0.00915219821035862,-0.003622208721935749,-0.014973245561122894
1772445432087854800,5.366854736328125,-0.009217014536261559,0.0024629198014736176,-0.01325572095811367
1772445432097788000,5.376787841796875,-0.006590871140360832,0.0016511883586645126,-0.010206401348114014
1772445432107720000,5.386719970703125,-0.002172727370634675,-0.011350976303219795,0.004504513926804066
1772445432117651700,5.396651611328125,0.001966091338545084,-0.02023368328809738,0.019221674650907516
1772445432127585000,5.4065849609375,0.0031090592965483665,-0.013636617921292782,0.023248281329870224
1772445432137516800,5.416516845703125,0.00114338006824255,-0.006217850372195244,0.008739645592868328
1772445432147449900,5.426449951171875,-0.0006604157388210297,0.004606245085597038,-0.005434872582554817
1772445432157382000,5.4363818359375,-0.00624213507398963,0.00840657576918602,-0.01332981325685978
1772445432167314000,5.44631396484375,-0.006048233713954687,0.00038454681634902954,-0.00991125963628292
1772445432177246700,5.456246826171875,-0.0054098740220069885,-0.007985502481460571,-0.0032738642767071724
1772445432187178800,5.4661787109375,-0.0000886349007487297,-0.005514831282198429,-0.00041747745126485825
1772445432197111800,5.47611181640625,-0.00025721313431859016,0.0013055242598056793,-0.0036798501387238503
1772445432207043800,5.4860439453125,-0.006143244449049234,0.007754333317279816,-0.0010906299576163292
1772445432216976000,5.495975830078125,-0.005068126134574413,0.016066325828433037,0.0029866695404052734
1772445432226909000,5.505908935546875,-0.005980649497359991,0.015786796808242798,0.015257641673088074
1772445432236840700,5.5158408203125,-0.006664549000561237,-0.0026936763897538185,0.021359741687774658
1772445432246772700,5.525772705078125,-0.0046890173107385635,-0.019719652831554413,0.02093563601374626
1772445432256705800,5.535705810546875,-0.005357737187296152,-0.03565014898777008,0.010863561183214188
1772445432266637800,5.545637939453125,-0.008939182385802269,-0.04331880807876587,-0.007350321859121323
1772445432276571000,5.55557080078125,-0.010343999601900578,-0.04314650222659111,-0.02262621559202671
1772445432286503000,5.5655029296875,-0.011438724584877491,-0.027183320373296738,-0.03311832249164581
1772445432296435000,5.57543505859375,-0.018298760056495667,-0.01564970053732395,-0.031325481832027435
1772445432306368000,5.585367919921875,-0.01401474978774786,-0.012028692290186882,-0.02393043041229248
1772445432316300000,5.595300048828125,-0.016650479286909103,-0.004566515795886517,-0.005957824178040028
1772445432326232800,5.60523291015625,-0.011464850977063179,-0.0019840775057673454,0.002115677110850811
1772445432336164600,5.61516455078125,-0.010393993929028511,0.0005600396543741226,0.010417282581329346
1772445432346096600,5.6250966796875,-0.00793125107884407,0.001989707350730896,0.01106255128979683
1772445432356029700,5.63502978515625,-0.007560006342828274,0.006088843569159508,0.013003197498619556
1772445432365961700,5.644961669921875,-0.0030139905866235495,0.001963874325156212,0.012133941054344177
1772445432375893800,5.654893798828125,-0.006099262740463018,-0.01342600118368864,0.009591421112418175
1772445432385826800,5.664826904296875,-0.0030441239941865206,-0.022113550454378128,0.005965415388345718
1772445432395758800,5.6747587890625,-0.0035895393230021,-0.01924292929470539,0.006022673100233078
1772445432405692000,5.68469189453125,-0.004259222187101841,-0.01646505668759346,-0.0004262225702404976
1772445432415624000,5.6946240234375,-0.003263466525822878,-0.009289702400565147,-0.002810817211866379
1772445432425555700,5.7045556640625,-0.005072592291980982,-0.000841410830616951,-0.007637376897037029
1772445432435488800,5.71448876953125,-0.00021179066970944405,-0.001623847521841526,-0.005900195799767971
1772445432445420800,5.7244208984375,-0.003854001872241497,-0.003529367968440056,-0.007908353582024574
1772445432455353900,5.734353759765625,0.001227309461683035,-0.004822865128517151,-0.007069725543260574
1772445432465286000,5.744285888671875,-0.0004969211295247078,-0.002572690136730671,-0.010094758123159409
1772445432475218000,5.754218017578125,-0.0030271904543042183,-0.008817803114652634,-0.012354981154203415
1772445432485150700,5.764150634765625,-0.0026431314181536436,-0.011660106480121613,-0.011495047248899937
1772445432495082800,5.774082763671875,-0.004724391736090183,-0.01074531115591526,-0.009626041166484356
1772445432505014800,5.784014892578125,-0.010711846873164177,-0.008137526921927929,-0.013447999954223633
1772445432514947800,5.79394775390625,-0.008996770717203617,-0.011251294985413551,-0.015684789046645164
1772445432524880000,5.8038798828125,-0.013081522658467293,-0.017443444579839706,-0.01840217038989067
1772445432534813000,5.81381298828125,-0.014252248220145702,-0.021389983594417572,-0.018912430852651596
1772445432544744700,5.82374462890625,-0.012904196977615356,-0.022411858662962914,-0.02320726588368416
1772445432554676700,5.8336767578125,-0.013834971934556961,-0.02022593654692173,-0.02466108277440071
1772445432564609800,5.84360986328125,-0.013651804998517036,-0.021247167140245438,-0.02795940265059471
1772445432574541800,5.853541748046875,-0.011900510638952255,-0.02438996359705925,-0.032022587954998016
1772445432584473900,5.863473876953125,-0.014702362939715385,-0.02166164666414261,-0.032377324998378754
1772445432594407000,5.873406982421875,-0.015605442225933075,-0.023877395316958427,-0.03012881800532341
1772445432604339000,5.8833388671875,-0.018087545409798622,-0.02263481914997101,-0.02777043730020523
1772445432614272000,5.89327197265625,-0.014697607606649399,-0.022993281483650208,-0.028528105467557907
1772445432624204000,5.9032041015625,-0.017498178407549858,-0.02234836108982563,-0.026664894074201584
1772445432634135800,5.9131357421875,-0.01703771762549877,-0.021065782755613327,-0.02506353333592415
1772445432644068600,5.923068603515625,-0.0154279675334692,-0.0239382516592741,-0.020258178934454918
1772445432654000000,5.933000244140625,-0.01525086723268032,-0.02536650374531746,-0.01737290993332863
1772445432663933000,5.942932861328125,-0.015013990923762321,-0.025965901091694832,-0.01040129829198122
1772445432673865000,5.952864990234375,-0.017061695456504822,-0.026522766798734665,-0.010656961239874363
1772445432683797200,5.96279736328125,-0.016259372234344482,-0.024930458515882492,-0.015742257237434387
1772445432693730000,5.97272998046875,-0.018026113510131836,-0.02455814927816391,-0.01967228390276432
1772445432703662000,5.982662109375,-0.017091283574700356,-0.02431083470582962,-0.019282668828964233
1772445432713594000,5.992593994140625,-0.017450809478759766,-0.026875190436840057,-0.02316422387957573
1772445432723527200,6.002527099609375,-0.016834333539009094,-0.023946162313222885,-0.02113059163093567
1772445432733459000,6.012458984375,-0.016068674623966217,-0.023037491366267204,-0.026294991374015808
1772445432743392000,6.02239208984375,-0.017565520480275154,-0.01864408329129219,-0.028822051361203194
1772445432753324000,6.032323974609375,-0.020892607048153877,-0.021723762154579163,-0.029083574190735817
1772445432763256000,6.042256103515625,-0.019178934395313263,-0.032160498201847076,-0.026321936398744583
1772445432773189000,6.052189208984375,-0.017430037260055542,-0.026445623487234116,-0.02328912913799286
1772445432783121200,6.06212109375,-0.015145976096391678,-0.018033312633633614,-0.017244547605514526
1772445432793053200,6.07205322265625,-0.016213636845350266,-0.022204620763659477,-0.01296271849423647
1772445432802986200,6.081986328125,-0.013537408784031868,-0.01736573874950409,-0.012063704431056976
1772445432812918300,6.091918212890625,-0.01360904797911644,-0.0025974446907639503,-0.014060541987419128
1772445432822851000,6.10185107421875,-0.017023000866174698,0.0007720440626144409,-0.024009454995393753
1772445432832783000,6.111783203125,-0.01607704535126686,-0.004308734089136124,-0.028964266180992126
1772445432842715100,6.121715087890625,-0.014750199392437935,-0.00580765213817358,-0.02918611280620098
1772445432852648000,6.13164794921875,-0.013154965825378895,-0.008023136295378208,-0.023148460313677788
1772445432862580000,6.141580078125,-0.008584258146584034,-0.018733680248260498,-0.0184138473123312
1772445432872513000,6.151512939453125,-0.008498771116137505,-0.02777005359530449,-0.016170401126146317
1772445432882445000,6.161445068359375,-0.007423339411616325,-0.02723127231001854,-0.02080540731549263
1772445432892377000,6.171377197265625,-0.008540268987417221,-0.02333027496933937,-0.024199336767196655
1772445432902310100,6.18131005859375,-0.011773085221648216,-0.015681790187954903,-0.027208693325519562
1772445432912242200,6.1912421875,-0.013159526512026787,-0.007564208470284939,-0.03471134975552559
1772445432922174200,6.20117431640625,-0.010298519395291805,-0.001450628973543644,-0.038099441677331924
1772445432932107300,6.211107177734375,-0.010722494684159756,-0.0015267962589859962,-0.04221003130078316
1772445432942039000,6.2210390625,-0.008537807501852512,-0.005241410806775093,-0.0364854596555233
1772445432951972000,6.23097216796875,-0.004870634526014328,-0.014795234426856041,-0.027477853000164032
1772445432961904000,6.240904052734375,-0.0028316660318523645,-0.01989767886698246,-0.017598070204257965
1772445432971836200,6.250836181640625,-0.00010352395474910736,-0.021928338333964348,-0.01146268006414175
1772445432981769000,6.26076904296875,0.0026004351675510406,-0.022677229717373848,-0.0047458503395318985
1772445432991701200,6.270701171875,0.0021106800995767117,-0.017256632447242737,-0.0035303840413689613
1772445433001633300,6.28063330078125,0.001011192798614502,-0.006562457419931889,-0.004021684639155865
1772445433011566000,6.290566162109375,0.0013672574423253536,-0.007340898737311363,-0.005447275936603546
1772445433021498000,6.300498046875,0.003102873917669058,0.0015006158500909805,-0.005941290408372879
1772445433031431200,6.31043115234375,0.0010272059589624405,0.006182452663779259,-0.007469680160284042
1772445433041363000,6.320363037109375,0.001506640575826168,0.0071205273270606995,-0.0033170655369758606
1772445433051295000,6.330294921875,0.005392991006374359,-0.000260423868894577,0.0006454512476921082
1772445433061228000,6.34022802734375,0.008300919085741043,0.0025291237980127335,0.0009496267884969711
1772445433071160000,6.35016015625,0.007962963543832302,-0.0001247171312570572,0.003506260924041271
1772445433081093000,6.360093017578125,0.009523417800664902,-0.0032463762909173965,0.0033118585124611855
1772445433091025200,6.370025146484375,0.005145713221281767,-0.0014516720548272133,-0.0001406632363796234
1772445433100957200,6.379957275390625,0.005272083915770054,0.0018565226346254349,-0.007762947119772434
1772445433110890200,6.38989013671875,0.0037839096039533615,0.006335960701107979,-0.014006461016833782
1772445433120822300,6.399822265625,0.0031405561603605747,0.006689002737402916,-0.012575279921293259
1772445433130754000,6.409754150390625,0.006488150451332331,0.009727934375405312,-0.007503289729356766
1772445433140687000,6.41968701171875,0.006723939441144466,0.00838613323867321,0.002063637599349022
1772445433150619100,6.429619140625,0.008991621434688568,0.001009974628686905,0.012603363953530788
1772445433160552000,6.439552001953125,0.009605398401618004,0.004843283444643021,0.015320147387683392
1772445433170484000,6.44948388671875,0.01006452739238739,0.003124212846159935,0.013762464746832848
1772445433180416000,6.459416015625,0.006530825514346361,0.0018437877297401428,0.009409754537045956
1772445433190349000,6.46934912109375,0.006112442817538977,0.009674280881881714,0.000554211437702179
1772445433200281000,6.479281005859375,0.003788404632359743,0.007360689342021942,-0.0037784315645694733
1772445433210213000,6.489213134765625,0.0065940446220338345,0.003297504037618637,-0.0057710083201527596
1772445433220146200,6.499146240234375,0.009900592267513275,0.0029919855296611786,-0.004320224747061729
1772445433230078200,6.509078125,0.011113395914435387,0.0010318979620933533,-0.001513519324362278
1772445433240011300,6.51901123046875,0.012540584430098534,0.0006960742175579071,-0.0035979757085442543
1772445433249943000,6.528943115234375,0.012084119021892548,-0.0008789198473095894,-0.004481080919504166
1772445433259875000,6.538875,0.007181305438280106,-0.0012002214789390564,-0.006971029564738274
1772445433269808000,6.54880810546875,0.008568013086915016,0.004533564671874046,-0.0016228696331381798
1772445433279740200,6.558740234375,0.008299600332975388,0.014201691374182701,-0.005601789802312851
1772445433289672200,6.568672119140625,0.006658293306827545,0.012760655954480171,-0.002265116199851036
1772445433299605200,6.578605224609375,0.003714953549206257,0.003457373008131981,-0.0026215119287371635
1772445433309537300,6.588537353515625,0.006913410499691963,0.004547670483589172,0.0016925428062677383
1772445433319470000,6.598469970703125,0.00432519381865859,0.007332231849431992,0.0003562821075320244
1772445433329402000,6.608402099609375,0.002029282506555319,0.014510516077280045,-0.0021689273416996002
1772445433339334000,6.618333984375,-0.00009234389290213585,0.012525616213679314,-0.00004651118069887161
1772445433349267000,6.628266845703125,0.0009846384637057781,0.005686085671186447,0.001173216849565506
1772445433359199000,6.638198974609375,-0.0009735934436321259,-0.0030043339356780052,0.000478365458548069
1772445433369131000,6.648131103515625,-0.00014295382425189018,-0.006230753846466541,0.005097618326544762
1772445433379064000,6.65806396484375,0.0033887578174471855,-0.003512299619615078,0.002551950514316559
1772445433388996000,6.66799609375,0.0012257383204996586,0.005439650267362595,-0.0013517113402485847
1772445433398929200,6.67792919921875,-0.002181374467909336,0.012638520449399948,0.000028341077268123627
1772445433408861200,6.687861083984375,-0.003904439741745591,0.011461403220891953,0.0020366311073303223
1772445433418793200,6.697793212890625,-0.006483308505266905,0.011990822851657867,-0.0013732248917222023
1772445433428726300,6.707726318359375,-0.008040458895266056,0.008179306983947754,-0.003772999159991741
1772445433438658000,6.717657958984375,-0.01093168742954731,0.0013489015400409698,-0.013514257036149502
1772445433448590000,6.727590087890625,-0.009099433198571205,0.003494877368211746,-0.019100237637758255
1772445433458523100,6.737523193359375,-0.005446250084787607,0.0072285495698452,-0.020074160769581795
1772445433468455200,6.747455078125,-0.004725066013634205,-0.001223791390657425,-0.01571323722600937
1772445433478388000,6.757387939453125,-0.0035347610246390104,-0.0058776503428816795,-0.008814367465674877
1772445433488320000,6.767320068359375,-0.0044333115220069885,0.0003075413405895233,-0.007714214734733105
1772445433498252000,6.777251953125,-0.004271935671567917,0.0037645604461431503,-0.01021056529134512
1772445433508185000,6.78718505859375,-0.008719680830836296,0.011030729860067368,-0.007282686419785023
1772445433518117000,6.7971171875,-0.008326648734509945,0.01790030673146248,-0.00540050957351923
1772445433528049000,6.807048828125,-0.00460940832272172,0.026837609708309174,-0.005153634585440159
1772445433537982200,6.816982177734375,-0.005267976783216,0.027607019990682602,0.0010038046166300774
1772445433547914000,6.8269140625,-0.005690088029950857,0.015474189072847366,0.012082288973033428
1772445433557847000,6.836846923828125,0.0012372955679893494,0.008329171687364578,0.01730826497077942
1772445433567779000,6.846779052734375,0.005510337650775909,-0.006220475770533085,0.01953227072954178
1772445433577711000,6.856711181640625,0.00272809574380517,-0.013663064688444138,0.017474815249443054
1772445433587644200,6.86664404296875,0.0047526308335363865,-0.015525945462286472,0.00896921195089817
1772445433597576200,6.876576171875,0.005122222937643528,-0.008845791220664978,0.003185180015861988
1772445433607508200,6.88650830078125,0.0010308083146810532,0.003821801394224167,-0.0010404577478766441
1772445433617441300,6.896441162109375,-0.0006567519158124924,0.015256522223353386,0.0014586690813302994
1772445433627373300,6.906373291015625,0.00009346054866909981,0.02297809161245823,0.0038168979808688164
1772445433637306000,6.91630615234375,0.0017029070295393467,0.02027731202542782,0.015480956062674522
1772445433647238100,6.926238037109375,0.002692804206162691,0.011326692998409271,0.015235679224133492
1772445433657170700,6.936170654296875,0.0016883979551494122,0.003335893154144287,0.008952433243393898
1772445433667103700,6.946103759765625,0.00332810590043664,0.004402488470077515,0.004199224058538675
1772445433677035800,6.956035888671875,-0.00024059275165200233,-0.0014895657077431679,-0.004049701616168022
1772445433686967800,6.9659677734375,-0.0022938898764550686,-0.005020384676754475,-0.008933672681450844
1772445433696900900,6.97590087890625,-0.004035265650600195,-0.0034460490569472313,-0.014460423961281776
1772445433706832600,6.98583251953125,-0.004015025682747364,-0.0012547997757792473,-0.010973814874887466
1772445433716765700,6.995765625,-0.0035280203446745872,-0.0003840215504169464,-0.006119211204349995
1772445433726697700,7.00569775390625,-0.0025860602036118507,0.0010820496827363968,0.0018889149650931358
1772445433736629800,7.015629638671875,0.0036211563274264336,0.005932735279202461,0.009503711014986038
1772445433746562800,7.025562744140625,0.0035713547840714455,0.009500039741396904,0.014932031743228436
1772445433756494800,7.035494873046875,0.00029283296316862106,0.008433043956756592,0.01911601424217224
1772445433766427000,7.045427001953125,0.005594920367002487,0.006985615938901901,0.024564042687416077
1772445433776359700,7.055359619140625,0.00521106505766511,0.003026127815246582,0.02838056907057762
1772445433786291700,7.065291748046875,0.008228426799178123,-0.006796409375965595,0.031053319573402405
1772445433796224800,7.075224853515625,0.013105064630508423,-0.011160311289131641,0.03224390372633934
1772445433806156500,7.085156494140625,0.017679575830698013,-0.014383002184331417,0.027837436646223068
1772445433816088600,7.095088623046875,0.020083818584680557,-0.01928040012717247,0.024371923878788948
1772445433826021600,7.105021728515625,0.022007418796420097,-0.01807984709739685,0.011787422932684422
1772445433835953700,7.11495361328125,0.019694730639457703,-0.016484813764691353,0.00015665311366319656
1772445433845885700,7.1248857421875,0.015487202443182468,-0.019868094474077225,-0.0027035819366574287
1772445433855818800,7.13481884765625,0.012079115957021713,-0.019473830237984657,-0.004596615210175514
1772445433865750800,7.144750732421875,0.010548330843448639,-0.020075172185897827,-0.0026312023401260376
1772445433875683800,7.154683837890625,0.010068122297525406,-0.021589796990156174,0.010451835580170155
1772445433885615900,7.164615966796875,0.0035510999150574207,-0.02548067644238472,0.015972036868333817
1772445433895547600,7.174547607421875,0.0024576550349593163,-0.023172663524746895,0.01335751824080944
1772445433905480700,7.184480712890625,-0.001447870396077633,-0.017283614724874496,0.009316970594227314
1772445433915412700,7.194412841796875,-0.00585893215611577,-0.017054466530680656,0.00708036357536912
1772445433925344800,7.2043447265625,-0.0027235927991569042,-0.016617177054286003,0.012759821489453316
1772445433935277800,7.21427783203125,-0.006418995093554258,-0.017618516460061073,0.011749926023185253
1772445433945209900,7.2242099609375,-0.0066821156069636345,-0.01620997115969658,0.010888393968343735
1772445433955142700,7.234142578125,-0.006060868501663208,-0.007231530733406544,0.014878233894705772
1772445433965074700,7.24407470703125,-0.005084553733468056,0.0038299094885587692,0.015685703605413437
1772445433975006700,7.2540068359375,-0.005507830996066332,0.009491587057709694,0.022019842639565468
1772445433984939800,7.263939697265625,-0.008231179788708687,0.009115548804402351,0.024458765983581543
1772445433994871600,7.27387158203125,-0.011857319623231888,0.0026121381670236588,0.029834533110260963
1772445434004803600,7.283803466796875,-0.006138980854302645,-0.004341641440987587,0.03684743493795395
1772445434014736600,7.293736572265625,-0.008738943375647068,-0.017094280570745468,0.03873855993151665
1772445434024668700,7.303668701171875,-0.005029159598052502,-0.025736505165696144,0.03567512333393097
1772445434034601700,7.313601806640625,-0.003059807000681758,-0.025457259267568588,0.030355015769600868
1772445434044533800,7.32353369140625,-0.007432451006025076,-0.01253160648047924,0.022213730961084366
1772445434054465800,7.3334658203125,-0.006214536726474762,0.0033923443406820297,0.016392260789871216
1772445434064398800,7.34339892578125,-0.00836930051445961,0.013510758057236671,0.012618295848369598
1772445434074331000,7.353330810546875,-0.008915439248085022,0.01580951176583767,0.014514449052512646
1772445434084263000,7.363262939453125,-0.005810992792248726,0.009770262986421585,0.021143056452274323
1772445434094196000,7.373196044921875,-0.003404323011636734,0.0048627834767103195,0.029627034440636635
1772445434104127700,7.383127685546875,-0.0008881683461368084,-0.0007375767454504967,0.03732463717460632
1772445434114059800,7.393059814453125,0.0007050209678709507,0.006103968247771263,0.039194539189338684
1772445434123992600,7.40299267578125,0.00241343816742301,0.01210327073931694,0.035893023014068604
1772445434133924600,7.412924560546875,0.002470123115926981,0.011490657925605774,0.03201065585017204
1772445434143857700,7.422857666015625,0.0063298423774540424,0.0045904070138931274,0.03182663396000862
1772445434153789700,7.432789794921875,0.005326432175934315,-0.0023784125223755836,0.027785394340753555
1772445434163721700,7.4427216796875,0.01375374011695385,-0.015904873609542847,0.02462529018521309
1772445434173654800,7.45265478515625,0.021878831088542938,-0.018268320709466934,0.017387552186846733
1772445434183586800,7.4625869140625,0.02447807788848877,-0.015992917120456696,0.011343507096171379
1772445434193518600,7.4725185546875,0.025236546993255615,-0.012398157268762589,0.01162651926279068
1772445434203451600,7.48245166015625,0.02821795456111431,-0.006878223270177841,0.009505843743681908
1772445434213383700,7.4923837890625,0.02465127408504486,-0.010768920183181763,0.005510833580046892
1772445434223316700,7.502316650390625,0.022344712167978287,-0.01514529250562191,-0.001382492482662201
1772445434233248800,7.512248779296875,0.022301234304904938,-0.021738097071647644,-0.005177844315767288
1772445434243180800,7.522180908203125,0.017120055854320526,-0.015726011246442795,-0.012440817430615425
1772445434253113900,7.53211376953125,0.013726728036999702,-0.012662968598306179,-0.014858056791126728
1772445434263046000,7.5420458984375,0.010318413376808167,-0.006569922901690006,-0.016418669372797012
1772445434272978000,7.55197802734375,0.008176784962415695,-0.0009779101237654686,-0.012952549383044243
1772445434282910700,7.56191064453125,0.007222041953355074,0.0017180070281028748,-0.0026570353657007217
1772445434292842800,7.5718427734375,0.009366990998387337,-0.0010494636371731758,0.0064587038941681385
1772445434302775600,7.581775634765625,0.009946495294570923,-0.009058387950062752,0.01637951098382473
1772445434312707600,7.59170751953125,0.007918031886219978,-0.011372517794370651,0.02233918011188507
1772445434322639600,7.6016396484375,0.006323331501334906,-0.004446434788405895,0.01853858307003975
1772445434332572700,7.61157275390625,0.0013220631517469883,0.002829601988196373,0.012898501940071583
1772445434342504700,7.621504638671875,-0.0031081053894013166,0.009909084066748619,0.006282144226133823
1772445434352436700,7.631436767578125,-0.002216043183580041,0.01021222211420536,0.0034195687621831894
1772445434362369800,7.641369873046875,-0.004374268930405378,0.004179894924163818,0.007657190319150686
1772445434372301800,7.6513017578125,-0.002985194092616439,0.000013085082173347473,0.012245098128914833
1772445434382233600,7.661233642578125,-0.004861124791204929,-0.0038543585687875748,0.016406286507844925
1772445434392167000,7.6711669921875,-0.006492934189736843,-0.0015557380393147469,0.010436955839395523
1772445434402098700,7.6810986328125,-0.008255680091679096,0.006477421149611473,0.0033649317920207977
1772445434412031700,7.69103173828125,-0.011429406702518463,0.016093218699097633,-0.006687462329864502
1772445434421963800,7.7009638671875,-0.014991650357842445,0.01769457571208477,-0.012013519182801247
1772445434431895800,7.710895751953125,-0.01679389737546444,0.01636708527803421,-0.01240688469260931
1772445434441828600,7.72082861328125,-0.011991152539849281,0.01137632131576538,-0.005196641199290752
1772445434451761000,7.730760986328125,-0.014285273849964142,0.007518598809838295,0.0009916089475154877
1772445434461693000,7.74069287109375,-0.011098267510533333,0.010727709159255028,0.003990594297647476
1772445434471625700,7.750625732421875,-0.007820514030754566,0.0022502243518829346,0.007623467594385147
1772445434481557800,7.760557861328125,-0.005780532490462065,-0.0008006934076547623,0.00571611151099205
1772445434491489500,7.770489501953125,-0.00793407205492258,0.003647109493613243,0.006201168056577444
1772445434501422600,7.780422607421875,-0.009107992984354496,0.0072106849402189255,0.006349772680550814
1772445434511354600,7.790354736328125,-0.007378541398793459,0.012024832889437675,0.0022558551281690598
1772445434521287700,7.80028759765625,-0.009159397333860397,0.015930356457829475,-0.0047237565740942955
1772445434531219700,7.8102197265625,-0.008828213438391685,0.018210329115390778,-0.003740370273590088
1772445434541151700,7.82015185546875,-0.009125955402851105,0.015959158539772034,-0.010413719341158867
1772445434551084800,7.830084716796875,-0.0012667225673794746,0.004776515066623688,-0.01106237806379795
1772445434561016800,7.840016845703125,-0.0005508651956915855,-0.0035525215789675713,-0.01694902963936329
1772445434570948900,7.849948974609375,0.0024412903003394604,0.00437534786760807,-0.022468406707048416
1772445434580882000,7.8598818359375,-0.0018740964587777853,0.002771059051156044,-0.013837900944054127
1772445434590813700,7.869813720703125,-0.0012148930691182613,0.007588595151901245,-0.0075271641835570335
1772445434600745700,7.879745849609375,0.0005814088508486748,0.014076586812734604,-0.0013161404058337212
1772445434610678800,7.8896787109375,0.0018812301568686962,0.006832137703895569,-0.006280464120209217
1772445434620610800,7.89961083984375,0.005402727983891964,-0.006898588500916958,-0.0186079703271389
1772445434630543600,7.909543701171875,0.0037314249202609062,-0.008299215696752071,-0.03472574055194855
1772445434640475600,7.9194755859375,0.00811232440173626,-0.007504794746637344,-0.03457394242286682
1772445434650407700,7.92940771484375,0.011572230607271194,0.002094671130180359,-0.013106229715049267
1772445434660339700,7.939339599609375,0.013130178675055504,0.02868952974677086,0.01241244561970234
1772445434670272000,7.94927197265625,0.009852012619376183,0.040595825761556625,0.01798613741993904
1772445434680204000,7.9592041015625,0.010089833289384842,0.01698104664683342,0.020949702709913254
1772445434690136800,7.96913671875,0.012970471754670143,0.005379926413297653,0.012506484985351562
1772445434700068900,7.97906884765625,0.007662259042263031,0.017976945266127586,-0.0007440727204084396
1772445434710001000,7.9890009765625,0.0008447510190308094,0.026883643120527267,-0.007125304080545902
1772445434719934000,7.998933837890625,0.002254894934594631,0.0267089381814003,-0.0034338952973484993
1772445434729866000,8.008865966796876,0.007025101687759161,0.03463814780116081,0.013906465843319893
1772445434739799000,8.018799072265624,0.0074259075336158276,0.022611048072576523,0.03211076930165291
1772445434749730800,8.028730712890624,0.007830455899238586,0.011710008606314659,0.04363640397787094
1772445434759662800,8.038662841796874,0.008792390115559101,0.009589333087205887,0.036434151232242584
1772445434769596000,8.048595947265625,0.002892675343900919,0.011021235957741737,0.017533425241708755
1772445434779528000,8.05852783203125,-0.00020964117720723152,0.017860766500234604,-0.008274203166365623
1772445434789460000,8.0684599609375,-0.0027035633102059364,0.02491314522922039,-0.019863702356815338
1772445434799393000,8.07839306640625,-0.0005762302316725254,0.021206824108958244,-0.007460831664502621
1772445434809325000,8.088324951171876,0.0023333835415542126,0.019396847113966942,0.01171210315078497
1772445434819257000,8.098257080078126,0.0032676211558282375,0.010488038882613182,0.029839973896741867
1772445434829190000,8.10818994140625,0.004110069014132023,0.006850043311715126,0.03727562353014946
1772445434839122200,8.1181220703125,0.0020445212721824646,0.010498041287064552,0.029646731913089752
1772445434849055000,8.128054931640625,-0.002172814216464758,0.00919005461037159,0.005765133071690798
1772445434858986800,8.13798681640625,-0.005698040593415499,0.004630455747246742,-0.012992310337722301
1772445434868918800,8.147918701171875,-0.0026738501619547606,-0.004448987543582916,-0.01299065537750721
1772445434878851800,8.157851806640625,-0.0019539978820830584,-0.001187947578728199,0.0003235526382923126
1772445434888784000,8.167783935546876,0.0010418244637548923,0.006698766723275185,0.01691630110144615
1772445434898716000,8.1777158203125,0.00020053191110491753,0.016807593405246735,0.0232120119035244
1772445434908649000,8.18764892578125,-0.00048474594950675964,0.022441934794187546,0.030789310112595558
1772445434918581000,8.1975810546875,-0.0012264363467693329,0.01658378168940544,0.023681599646806717
1772445434928513000,8.207512939453125,-0.002628135494887829,0.017026232555508614,0.021649841219186783
1772445434938446000,8.217446044921875,-0.002602036576718092,0.01393376849591732,0.01338205672800541
1772445434948377900,8.2273779296875,-0.010703329928219318,0.010975884273648262,0.009697315283119678
1772445434958311000,8.237310791015625,-0.012533986940979958,0.003366433084011078,0.010085071437060833
1772445434968243000,8.247242919921876,-0.011915608309209347,0.0007675271481275558,0.02016248181462288
1772445434978175000,8.257175048828126,-0.007346689235419035,0.003456519916653633,0.03569190949201584
1772445434988108000,8.26710791015625,-0.006445269100368023,-0.00006567500531673431,0.0406685397028923
1772445434998040000,8.2770400390625,-0.005881743971258402,-0.0013905968517065048,0.03404978662729263
1772445435007972000,8.28697216796875,-0.007089713122695684,-0.006854496896266937,0.020977582782506943
1772445435017905000,8.29690478515625,-0.010683116503059864,-0.00990674551576376,0.008158991113305092
1772445435027837000,8.3068369140625,-0.014164606109261513,-0.011601518839597702,0.003216004930436611
1772445435037769000,8.31676904296875,-0.01547301560640335,-0.011281672865152359,-0.0031915605068206787
1772445435047701800,8.32670166015625,-0.015152166597545147,-0.010671871714293957,-0.007269500754773617
1772445435057633800,8.3366337890625,-0.017151135951280594,-0.0031737415120005608,-0.015654195100069046
1772445435067565800,8.34656591796875,-0.01946951262652874,-0.002235439606010914,-0.017309293150901794
1772445435077499000,8.356498779296874,-0.022106308490037918,-0.004957988858222961,-0.017847251147031784
1772445435087431000,8.366430908203125,-0.02268667332828045,-0.00665248092263937,-0.017708171159029007
1772445435097364000,8.376364013671875,-0.02028743177652359,-0.016173813492059708,-0.014787749387323856
1772445435107296000,8.3862958984375,-0.018375596031546593,-0.021857883781194687,-0.00843479111790657
1772445435117228000,8.39622802734375,-0.015215488150715828,-0.026833735406398773,0.001722504384815693
1772445435127161000,8.4061611328125,-0.014899279922246933,-0.030086612328886986,0.006083186250180006
1772445435137092900,8.4160927734375,-0.01566120982170105,-0.022807395085692406,0.004545210860669613
1772445435147025000,8.42602490234375,-0.016767557710409164,-0.024650178849697113,0.00025741197168827057
1772445435156958000,8.4359580078125,-0.017080480232834816,-0.017062567174434662,0.00801360234618187
1772445435166890000,8.445889892578125,-0.015392065048217773,-0.0031448137015104294,0.01569201797246933
1772445435176822000,8.455822021484375,-0.018471743911504745,-0.008552628569304943,0.025368081405758858
1772445435186754800,8.4657548828125,-0.01370171457529068,-0.02358720637857914,0.03044240176677704
1772445435196687000,8.47568701171875,-0.007315187714993954,-0.030890926718711853,0.03157610818743706
1772445435206620000,8.485619873046875,-0.008860340341925621,-0.014145283959805965,0.019791532307863235
1772445435216552000,8.495552001953126,-0.01800403743982315,-0.013007049448788166,0.004651727620512247
1772445435226484000,8.50548388671875,-0.023154623806476593,-0.02414972335100174,-0.0023590493947267532
1772445435236417000,8.5154169921875,-0.024619895964860916,-0.0315631628036499,-0.010036943480372429
1772445435246348800,8.525348876953124,-0.02473767101764679,-0.0414775013923645,-0.024890663102269173
1772445435256280800,8.53528076171875,-0.024533674120903015,-0.06404406577348709,-0.02662837691605091
1772445435266214000,8.5452138671875,-0.01920362189412117,-0.0732487216591835,-0.012351784855127335
1772445435276146000,8.55514599609375,-0.01806405559182167,-0.07286922633647919,-0.0032994337379932404
1772445435286078000,8.565077880859375,-0.019466476514935493,-0.09557773172855377,-0.001983831636607647
1772445435296011000,8.575010986328126,-0.012760902754962444,-0.1061377003788948,-0.006856884807348251
1772445435305943000,8.584943115234376,-0.01818150281906128,-0.08782555907964706,-0.006517248228192329
1772445435315875000,8.594875,-0.013320167548954487,-0.046067193150520325,-0.0020729657262563705
1772445435325808000,8.60480810546875,-0.03143571317195892,0.025907455012202263,-0.03721415624022484
1772445435335740000,8.614739990234375,-0.038664065301418304,0.015020454302430153,-0.03261860832571983
1772445435345673000,8.6246728515625,-0.023877661675214767,0.0010259132832288742,-0.017140034586191177
1772445435355605000,8.63460498046875,-0.021703992038965225,0.006488056853413582,-0.00007423292845487595
1772445435365537000,8.644537109375,-0.02085133269429207,-0.004990017041563988,0.0008582007139921188
1772445435375469800,8.6544697265625,-0.019622283056378365,-0.01926136575639248,-0.009073526598513126
1772445435385401900,8.66440185546875,-0.018461622297763824,-0.03318588435649872,-0.032878171652555466
1772445435395334000,8.674333984375,-0.018954040482640266,-0.021320434287190437,-0.04735804349184036
1772445435405267000,8.684266845703124,-0.012368496507406235,0.0002957601100206375,-0.0632779598236084
1772445435415199000,8.694198974609375,0.010679032653570175,0.023130236193537712,-0.0543166808784008
1772445435425130800,8.704130859375,0.003322733100503683,0.018807779997587204,-0.0420934334397316
