time,seconds_elapsed,z,y,x
1772556052603596800,0.0755966796875,-0.07978997379541397,0.03526390716433525,0.17807480692863464
1772556052613527800,0.08552783203125,-0.07356899976730347,0.05586808919906616,0.18929634988307953
1772556052623458800,0.095458740234375,-0.06714092940092087,0.0980357825756073,0.21396706998348236
1772556052633389800,0.105389892578125,-0.0574767179787159,0.14885663986206055,0.25329574942588806
1772556052643320800,0.11532080078125,-0.06264058500528336,0.20233690738677979,0.3039506673812866
1772556052653251800,0.125251953125,-0.070134237408638,0.2554941177368164,0.3518768548965454
1772556052663182800,0.135182861328125,-0.0844535231590271,0.27274394035339355,0.38227710127830505
1772556052673113900,0.14511376953125,-0.09105850756168365,0.2642848491668701,0.38772159814834595
1772556052683046000,0.1550458984375,-0.08322376012802124,0.2400580644607544,0.3726382553577423
1772556052692977000,0.164976806640625,-0.06913741677999496,0.22224274277687073,0.34145545959472656
1772556052702908000,0.174907958984375,-0.04004078358411789,0.2117975652217865,0.2876572012901306
1772556052712839000,0.1848388671875,-0.017851464450359344,0.19581958651542664,0.21961022913455963
1772556052722770000,0.19477001953125,-0.009896603412926197,0.2021898627281189,0.14755307137966156
1772556052732701000,0.204700927734375,-0.011158626526594162,0.19588080048561096,0.08284170925617218
1772556052742632000,0.2146318359375,-0.02227972075343132,0.17034801840782166,0.032212886959314346
1772556052752562700,0.224562744140625,-0.033363569527864456,0.1330098807811737,0.003614844288676977
1772556052762494000,0.234493896484375,-0.04819098487496376,0.111639603972435,-0.0037498613819479942
1772556052772425000,0.244425048828125,-0.062378719449043274,0.10894034802913666,0.01495375670492649
1772556052782357000,0.25435693359375,-0.06514361500740051,0.1050739735364914,0.054379723966121674
1772556052792287700,0.264287841796875,-0.06305042654275894,0.10785987973213196,0.09455955773591995
1772556052802219000,0.274218994140625,-0.05852704495191574,0.10309548676013947,0.1246064081788063
1772556052812149800,0.284149658203125,-0.055797822773456573,0.10831010341644287,0.13604338467121124
1772556052822080800,0.294080810546875,-0.054133348166942596,0.11324121057987213,0.11744119226932526
1772556052832012000,0.304011962890625,-0.05579023435711861,0.10239652544260025,0.08870391547679901
1772556052841942800,0.31394287109375,-0.05884035304188728,0.08051839470863342,0.04608641192317009
1772556052851873800,0.323873779296875,-0.05882858857512474,0.05766844004392624,-0.002804984338581562
1772556052861805000,0.33380517578125,-0.05136134847998619,0.03584330528974533,-0.04807525873184204
1772556052871735800,0.34373583984375,-0.04391181841492653,0.01846194453537464,-0.09547321498394012
1772556052881666800,0.353666748046875,-0.03616974502801895,-0.004136576317250729,-0.14020846784114838
1772556052891598800,0.363598876953125,-0.02314969338476658,-0.02271224930882454,-0.1639690399169922
1772556052901529900,0.37352978515625,-0.011069062165915966,-0.038266971707344055,-0.17012493312358856
1772556052911460900,0.3834609375,-0.0026492939796298742,-0.05057451128959656,-0.16936710476875305
1772556052921391900,0.393391845703125,0.01051977090537548,-0.048876747488975525,-0.15520840883255005
1772556052931323000,0.403322998046875,0.0195967648178339,-0.03926766663789749,-0.13853929936885834
1772556052941254000,0.41325390625,0.024146242067217827,-0.020411156117916107,-0.12300562113523483
1772556052951184600,0.4231845703125,0.021922409534454346,-0.001920720562338829,-0.1191316470503807
1772556052961116000,0.433115966796875,0.015962256118655205,0.02226663939654827,-0.13097232580184937
1772556052971047000,0.443046875,0.005741757806390524,0.036304958164691925,-0.1439385712146759
1772556052980977700,0.452977783203125,-0.00009136414155364037,0.04657730087637901,-0.15151658654212952
1772556052990909000,0.462908935546875,-0.0012732353061437607,0.05925004184246063,-0.14979968965053558
1772556053000841000,0.472841064453125,0.0027087233029305935,0.06816550344228745,-0.1339280605316162
1772556053010771700,0.482771728515625,0.01474270410835743,0.0616682693362236,-0.10542518645524979
1772556053020702700,0.49270263671875,0.024805458262562752,0.06122245639562607,-0.07924044877290726
1772556053030634000,0.502634033203125,0.02337844856083393,0.05882742255926132,-0.058501288294792175
1772556053040564700,0.512564697265625,0.01934642344713211,0.04992634057998657,-0.04637698084115982
1772556053050495700,0.522495849609375,0.010887328535318375,0.03572589159011841,-0.04399155080318451
1772556053060427000,0.532427001953125,0.001767333596944809,0.03252929449081421,-0.05008086934685707
1772556053070357800,0.542357666015625,-0.0038911292795091867,0.030747991055250168,-0.0645342618227005
1772556053080288800,0.552288818359375,-0.009683771058917046,0.028580445796251297,-0.0773315504193306
1772556053090220000,0.562219970703125,-0.01304343156516552,0.025204617530107498,-0.08690837770700455
1772556053100151800,0.57215185546875,-0.005053415894508362,0.023964114487171173,-0.09709949791431427
1772556053110082800,0.582082763671875,0.00018200231716036797,0.0210379958152771,-0.0971171036362648
1772556053120014000,0.59201416015625,-0.003068918362259865,0.010478561744093895,-0.09745745360851288
1772556053129944800,0.60194482421875,-0.0045382254756987095,-0.01613161340355873,-0.09228777885437012
1772556053139875800,0.611875732421875,-0.01564866676926613,-0.04574303328990936,-0.09510966390371323
1772556053149807000,0.62180712890625,-0.019848033785820007,-0.07253699004650116,-0.0876750499010086
1772556053159737900,0.63173779296875,-0.024934669956564903,-0.08624082058668137,-0.08005761355161667
1772556053169668900,0.6416689453125,-0.027509549632668495,-0.08183091878890991,-0.06992527097463608
1772556053179600000,0.651599853515625,-0.02971491403877735,-0.07991477102041245,-0.0642910823225975
1772556053189531000,0.66153076171875,-0.026790307834744453,-0.07602778822183609,-0.05879369378089905
1772556053199462000,0.6714619140625,-0.01888151839375496,-0.07376809418201447,-0.06663457304239273
1772556053209394000,0.681393798828125,-0.012877028435468674,-0.06964431703090668,-0.07446490228176117
1772556053219325000,0.691324951171875,-0.013049336150288582,-0.055919449776411057,-0.08176302909851074
1772556053229256000,0.701255859375,-0.015411870554089546,-0.04544515907764435,-0.08237331360578537
1772556053239186700,0.711186767578125,-0.021138733252882957,-0.036282554268836975,-0.07195369154214859
1772556053249118000,0.721117919921875,-0.031026730313897133,-0.023480931296944618,-0.060739751905202866
1772556053259049000,0.731049072265625,-0.031216081231832504,-0.01656816340982914,-0.04552936926484108
1772556053268979700,0.740979736328125,-0.030562546104192734,-0.0045824432745575905,-0.039725203067064285
1772556053278911000,0.750910888671875,-0.028405385091900826,0.010622074827551842,-0.03223879262804985
1772556053288842000,0.760842041015625,-0.029392097145318985,0.015584727749228477,-0.026373207569122314
1772556053298772700,0.770772705078125,-0.030675474554300308,0.010115126147866249,-0.02688639983534813
1772556053308705000,0.780705078125,-0.03196515142917633,-0.0013458989560604095,-0.03349170833826065
1772556053318636300,0.79063623046875,-0.030465522781014442,-0.013816682621836662,-0.049715686589479446
1772556053328567300,0.8005673828125,-0.02869798056781292,-0.026841890066862106,-0.07482173293828964
1772556053338498000,0.810498046875,-0.02183501422405243,-0.034361325204372406,-0.1028435155749321
1772556053348429300,0.82042919921875,-0.01877140812575817,-0.03867979347705841,-0.11332452297210693
1772556053358360300,0.8303603515625,-0.01382804848253727,-0.04625382274389267,-0.1008920818567276
1772556053368291000,0.840291015625,-0.005151280201971531,-0.04650246724486351,-0.07784739881753922
1772556053378222300,0.850222412109375,-0.0006939475424587727,-0.04627689719200134,-0.04873025417327881
1772556053388153300,0.8601533203125,0.0033140680752694607,-0.04467908293008804,-0.023569464683532715
1772556053398084000,0.870083984375,0.007147421594709158,-0.03463603928685188,-0.007238696329295635
1772556053408015400,0.880015380859375,0.0022233561612665653,-0.02964155748486519,-0.00375248771160841
1772556053417947400,0.889947509765625,-0.0006565856747329235,-0.03249114006757736,-0.006117374636232853
1772556053427878100,0.899878173828125,-0.0002591102384030819,-0.0292985662817955,-0.01482263021171093
1772556053437809200,0.90980908203125,0.003023768775165081,-0.024106202647089958,-0.02482573129236698
1772556053447740400,0.919740478515625,0.010633314028382301,-0.021288106217980385,-0.031310830265283585
1772556053457671200,0.929671142578125,0.016442734748125076,-0.017513342201709747,-0.03785954415798187
1772556053467602200,0.939602294921875,0.01866851933300495,-0.02012324519455433,-0.04154812544584274
1772556053477533200,0.949533203125,0.015602689236402512,-0.026782479137182236,-0.03166326880455017
1772556053487464200,0.959464111328125,0.011647937819361687,-0.03646506369113922,-0.02467561885714531
1772556053497395200,0.969395263671875,0.007753597106784582,-0.05043068155646324,-0.015163072384893894
1772556053507326200,0.979326171875,0.005683383904397488,-0.05552351847290993,-0.014997970312833786
1772556053517257200,0.98925732421875,0.006861566565930843,-0.05434213951230049,-0.01886940747499466
1772556053527189200,0.999189208984375,0.006267951801419258,-0.06853087991476059,-0.024918146431446075
1772556053537120000,1.0091201171875,0.010784673504531384,-0.08039100468158722,-0.029243651777505875
1772556053547051300,1.01905126953125,0.016039442270994186,-0.07745321094989777,-0.03468695282936096
1772556053556982300,1.028982177734375,0.015977922827005386,-0.06554116308689117,-0.03344591706991196
1772556053566913000,1.0389130859375,0.014472472481429577,-0.06048857420682907,-0.021837346255779266
1772556053576844300,1.04884423828125,0.011861774139106274,-0.04791339486837387,-0.012790323235094547
1772556053586775300,1.058775390625,0.011628320440649986,-0.03121107444167137,-0.005085904151201248
1772556053596706000,1.0687060546875,0.004719813819974661,-0.018538955599069595,0.0026085004210472107
1772556053606637300,1.07863720703125,-0.0011617806740105152,-0.001271069049835205,0.0076668113470077515
1772556053616568000,1.088568115234375,-0.0015599229373037815,0.011506510898470879,0.009173095226287842
1772556053626499000,1.0984990234375,-0.006247134879231453,0.008125657215714455,0.01104824710637331
1772556053636431000,1.10843115234375,-0.005364030599594116,-0.008381146937608719,0.014669347554445267
1772556053646362400,1.1183623046875,-0.005456618499010801,-0.03278651461005211,0.020618613809347153
1772556053656293000,1.128293212890625,-0.002276005456224084,-0.05679970607161522,0.022149132564663887
1772556053666224000,1.13822412109375,0.004942804109305143,-0.07835780829191208,0.03178992494940758
1772556053676155100,1.148155029296875,0.003398170229047537,-0.08676327764987946,0.039298441261053085
1772556053686086100,1.158086181640625,0.005775184370577335,-0.08754122257232666,0.0502062551677227
1772556053696017200,1.16801708984375,0.008218900300562382,-0.08578087389469147,0.05988391488790512
1772556053705948200,1.1779482421875,0.007182308938354254,-0.08740098029375076,0.06262747198343277
1772556053715879200,1.187879150390625,0.00731067406013608,-0.08301421999931335,0.05972063168883324
1772556053725810200,1.19781005859375,0.013303577899932861,-0.0741381049156189,0.04995283484458923
1772556053735741200,1.2077412109375,0.019165992736816406,-0.07313862442970276,0.04895228147506714
1772556053745673200,1.217673095703125,0.021627776324748993,-0.06199902668595314,0.04829443246126175
1772556053755604200,1.227604248046875,0.026818811893463135,-0.040598928928375244,0.04576096683740616
1772556053765535200,1.23753515625,0.0329027958214283,-0.01741914078593254,0.04131222516298294
1772556053775466200,1.24746630859375,0.032931290566921234,-0.0026183566078543663,0.03967757895588875
1772556053785397200,1.257397216796875,0.03053436428308487,0.014118272811174393,0.038506750017404556
1772556053795328300,1.267328369140625,0.025797396898269653,0.029365668073296547,0.035423606634140015
1772556053805259300,1.27725927734375,0.019776612520217896,0.03291385620832443,0.03060348704457283
1772556053815190300,1.287190185546875,0.016926497220993042,0.033941030502319336,0.023175131529569626
1772556053825121300,1.297121337890625,0.020995991304516792,0.03630810230970383,0.009294196963310242
1772556053835052300,1.30705224609375,0.02067880891263485,0.02837880328297615,0.004869887139648199
1772556053844983000,1.316983154296875,0.02746143378317356,0.01570780575275421,-0.0036435043439269066
1772556053854915000,1.3269150390625,0.030260948464274406,0.004762211814522743,-0.005122357979416847
1772556053864846300,1.336846435546875,0.025751153007149696,-0.000834370031952858,-0.008457603864371777
1772556053874777300,1.34677734375,0.01849297434091568,-0.013771739788353443,-0.014983679167926311
1772556053884708000,1.3567080078125,0.016885222867131233,-0.01914897933602333,-0.026341894641518593
1772556053894639400,1.366639404296875,0.011498181149363518,-0.016209648922085762,-0.04065611958503723
1772556053904570000,1.376570068359375,0.006416470743715763,-0.009655318222939968,-0.05064625293016434
1772556053914501000,1.386501220703125,0.00561565812677145,-0.001319623552262783,-0.05307132750749588
1772556053924432400,1.396432373046875,0.0073404088616371155,0.0038813166320323944,-0.05038079619407654
1772556053934363100,1.406363037109375,0.00237254798412323,0.0009278710931539536,-0.04640576243400574
1772556053944294100,1.416294189453125,0.009079096838831902,0.00030724890530109406,-0.0406525693833828
1772556053954225400,1.426225341796875,0.017583636566996574,0.004340872168540955,-0.03254617378115654
1772556053964157200,1.4361572265625,0.026915932074189186,0.014400988817214966,-0.022156309336423874
1772556053974088200,1.446088134765625,0.025104183703660965,0.006018156185746193,-0.006962441839277744
1772556053984019200,1.456019287109375,0.017487358301877975,0.00208296999335289,0.007590313442051411
1772556053993950200,1.4659501953125,0.012654254212975502,0.00023660063743591309,0.018421655520796776
1772556054003881200,1.475881103515625,0.011626486666500568,0.010003192350268364,0.02481156587600708
1772556054013812200,1.485812255859375,0.010706630535423756,0.016744717955589294,0.02566271275281906
1772556054023743200,1.4957431640625,0.010241346433758736,0.01953119784593582,0.015555724501609802
1772556054033674200,1.50567431640625,0.010668782517313957,0.01477452740073204,0.0034596468321979046
1772556054043605000,1.51560498046875,0.008657833561301231,0.008141066879034042,-0.005184854380786419
1772556054053536300,1.525536376953125,0.00737419119104743,0.004021689295768738,-0.01547983754426241
1772556054063467300,1.53546728515625,0.007922573015093803,0.0037358589470386505,-0.02210797742009163
1772556054073398000,1.54539794921875,0.0087492186576128,0.005687689408659935,-0.027363460510969162
1772556054083330000,1.555330078125,0.007438106462359428,0.009335972368717194,-0.01858198270201683
1772556054093261300,1.56526123046875,0.010631502605974674,0.01238103024661541,-0.011337917298078537
1772556054103192000,1.575192138671875,0.009050380438566208,0.014996634796261787,-0.0006618611514568329
1772556054113123000,1.585123046875,0.0058183674700558186,0.02265135943889618,0.0069558448158204556
1772556054123054300,1.595054443359375,0.008182547055184841,0.026378607377409935,0.012663660570979118
1772556054132985000,1.604985107421875,0.006830992177128792,0.026636669412255287,0.007579419761896133
1772556054142916000,1.614916015625,0.007221277803182602,0.03092966042459011,0.00665591936558485
1772556054152847400,1.624847412109375,0.008882824331521988,0.03162793815135956,0.001204162836074829
1772556054162778000,1.634778076171875,0.017198946326971054,0.025289693847298622,-0.0005417941138148308
1772556054172709000,1.644709228515625,0.015463365241885185,0.018672538921236992,-0.003493376076221466
1772556054182640400,1.654640380859375,0.01296607218682766,0.016946306452155113,-0.006122427061200142
1772556054192572200,1.664572265625,0.009312215261161327,0.01379258930683136,0.0008273571729660034
1772556054202503200,1.674503173828125,0.009740263223648071,0.011062752455472946,0.0067128525115549564
1772556054212434200,1.68443408203125,0.0052962470799684525,0.01090935431420803,0.01075526513159275
1772556054222365200,1.694365234375,0.0073455581441521645,0.008302005007863045,0.011616291478276253
1772556054232296200,1.704296142578125,0.014544615522027016,-0.0002850927412509918,0.013669588603079319
1772556054242227200,1.714227294921875,0.012154029682278633,-0.01368635706603527,0.013336875475943089
1772556054252158200,1.724158203125,0.010516718029975891,-0.013110848143696785,0.009093660861253738
1772556054262089200,1.734089111328125,0.011009583249688148,0.00034386105835437775,0.0031387479975819588
1772556054272020200,1.744020263671875,0.014523357152938843,0.007321344688534737,-0.0021593449637293816
1772556054281951200,1.753951171875,0.005276285577565432,0.00865849107503891,-0.009141427464783192
1772556054291882200,1.76388232421875,0.0032221893779933453,0.010834559798240662,-0.004192208871245384
1772556054301814300,1.773814208984375,0.005550985690206289,0.01417078822851181,-0.007199123501777649
1772556054311745300,1.783745361328125,0.008292177692055702,0.011106554418802261,-0.016320448368787766
1772556054321676500,1.793676513671875,0.015633534640073776,0.002772245556116104,-0.01838819310069084
1772556054331607600,1.803607666015625,0.016823966056108475,-0.0019348906353116035,-0.008982440456748009
1772556054341538300,1.813538330078125,0.01868734322488308,0.01097261905670166,0.003043470438569784
1772556054351469600,1.823469482421875,0.019993623718619347,0.02006039023399353,0.019196074455976486
1772556054361400600,1.833400634765625,0.017262902110815048,0.024378925561904907,0.025248384103178978
1772556054371331300,1.843331298828125,0.01438296027481556,0.02186862751841545,0.025061164051294327
1772556054381262600,1.8532626953125,0.011581584811210632,0.013012759387493134,0.012458140030503273
1772556054391193300,1.863193359375,0.014234093949198723,-0.0014034649357199669,0.0073169078677892685
1772556054401124400,1.873124267578125,0.020626788958907127,-0.01351570338010788,0.00036867614835500717
1772556054411055600,1.8830556640625,0.02370593510568142,-0.023173125460743904,-0.012424350716173649
1772556054420987600,1.892987548828125,0.02384721115231514,-0.023990578949451447,-0.01923362910747528
1772556054430918400,1.90291845703125,0.020075377076864243,-0.024828407913446426,-0.018416836857795715
1772556054440849700,1.912849609375,0.012632731348276138,-0.01652025431394577,-0.0158318430185318
1772556054450780400,1.922780517578125,0.0052158283069729805,-0.009702562354505062,-0.005295579321682453
1772556054460711400,1.93271142578125,-0.000841979868710041,-0.007016226649284363,-0.0014818282797932625
1772556054470642700,1.942642578125,-0.0035746495705097914,-0.004245207644999027,-0.005545546300709248
1772556054480573400,1.952573486328125,-0.0017282767221331596,-0.005075798369944096,-0.009482665918767452
1772556054490504400,1.96250439453125,0.0033040321432054043,-0.002290930598974228,-0.01133356336504221
1772556054500435700,1.972435791015625,0.0013079899363219738,0.004971994087100029,-0.010023384355008602
1772556054510366500,1.982366455078125,-0.0012108278460800648,0.008688434958457947,-0.005763924680650234
1772556054520297500,1.99229736328125,-0.004658862017095089,0.007326677441596985,-0.002615225501358509
1772556054530229500,2.0022294921875,-0.009931121952831745,0.0034118294715881348,-0.00460460688918829
1772556054540160500,2.012160400390625,-0.013120698742568493,-0.004459252581000328,-0.00880135502666235
1772556054550091500,2.022091552734375,-0.006410331930965185,-0.0077346740290522575,-0.014386535622179508
1772556054560022500,2.0320224609375,-0.000605796929448843,-0.01454746350646019,-0.015674568712711334
1772556054569953500,2.04195361328125,0.0021140892058610916,-0.008322857320308685,-0.00773541908711195
1772556054579884500,2.051884521484375,0.006337685510516167,-0.0006448570638895035,-0.004191518761217594
1772556054589815300,2.061815185546875,0.00662797037512064,0.0021389443427324295,0.0029883640818297863
1772556054599746600,2.07174658203125,0.004508581943809986,0.010004669427871704,0.00011279899626970291
1772556054609677600,2.081677490234375,0.0052577294409275055,0.015669213607907295,-0.006258015520870686
1772556054619608300,2.0916083984375,0.004187803249806166,0.016383450478315353,-0.014140088111162186
1772556054629539600,2.10153955078125,0.004771568346768618,0.018926501274108887,-0.027558958157896996
1772556054639470600,2.111470703125,0.005540504585951567,0.01937573216855526,-0.03959457576274872
1772556054649402400,2.12140234375,0.0020837211050093174,0.019088642671704292,-0.046797625720500946
1772556054659333400,2.13133349609375,-0.0009045591577887535,0.010954618453979492,-0.044741224497556686
1772556054669264600,2.1412646484375,-0.006587744690477848,-0.00030815601348876953,-0.03820502758026123
1772556054679195400,2.1511953125,-0.003712640842422843,-0.0044602081179618835,-0.0337451808154583
1772556054689126400,2.16112646484375,-0.0018678689375519753,0.0001649037003517151,-0.03618383780121803
1772556054699057700,2.1710576171875,0.00459211366251111,0.0076012760400772095,-0.039808113127946854
1772556054708988400,2.180988525390625,0.00479984050616622,0.009269746020436287,-0.04207952320575714
1772556054718919400,2.19091943359375,0.010474683716893196,-0.002896428108215332,-0.04789047688245773
1772556054728850700,2.2008505859375,0.016540298238396645,-0.026324255391955376,-0.050422608852386475
1772556054738781400,2.210781494140625,0.013379974290728569,-0.06258684396743774,-0.058909669518470764
1772556054748712400,2.22071240234375,0.006287176162004471,-0.11194054782390594,-0.07974810153245926
1772556054758643500,2.2306435546875,-0.017377944663167,-0.1696099191904068,-0.10797613114118576
1772556054768575500,2.240575439453125,-0.060179203748703,-0.2725916802883148,-0.12861323356628418
1772556054778506500,2.250506591796875,-0.11159002035856247,-0.3863566517829895,-0.10700321942567825
1772556054788437500,2.2604375,-0.11912357062101364,-0.4492911398410797,-0.05521378666162491
1772556054798368500,2.270368408203125,-0.100560761988163,-0.47995173931121826,-0.007532765157520771
1772556054808299500,2.280299560546875,-0.09106818586587906,-0.4912174344062805,0.031702522188425064
1772556054818230300,2.290230224609375,-0.1554623544216156,-0.46526339650154114,0.06442383676767349
1772556054828161500,2.30016162109375,-0.1971655935049057,-0.44579675793647766,0.09288583695888519
1772556054838092500,2.310092529296875,-0.19901156425476074,-0.3295234739780426,0.10207559913396835
1772556054848023300,2.320023193359375,-0.21411435306072235,-0.17734432220458984,0.14069809019565582
1772556054857954600,2.32995458984375,-0.2590903341770172,-0.1839606761932373,0.2117147445678711
1772556054867885600,2.339885498046875,-0.17147421836853027,0.10127266496419907,0.18478724360466003
1772556054877817300,2.3498173828125,-0.11045359820127487,0.15806375443935394,0.16475611925125122
1772556054887748400,2.359748291015625,-0.09204582870006561,0.10275521874427795,0.12447340041399002
1772556054897679600,2.3696796875,-0.0901852548122406,0.10702309012413025,0.0543663464486599
1772556054907610400,2.3796103515625,-0.09143294394016266,0.08500593900680542,-0.0049286698922514915
1772556054917541400,2.389541259765625,-0.09184161573648453,0.04224546626210213,-0.04042917490005493
1772556054927472600,2.39947265625,-0.08742183446884155,0.019434690475463867,-0.051221370697021484
1772556054937403400,2.4094033203125,-0.0764031782746315,0.007207578048110008,-0.053903114050626755
1772556054947334400,2.41933447265625,-0.05691283196210861,0.009662212803959846,-0.04790114983916283
1772556054957265400,2.429265380859375,-0.039759546518325806,0.009779948741197586,-0.04174560308456421
1772556054967196400,2.439196533203125,-0.0238394346088171,0.010720577090978622,-0.03373614698648453
1772556054977127700,2.449127685546875,-0.0026429854333400726,0.01282229833304882,-0.02819756418466568
1772556054987058400,2.459058349609375,0.021283384412527084,0.010877391323447227,-0.028402358293533325
1772556054996989400,2.468989501953125,0.04493332281708717,-0.0008647525683045387,-0.021895725280046463
1772556055006921500,2.47892138671875,0.06377945095300674,-0.0072350334376096725,-0.027617525309324265
1772556055016852500,2.4888525390625,0.08213555812835693,-0.010485637933015823,-0.031244123354554176
1772556055026783500,2.498783447265625,0.101369708776474,-0.02303525060415268,-0.03174879401922226
1772556055036714500,2.508714599609375,0.1164153665304184,-0.038583770394325256,-0.03201935812830925
1772556055046645500,2.5186455078125,0.12554387748241425,-0.0471612811088562,-0.04586886242032051
1772556055056576500,2.528576416015625,0.11503318697214127,-0.05503875017166138,-0.06455299258232117
1772556055066507500,2.538507568359375,0.09465228021144867,-0.05860072746872902,-0.09419131278991699
1772556055076438500,2.5484384765625,0.06079980731010437,-0.07072649896144867,-0.11954029649496078
1772556055086369500,2.55836962890625,0.021770387887954712,-0.07505226880311966,-0.1453481763601303
1772556055096300500,2.568300537109375,-0.01562056690454483,-0.06794466823339462,-0.15512478351593018
1772556055106231600,2.5782314453125,-0.04920436069369316,-0.056582823395729065,-0.1576763540506363
1772556055116162600,2.58816259765625,-0.07325363904237747,-0.042979106307029724,-0.15137726068496704
1772556055126094600,2.598094482421875,-0.08643495291471481,-0.029091784730553627,-0.13123658299446106
1772556055136025300,2.608025390625,-0.08999036252498627,-0.0175255686044693,-0.10218721628189087
1772556055145956600,2.61795654296875,-0.09181409329175949,-0.006800219416618347,-0.06472639739513397
1772556055155887600,2.6278876953125,-0.1030631959438324,-0.00639659259468317,-0.02335485816001892
1772556055165818400,2.637818359375,-0.1256452053785324,-0.003331294283270836,0.011202053166925907
1772556055175749600,2.64774951171875,-0.1613110452890396,0.008267305791378021,0.03767706826329231
1772556055185680400,2.657680419921875,-0.20796190202236176,0.035115163773298264,0.05851044878363609
1772556055195611400,2.667611328125,-0.25408968329429626,0.06156548857688904,0.07695300877094269
1772556055205542700,2.677542724609375,-0.29601237177848816,0.09844493865966797,0.09803592413663864
1772556055215473400,2.687473388671875,-0.3267885446548462,0.13198670744895935,0.11916963756084442
1772556055225404400,2.697404296875,-0.3467406928539276,0.14919817447662354,0.15056884288787842
1772556055235336400,2.70733642578125,-0.3599187731742859,0.1434893161058426,0.18513517081737518
1772556055245267500,2.717267333984375,-0.3662842810153961,0.12085112184286118,0.22340400516986847
1772556055255198500,2.727198486328125,-0.3589983582496643,0.09700454771518707,0.23530523478984833
1772556055265129500,2.73712939453125,-0.3369612395763397,0.0749402567744255,0.2287522703409195
1772556055275060500,2.747060546875,-0.303914874792099,0.032423537224531174,0.2040511518716812
1772556055284991500,2.756991455078125,-0.2676745653152466,-0.006126520223915577,0.16219718754291534
1772556055294922500,2.766922607421875,-0.2372695654630661,-0.04386124759912491,0.12044515460729599
1772556055304853500,2.776853515625,-0.20839157700538635,-0.07490784674882889,0.07876987755298615
1772556055314784000,2.786783935546875,-0.18025372922420502,-0.10439162701368332,0.05700477957725525
1772556055324715000,2.796715087890625,-0.1509253978729248,-0.12363403290510178,0.041640471667051315
1772556055334646000,2.80664599609375,-0.11919409781694412,-0.1235702782869339,0.02740740031003952
1772556055344577000,2.816576904296875,-0.0923590213060379,-0.11654113233089447,0.010610044002532959
1772556055354508000,2.826508056640625,-0.07193413376808167,-0.09934186935424805,-0.014788398519158363
1772556055364440000,2.836440185546875,-0.057604726403951645,-0.0827098935842514,-0.04069482907652855
1772556055374371000,2.84637109375,-0.054547809064388275,-0.06297404319047928,-0.060742009431123734
1772556055384301800,2.8563017578125,-0.05734333395957947,-0.03881411254405975,-0.07580936700105667
1772556055394233000,2.866233154296875,-0.07200106233358383,-0.008139852434396744,-0.0777207463979721
1772556055404164000,2.8761640625,-0.08650916069746017,0.02961844578385353,-0.06452398747205734
1772556055414094800,2.8860947265625,-0.10189003497362137,0.06767851859331131,-0.03651731088757515
1772556055424026000,2.896026123046875,-0.11724396049976349,0.11822451651096344,-0.0035646865144371986
1772556055433957000,2.90595703125,-0.11929547041654587,0.17790035903453827,0.032987892627716064
1772556055443887900,2.915887939453125,-0.11810610443353653,0.21567091345787048,0.06778688728809357
1772556055453819100,2.925819091796875,-0.11659369617700577,0.23270484805107117,0.09571804106235504
1772556055463750000,2.93575,-0.11983902007341385,0.22702831029891968,0.11886091530323029
1772556055473681000,2.945680908203125,-0.13112926483154297,0.2186320424079895,0.13590030372142792
1772556055483613000,2.955613037109375,-0.14220374822616577,0.2138442099094391,0.14970771968364716
1772556055493544200,2.965544189453125,-0.14447961747646332,0.21044468879699707,0.16222894191741943
1772556055503475000,2.975474853515625,-0.13259471952915192,0.20091776549816132,0.17491650581359863
1772556055513406000,2.985406005859375,-0.11009100824594498,0.19217060506343842,0.1838333010673523
1772556055523337000,2.9953369140625,-0.07508642226457596,0.1813690960407257,0.19515226781368256
1772556055533268000,3.00526806640625,-0.0318041555583477,0.15567180514335632,0.19291570782661438
1772556055543199000,3.015198974609375,0.016214504837989807,0.10973333567380905,0.17814581096172333
1772556055553130000,3.0251298828125,0.05918221175670624,0.06493667513132095,0.15554243326187134
1772556055563061000,3.03506103515625,0.10350227355957031,0.017361171543598175,0.12146914750337601
1772556055572992000,3.044991943359375,0.13978806138038635,-0.028709836304187775,0.08851638436317444
1772556055582923000,3.054923095703125,0.1616201251745224,-0.0751228779554367,0.05435175076127052
1772556055592854000,3.06485400390625,0.1674669235944748,-0.12374846637248993,0.02780919522047043
1772556055602786000,3.0747861328125,0.15594235062599182,-0.16562055051326752,0.011588945984840393
1772556055612716800,3.084716796875,0.1349727064371109,-0.20057177543640137,0.0009858682751655579
1772556055622648000,3.09464794921875,0.11553750187158585,-0.21460582315921783,0.0036897757090628147
1772556055632579000,3.1045791015625,0.09889771044254303,-0.2116774171590805,0.013628054410219193
1772556055642509800,3.114509765625,0.08216959983110428,-0.1890386939048767,0.025785384699702263
1772556055652441000,3.124441162109375,0.07110700011253357,-0.14481785893440247,0.034575819969177246
1772556055662372000,3.1343720703125,0.06261923909187317,-0.10378386080265045,0.03762087598443031
1772556055672302800,3.144302734375,0.05327536538243294,-0.06460098922252655,0.03369664400815964
1772556055682234000,3.154234130859375,0.051018066704273224,-0.04262378439307213,0.02041412889957428
1772556055692164900,3.164164794921875,0.048264361917972565,-0.03264881297945976,-0.004532307386398315
1772556055702096000,3.174095947265625,0.04254469275474548,-0.026445243507623672,-0.034069426357746124
1772556055712027100,3.184027099609375,0.03733617067337036,-0.016939999535679817,-0.06547089666128159
1772556055721959000,3.193958984375,0.035076744854450226,-0.012237390503287315,-0.08661959320306778
1772556055731890000,3.203889892578125,0.03890494257211685,-0.0009672529995441437,-0.10207229852676392
1772556055741821000,3.213821044921875,0.04526510462164879,0.017559558153152466,-0.11007989943027496
1772556055751752000,3.223751953125,0.06001947075128555,0.04061863571405411,-0.11455417424440384
1772556055761683000,3.233682861328125,0.07318640500307083,0.06649657338857651,-0.12195111066102982
1772556055771614000,3.243614013671875,0.08821120113134384,0.08786345273256302,-0.1303391009569168
1772556055781545000,3.253544921875,0.10236483812332153,0.11152937263250351,-0.14028601348400116
1772556055791476000,3.26347607421875,0.10482440143823624,0.12427087128162384,-0.14191624522209167
1772556055801407000,3.273406982421875,0.10792592167854309,0.1196388304233551,-0.1352199912071228
1772556055811338000,3.283337890625,0.09860844910144806,0.0961792841553688,-0.11725527793169022
1772556055821269000,3.29326904296875,0.08421380072832108,0.07255890965461731,-0.09979958832263947
1772556055831200000,3.303199951171875,0.06996730715036392,0.05061808228492737,-0.07226982712745667
1772556055841131000,3.313131103515625,0.05732421576976776,0.02632765844464302,-0.04526883736252785
1772556055851063000,3.32306298828125,0.04934072494506836,0.001470593735575676,-0.011703942902386189
1772556055860994000,3.332994140625,0.04074937105178833,-0.027111783623695374,0.02533769980072975
1772556055870925000,3.342925048828125,0.0327729769051075,-0.057565536350011826,0.055813439190387726
1772556055880856000,3.35285595703125,0.02790525183081627,-0.08357716351747513,0.07654055953025818
1772556055890786800,3.362786865234375,0.021095365285873413,-0.09788663685321808,0.0823073759675026
1772556055900718000,3.372718017578125,0.01645614206790924,-0.10016123950481415,0.07952916622161865
1772556055910649000,3.382649169921875,0.01586221717298031,-0.09483948349952698,0.07007881253957748
1772556055920579800,3.392579833984375,0.01780366152524948,-0.07796995341777802,0.059376634657382965
1772556055930511000,3.402510986328125,0.023283421993255615,-0.05962953343987465,0.057643573731184006
1772556055940442000,3.412442138671875,0.02956954762339592,-0.04044864699244499,0.058839067816734314
1772556055950372900,3.422372802734375,0.03352208435535431,-0.03088175505399704,0.05427693948149681
1772556055960304000,3.43230419921875,0.03838527947664261,-0.025400435552001,0.05008059740066528
1772556055970236200,3.442236083984375,0.04393023997545242,-0.03202056512236595,0.03762068226933479
1772556055980167000,3.4521669921875,0.04193393513560295,-0.035287998616695404,0.02003742754459381
1772556055990098000,3.462097900390625,0.030741699039936066,-0.03497452661395073,0.007075262255966663
1772556056000029200,3.472029296875,0.018986504524946213,-0.028875887393951416,-0.00732391607016325
1772556056009960000,3.4819599609375,0.008229152299463749,-0.021174263209104538,-0.00643573235720396
1772556056019891000,3.491890869140625,-0.0018927240744233131,-0.01908767595887184,0.00005732104182243347
1772556056029822200,3.501822265625,-0.012235108762979507,-0.01732669025659561,0.0024828538298606873
1772556056039753000,3.5117529296875,-0.016176586970686913,-0.0036201998591423035,0.0016532791778445244
1772556056049684000,3.52168408203125,-0.014528755098581314,0.018802575767040253,-0.013883952982723713
1772556056059615000,3.531614990234375,-0.009489787742495537,0.0332864448428154,-0.027275659143924713
1772556056069546000,3.5415458984375,-0.013543879613280296,0.0460088774561882,-0.03992085158824921
1772556056079477000,3.55147705078125,-0.025460725650191307,0.042658887803554535,-0.05034206807613373
1772556056089408800,3.56140869140625,-0.04240180552005768,0.03338208794593811,-0.0538785457611084
1772556056099340000,3.571340087890625,-0.06342612951993942,0.021430086344480515,-0.0495610237121582
1772556056109271000,3.58127099609375,-0.07367844879627228,0.0201262254267931,-0.04471319913864136
1772556056119201800,3.591201904296875,-0.0801272988319397,0.00948316790163517,-0.03660573810338974
1772556056129133000,3.601133056640625,-0.0800328403711319,0.008476601913571358,-0.029971396550536156
1772556056139064000,3.61106396484375,-0.07007183134555817,0.004282655194401741,-0.019963238388299942
1772556056148994800,3.620994873046875,-0.06744266301393509,-0.003107244148850441,-0.010771038942039013
1772556056158926000,3.630926025390625,-0.060140542685985565,-0.021772541105747223,-0.01334365364164114
1772556056168857000,3.640857177734375,-0.05917713791131973,-0.040175437927246094,-0.020555749535560608
1772556056178787800,3.650787841796875,-0.0532180517911911,-0.06633806228637695,-0.03146165981888771
1772556056188719000,3.660718994140625,-0.05398806184530258,-0.08608018606901169,-0.043352704495191574
1772556056198649900,3.67064990234375,-0.052085764706134796,-0.08335737138986588,-0.057553481310606
1772556056208580900,3.680580810546875,-0.05311627313494682,-0.07147714495658875,-0.06325572729110718
1772556056218513000,3.690512939453125,-0.05419512093067169,-0.04700083285570145,-0.04953885078430176
1772556056228444200,3.700444091796875,-0.05798852816224098,-0.01659226603806019,-0.023221617564558983
1772556056238375000,3.710375,-0.0620913952589035,0.016819221898913383,0.0038558077067136765
1772556056248306000,3.720305908203125,-0.0645318254828453,0.038403283804655075,0.028849799185991287
1772556056258237000,3.73023681640625,-0.06932418048381805,0.06100286543369293,0.04090273380279541
1772556056268168000,3.74016796875,-0.06820552051067352,0.0710623562335968,0.048481814563274384
1772556056278099000,3.750098876953125,-0.0639609768986702,0.06871025264263153,0.045593615621328354
1772556056288030000,3.760030029296875,-0.06436826288700104,0.05489370971918106,0.038046013563871384
1772556056297961000,3.7699609375,-0.06406572461128235,0.043675146996974945,0.027027450501918793
1772556056307892000,3.77989208984375,-0.05370430275797844,0.03661029040813446,0.00878062192350626
1772556056317823000,3.789822998046875,-0.05169867351651192,0.046127624809741974,0.0012452071532607079
1772556056327753700,3.799753662109375,-0.04738076031208038,0.04093688726425171,-0.0009671654552221298
1772556056337685800,3.809685791015625,-0.044013991951942444,0.034826792776584625,0.0023692427203059196
1772556056347617000,3.819616943359375,-0.0416937991976738,0.023863760754466057,0.014292268082499504
1772556056357547800,3.8295478515625,-0.04157688841223717,0.0068706609308719635,0.0318257212638855
1772556056367478800,3.839478759765625,-0.036505382508039474,-0.01924341917037964,0.03689016029238701
1772556056377410000,3.84941015625,-0.028865838423371315,-0.04085017740726471,0.039638277143239975
1772556056387340800,3.8593408203125,-0.01709439978003502,-0.05289272964000702,0.03550558164715767
1772556056397271800,3.869271728515625,-0.01711144484579563,-0.06712998449802399,0.025494493544101715
1772556056407202800,3.879202880859375,-0.015817727893590927,-0.07510751485824585,0.013114448636770248
1772556056417133800,3.8891337890625,-0.023488163948059082,-0.07086056470870972,0.0029414398595690727
1772556056427064800,3.89906494140625,-0.024680238217115402,-0.04599498212337494,-0.011097637005150318
1772556056436995800,3.908995849609375,-0.01960318721830845,-0.01818785071372986,-0.021143347024917603
1772556056446926800,3.9189267578125,-0.01122443936765194,0.013345466926693916,-0.02872273698449135
1772556056456857900,3.92885791015625,-0.009219344705343246,0.04363413155078888,-0.038747671991586685
1772556056466789600,3.93878955078125,-0.01096358522772789,0.06611054390668869,-0.04288873076438904
1772556056476721000,3.948720947265625,-0.017660368233919144,0.08182080090045929,-0.04230310022830963
1772556056486652000,3.95865185546875,-0.025196624919772148,0.08573849499225616,-0.03224083408713341
1772556056496582700,3.968582763671875,-0.0332777202129364,0.07068497687578201,-0.018631283193826675
1772556056506514000,3.978513916015625,-0.03454156965017319,0.051766522228717804,-0.005562320351600647
1772556056516445000,3.98844482421875,-0.03322197124361992,0.0388624407351017,0.004356889054179192
1772556056526375700,3.998375732421875,-0.023101959377527237,0.030231934040784836,0.006364645902067423
1772556056536307000,4.008306884765625,-0.01536068320274353,0.012185022234916687,0.004547304939478636
1772556056546238000,4.018238037109375,-0.014939460903406143,-0.0013514496386051178,0.004813492298126221
1772556056556168700,4.028168701171875,-0.013612408190965652,-0.009114829823374748,0.000023264437913894653
1772556056566100000,4.038099853515625,-0.014516416005790234,-0.01028601173311472,-0.0030657248571515083
1772556056576030700,4.04803076171875,-0.018827807158231735,-0.00698182824999094,0.0015205051749944687
1772556056585962800,4.057962646484375,-0.018926478922367096,0.002181500196456909,0.006076363380998373
1772556056595893800,4.067893798828125,-0.012054458260536194,0.0032172035425901413,0.01419607549905777
1772556056605824800,4.07782470703125,-0.004763259086757898,0.005503842607140541,0.01658390648663044
1772556056615755800,4.087755859375,0.00923325028270483,-0.0008552530780434608,0.020453479140996933
1772556056625686800,4.097686767578125,0.022549547255039215,-0.016461562365293503,0.015339849516749382
1772556056635617800,4.10761767578125,0.0331001915037632,-0.03517213463783264,0.002530578523874283
1772556056645548800,4.117548828125,0.04223576560616493,-0.051789432764053345,-0.01712683215737343
1772556056655479800,4.127479736328125,0.050556015223264694,-0.05158889666199684,-0.0391375906765461
1772556056665410800,4.137410888671875,0.055642738938331604,-0.03411243110895157,-0.06281804293394089
1772556056675341800,4.147341796875,0.05874292552471161,-0.017540378496050835,-0.07026051729917526
1772556056685272800,4.15727294921875,0.05778796225786209,0.006265854462981224,-0.07340999692678452
1772556056695203800,4.167203857421875,0.057075031101703644,0.031021535396575928,-0.0679507777094841
1772556056705134800,4.177134765625,0.05051881819963455,0.04953297972679138,-0.050779394805431366
1772556056715067000,4.18706689453125,0.042291782796382904,0.053101882338523865,-0.03266191482543945
1772556056724997600,4.19699755859375,0.03274963051080704,0.045010585337877274,-0.016247741878032684
1772556056734929000,4.206928955078125,0.032429251819849014,0.03420507535338402,-0.007601523771882057
1772556056744860000,4.21685986328125,0.028472505509853363,0.026840640231966972,-0.0012054657563567162
1772556056754790700,4.226790771484375,0.028414182364940643,0.017299333587288857,0.0037107295356690884
1772556056764722000,4.236721923828125,0.03233874961733818,0.015489045530557632,0.00935727171599865
1772556056774652700,4.246652587890625,0.032545942813158035,0.018264859914779663,0.013004736974835396
1772556056784583700,4.256583740234375,0.02957651950418949,0.01611398719251156,0.016146276146173477
1772556056794515000,4.266514892578125,0.024009447544813156,0.010732270777225494,0.018672551959753036
1772556056804445700,4.27644580078125,0.020554352551698685,0.006426628679037094,0.024095941334962845
1772556056814376700,4.286376708984375,0.027480168268084526,0.004370136186480522,0.02086872234940529
1772556056824308000,4.296307861328125,0.02925201505422592,0.0035412274301052094,0.017478037625551224
1772556056834238700,4.30623876953125,0.030690118670463562,0.0015190895646810532,0.01261537242680788
1772556056844170800,4.316170654296875,0.034241221845149994,-0.0008283033967018127,0.012340628542006016
1772556056854102000,4.32610205078125,0.030565526336431503,-0.0009137904271483421,0.011519575491547585
1772556056864032800,4.33603271484375,0.03164801746606827,0.009676109999418259,0.011823316104710102
1772556056873963800,4.3459638671875,0.027160324156284332,0.01565703935921192,0.017591189593076706
1772556056883895000,4.35589501953125,0.020136989653110504,0.014707965776324272,0.027671106159687042
1772556056893825800,4.36582568359375,0.015427455306053162,0.019312836229801178,0.030680213123559952
1772556056903756800,4.3757568359375,0.015742242336273193,0.021036066114902496,0.03360363841056824
1772556056913688000,4.38568798828125,0.014793356880545616,0.017716966569423676,0.032509081065654755
1772556056923618800,4.395618896484375,0.01619315892457962,0.010924924165010452,0.027784589678049088
1772556056933549800,4.4055498046875,0.009980270639061928,0.004149310290813446,0.020299507305026054
1772556056943480800,4.415480712890625,0.01146906241774559,0.00255381315946579,0.009661616757512093
1772556056953411800,4.425411865234375,0.010781168937683105,0.006801821291446686,0.005542238708585501
1772556056963344000,4.43534375,0.012590168043971062,0.006616462022066116,0.005266762338578701
1772556056973275000,4.44527490234375,0.015502599999308586,0.003276592120528221,0.010134754702448845
1772556056983206000,4.455205810546875,0.011533426120877266,-0.009799212217330933,0.0166646558791399
1772556056993137000,4.465136962890625,0.014469828456640244,-0.017475508153438568,0.023556383326649666
1772556057003067600,4.475067626953125,0.010161098092794418,-0.016261689364910126,0.015232843346893787
1772556057012999000,4.4849990234375,0.006723756901919842,0.002155400812625885,-0.0005772784352302551
1772556057022930000,4.494929931640625,0.008903998881578445,0.027008233591914177,-0.016255242750048637
1772556057032860700,4.504860595703125,0.013944564387202263,0.03911096602678299,-0.022075315937399864
1772556057042792000,4.5147919921875,0.011798500083386898,0.04023236781358719,-0.023851048201322556
1772556057052723000,4.524722900390625,0.013280549086630344,0.04413815960288048,-0.022807087749242783
1772556057062653700,4.53465380859375,0.021331196650862694,0.03154876083135605,-0.015088214538991451
1772556057072585000,4.5445849609375,0.026372825726866722,0.010718047618865967,-0.0070992643013596535
1772556057082515700,4.554515625,0.029183436185121536,-0.01464302372187376,0.0032178866676986217
1772556057092446700,4.56444677734375,0.03673403337597847,-0.01984577439725399,0.005327376537024975
1772556057102378800,4.574378662109375,0.0403704009950161,-0.013522152788937092,0.003604535013437271
1772556057112310000,4.58431005859375,0.037696320563554764,-0.005573416128754616,-0.004281351342797279
1772556057122240800,4.59424072265625,0.031382277607917786,-0.00375578086823225,-0.01636691391468048
1772556057132171800,4.604171875,0.024388015270233154,-0.0021264590322971344,-0.024812065064907074
1772556057142102800,4.614102783203125,0.02096834033727646,-0.0033018719404935837,-0.027145229279994965
1772556057152033800,4.62403369140625,0.02211909368634224,-0.009744059294462204,-0.019642038270831108
1772556057161964800,4.63396484375,0.0180350448936224,-0.018973667174577713,-0.01034453883767128
1772556057171895800,4.643895751953125,0.019886475056409836,-0.030233247205615044,0.0009011924266815186
1772556057181826800,4.653826904296875,0.020293671637773514,-0.04200037196278572,0.008005269803106785
1772556057191757800,4.6637578125,0.01696951687335968,-0.05501071363687515,0.006880616769194603
1772556057201688800,4.673688720703125,0.014502806589007378,-0.06891331821680069,-0.003415461629629135
1772556057211619800,4.683619873046875,0.010254532098770142,-0.06975088268518448,-0.023322854191064835
1772556057221551900,4.6935517578125,0.007411740720272064,-0.057212959975004196,-0.04056131839752197
1772556057231482600,4.703482666015625,0.009727892465889454,-0.03183809667825699,-0.045810408890247345
1772556057241414000,4.713413818359375,0.003506481647491455,-0.020313799381256104,-0.04090672731399536
1772556057251345000,4.723344970703125,-0.0021178480237722397,-0.01213523093611002,-0.023182328790426254
1772556057261275600,4.733275634765625,-0.014786150306463242,-0.002552323043346405,0.0025115199387073517
1772556057271207000,4.74320703125,-0.02097879908978939,0.010407151654362679,0.02639820985496044
1772556057281138000,4.753137939453125,-0.02532321773469448,0.015428174287080765,0.048031941056251526
1772556057291068700,4.763068603515625,-0.02585851214826107,0.021086059510707855,0.05968646705150604
1772556057301000000,4.773,-0.02894258126616478,0.020609531551599503,0.05903659015893936
1772556057310931700,4.782931640625,-0.03278578817844391,0.016288820654153824,0.05392465367913246
1772556057320862700,4.79286279296875,-0.03803776577115059,0.01415187120437622,0.04928673803806305
1772556057330793700,4.802793701171875,-0.04098721966147423,0.014729777351021767,0.040907103568315506
1772556057340724700,4.812724853515625,-0.050404954701662064,0.010084426030516624,0.038548871874809265
1772556057350656800,4.82265673828125,-0.05256371200084686,0.0013314131647348404,0.03869188576936722
1772556057360587500,4.83258740234375,-0.05253636837005615,0.0019727088510990143,0.043951038271188736
1772556057370518800,4.842518798828125,-0.0496380552649498,0.0008999872952699661,0.042144883424043655
1772556057380449800,4.85244970703125,-0.0439094603061676,-0.010174905881285667,0.043017975986003876
1772556057390380500,4.862380615234375,-0.03777646645903587,-0.022806812077760696,0.03301168233156204
1772556057400311800,4.872311767578125,-0.034376852214336395,-0.027296261861920357,0.0162923876196146
1772556057410242800,4.882242919921875,-0.028130672872066498,-0.02568718045949936,-0.00576550979167223
1772556057420173600,4.892173583984375,-0.023292865604162216,-0.00320397038012743,-0.026010647416114807
1772556057430104800,4.902104736328125,-0.02042677253484726,0.02649294026196003,-0.03188664838671684
1772556057440035800,4.912035888671875,-0.01974828541278839,0.06374714523553848,-0.03658660501241684
1772556057449966600,4.921966552734375,-0.01871178299188614,0.09035638719797134,-0.031218204647302628
1772556057459897900,4.93189794921875,-0.007723227143287659,0.08771102130413055,-0.01892770454287529
1772556057469828600,4.94182861328125,0.0028146347030997276,0.06188341975212097,0.0027078157290816307
1772556057479760600,4.9517607421875,0.010213518515229225,0.02749854326248169,0.016809573397040367
1772556057489691600,4.961691650390625,0.018679175525903702,0.004805481061339378,0.01579677313566208
1772556057499622700,4.97162255859375,0.017932647839188576,-0.007580637000501156,-0.0006184931844472885
1772556057509553700,4.9815537109375,0.007927950471639633,-0.02212975174188614,-0.015031253919005394
1772556057519484700,4.991484619140625,-0.0031779641285538673,-0.023864269256591797,-0.021530965343117714
1772556057529415700,5.001415771484375,-0.0070832232013344765,-0.01587079092860222,-0.02427535317838192
1772556057539346700,5.0113466796875,-0.008692039176821709,-0.005388006567955017,-0.016261272132396698
1772556057549277700,5.021277587890625,-0.00882120244204998,0.008865764364600182,0.002073260024189949
1772556057559208700,5.031208740234375,-0.004399602301418781,0.009675875306129456,0.02319950982928276
1772556057569139700,5.0411396484375,0.002694792114198208,0.012878859415650368,0.03372884914278984
1772556057579070700,5.05107080078125,0.01004471443593502,0.02058437466621399,0.03695978224277496
1772556057589001700,5.061001708984375,0.009593576192855835,0.019223231822252274,0.035406362265348434
1772556057598932700,5.0709326171875,0.0053789508529007435,0.016693541780114174,0.0316687673330307
1772556057608864800,5.08086474609375,0.0010377317667007446,0.01776306889951229,0.0203482024371624
1772556057618795500,5.09079541015625,-0.004493786953389645,0.0325138084590435,0.01671369932591915
1772556057628726800,5.100726806640625,-0.0024040048010647297,0.04373982921242714,0.016678012907505035
1772556057638657800,5.11065771484375,-0.0020633465610444546,0.05459921434521675,0.017039572820067406
1772556057648588500,5.120588623046875,-0.001993305515497923,0.058000605553388596,0.023910528048872948
1772556057658519800,5.130519775390625,-0.0017030625604093075,0.07232817262411118,0.030161790549755096
1772556057668450600,5.140450439453125,-0.003480456303805113,0.08312036842107773,0.028387855738401413
1772556057678381600,5.150381591796875,0.0021451618522405624,0.08373308181762695,0.027755720540881157
1772556057688312800,5.160312744140625,0.0032098935917019844,0.0774107351899147,0.01971004530787468
1772556057698243600,5.17024365234375,0.002944864798337221,0.06787574291229248,0.014499079436063766
1772556057708174600,5.180174560546875,0.0033201039768755436,0.06626399606466293,0.007317067123949528
1772556057718105900,5.19010595703125,0.003817716147750616,0.06909080594778061,0.006791784428060055
1772556057728036600,5.20003662109375,-0.0026388512924313545,0.07453297823667526,0.007257038727402687
1772556057737967600,5.209967529296875,-0.006180766504257917,0.09311486035585403,0.002850797027349472
1772556057747899600,5.219899658203125,-0.006604475434869528,0.10590016841888428,0.007193613797426224
1772556057757830700,5.22983056640625,-0.0028148875571787357,0.10254432260990143,0.014146273955702782
1772556057767761700,5.23976171875,-0.004290544893592596,0.0936775952577591,0.015301020815968513
1772556057777692700,5.249692626953125,-0.0023386713583022356,0.08130574226379395,0.014222758822143078
1772556057787623700,5.259623779296875,-0.0006054858677089214,0.06401889771223068,0.01035931147634983
1772556057797554700,5.2695546875,0.0049677565693855286,0.052568018436431885,0.0058051361702382565
1772556057807485700,5.279485595703125,0.012004893273115158,0.03974277153611183,0.005881036631762981
1772556057817416700,5.289416748046875,0.018366917967796326,0.03592199087142944,0.005871810019016266
1772556057827347700,5.29934765625,0.026165984570980072,0.02733808569610119,0.0036352872848510742
1772556057837278700,5.30927880859375,0.030509911477565765,0.015113672241568565,-0.00006690900772809982
1772556057847209700,5.319209716796875,0.02783876284956932,-0.0008671581745147705,-0.0019612153992056847
1772556057857140700,5.329140625,0.02947727032005787,-0.01713147759437561,-0.0056836241856217384
1772556057867071700,5.33907177734375,0.03484301269054413,-0.030475512146949768,-0.007349963299930096
1772556057877003800,5.349003662109375,0.034605011343955994,-0.03729432821273804,-0.0027533890679478645
1772556057886934800,5.358934814453125,0.032871030271053314,-0.03898170590400696,-0.0008905082941055298
1772556057896865500,5.368865478515625,0.03437749296426773,-0.038313038647174835,0.010874870233237743
1772556057906796800,5.378796875,0.027943825349211693,-0.02895415760576725,0.021141622215509415
1772556057916727800,5.388727783203125,0.024883363395929337,-0.017780572175979614,0.0345451720058918
1772556057926658600,5.398658447265625,0.021702218800783157,-0.004984615370631218,0.03748743236064911
1772556057936589800,5.40858984375,0.018861781805753708,0.004737678915262222,0.04278991371393204
1772556057946520800,5.418520751953125,0.018822897225618362,0.008674362674355507,0.04147324711084366
1772556057956451600,5.42845166015625,0.020870424807071686,0.008677665144205093,0.030871234834194183
1772556057966382800,5.4383828125,0.024821490049362183,0.004507953301072121,0.02080448716878891
1772556057976313600,5.448313720703125,0.023281827569007874,-0.004652679897844791,0.01073734275996685
1772556057986244600,5.45824462890625,0.022438671439886093,-0.012594225816428661,0.00515695521607995
1772556057996176000,5.46817578125,0.016093779355287552,-0.01389358565211296,-0.0019576260820031166
1772556058006108000,5.47810791015625,0.010587694123387337,-0.009155289269983768,-0.00321330688893795
1772556058016038700,5.48803857421875,0.0012854007072746754,-0.006225829944014549,-0.005957290530204773
1772556058025969700,5.4979697265625,-0.0029506231658160686,-0.0013698218390345573,-0.004347676411271095
1772556058035900700,5.507900634765625,-0.008763277903199196,-0.0024656932801008224,-0.0009540403261780739
1772556058045831700,5.517831787109375,-0.013827545568346977,0.004443079233169556,-0.0003300616517663002
1772556058055762700,5.5277626953125,-0.014271361753344536,0.011590711772441864,-0.004695963114500046
1772556058065693700,5.537693603515625,-0.014652726240456104,0.01379394344985485,-0.011831903830170631
1772556058075624700,5.547624755859375,-0.013129575178027153,0.021563610062003136,-0.02124258503317833
1772556058085555700,5.5575556640625,-0.014546909369528294,0.020117515698075294,-0.028503429144620895
1772556058095486700,5.56748681640625,-0.02017594501376152,0.016097156330943108,-0.0342225581407547
1772556058105417700,5.577417724609375,-0.030562806874513626,0.016780788078904152,-0.04175104945898056
1772556058115348700,5.5873486328125,-0.03811025246977806,0.019534258171916008,-0.04421871155500412
1772556058125279700,5.59727978515625,-0.047822799533605576,0.032464705407619476,-0.040150199085474014
1772556058135211800,5.607211669921875,-0.05863695964217186,0.050055600702762604,-0.03710760548710823
1772556058145142800,5.617142822265625,-0.0627605989575386,0.0653940737247467,-0.03341726213693619
1772556058155073500,5.627073486328125,-0.06306402385234833,0.07055363059043884,-0.026422135531902313
1772556058165004800,5.6370048828125,-0.060941483825445175,0.07188574224710464,-0.02803601324558258
1772556058174935800,5.646935791015625,-0.05709303915500641,0.06344277411699295,-0.03658951073884964
1772556058184866600,5.656866455078125,-0.053877271711826324,0.06605666875839233,-0.045646920800209045
1772556058194797800,5.6667978515625,-0.054127030074596405,0.06251388788223267,-0.05384219437837601
1772556058204728600,5.676728515625,-0.05588950961828232,0.05296406149864197,-0.06241624057292938
1772556058214659600,5.68665966796875,-0.06027746945619583,0.049261391162872314,-0.060414619743824005
1772556058224590800,5.6965908203125,-0.06422533839941025,0.04550020769238472,-0.05933177471160889
1772556058234521600,5.706521484375,-0.061280813068151474,0.040629792958498,-0.05156884342432022
1772556058244452600,5.71645263671875,-0.05866266041994095,0.039636433124542236,-0.03496003895998001
1772556058254383900,5.7263837890625,-0.054759085178375244,0.04150032624602318,-0.01526936050504446
1772556058264314600,5.736314697265625,-0.051220543682575226,0.03748854249715805,0.0031980625353753567
1772556058274246700,5.74624658203125,-0.043334923684597015,0.026921115815639496,0.016074713319540024
1772556058284177700,5.756177734375,-0.03429322689771652,0.004056548699736595,0.02357177808880806
1772556058294108700,5.766108642578125,-0.026766913011670113,-0.01664753071963787,0.028455961495637894
1772556058304039700,5.776039794921875,-0.016014400869607925,-0.03746173158288002,0.01796790026128292
1772556058313970200,5.78597021484375,-0.004689796827733517,-0.0484427735209465,0.007621764205396175
1772556058323901200,5.795901123046875,0.004619548562914133,-0.049471817910671234,-0.00030247122049331665
1772556058333832200,5.805832275390625,0.011483004316687584,-0.051457230001688004,-0.0025971252471208572
1772556058343763200,5.81576318359375,0.020143603906035423,-0.0423675961792469,-0.001676204614341259
1772556058353694200,5.825694091796875,0.030960915610194206,-0.033593058586120605,0.003086601849645376
1772556058363625200,5.835625244140625,0.04068385064601898,-0.02657429873943329,0.007386808283627033
1772556058373556200,5.84555615234375,0.04800674319267273,-0.029075805097818375,0.012676378712058067
1772556058383487200,5.8554873046875,0.05329125374555588,-0.03808900713920593,0.01342019997537136
1772556058393418200,5.865418212890625,0.054418087005615234,-0.043925464153289795,0.015373896807432175
1772556058403349200,5.875349365234375,0.05437387898564339,-0.04689355939626694,0.008968195877969265
1772556058413281300,5.88528125,0.05823967978358269,-0.04942646250128746,-0.007648310624063015
1772556058423212300,5.89521240234375,0.058599475771188736,-0.041092365980148315,-0.02768007665872574
1772556058433143000,5.90514306640625,0.06300407648086548,-0.033518336713314056,-0.0444641150534153
1772556058443074300,5.91507421875,0.06822706758975983,-0.028327304869890213,-0.06404127925634384
1772556058453005300,5.92500537109375,0.0637892633676529,-0.02171638049185276,-0.07569114863872528
1772556058462936000,5.93493603515625,0.0623740553855896,-0.01654665172100067,-0.07228443771600723
1772556058472867300,5.944867431640625,0.0530351959168911,-0.00961457658559084,-0.06028177589178085
1772556058482798000,5.954798095703125,0.04442226514220238,-0.0050475215539336205,-0.041286252439022064
1772556058492729000,5.96472900390625,0.03864138573408127,0.0053221117705106735,-0.02031257003545761
1772556058502660400,5.974660400390625,0.031464703381061554,0.012326758354902267,-0.0017061280086636543
1772556058512591000,5.984591064453125,0.025586523115634918,0.020324306562542915,0.010861923918128014
1772556058522522000,5.994522216796875,0.019780300557613373,0.026576874777674675,0.02269434928894043
1772556058532453400,6.004453369140625,0.01896546594798565,0.025323059409856796,0.023362910374999046
1772556058542384000,6.014384033203125,0.014779508113861084,0.014856036752462387,0.02873610332608223
1772556058552316200,6.024316162109375,0.014204487204551697,0.004962475970387459,0.030371136963367462
1772556058562247200,6.0342470703125,0.014023659750819206,0.0025445912033319473,0.03016873449087143
1772556058572178200,6.04417822265625,0.014279942959547043,-0.0021088523790240288,0.03003096580505371
1772556058582109200,6.054109130859375,0.015493812039494514,-0.0058609796687960625,0.03292315825819969
1772556058592040200,6.064040283203125,0.015769360587000847,-0.0044054025784134865,0.0327092744410038
1772556058601971200,6.07397119140625,0.01482420414686203,-0.0036128461360931396,0.03799751400947571
1772556058611902200,6.083902099609375,0.016057781875133514,-0.0017895428463816643,0.03685760498046875
1772556058621833000,6.0938330078125,0.018826670944690704,0.001209976151585579,0.0318780243396759
1772556058631764200,6.10376416015625,0.021276157349348068,0.0005140900611877441,0.021295851096510887
1772556058641695200,6.1136953125,0.02416861802339554,0.0081283338367939,0.01294710673391819
1772556058651626000,6.1236259765625,0.02263343520462513,0.021895630285143852,0.0017469795420765877
1772556058661557200,6.13355712890625,0.025501661002635956,0.030590320006012917,-0.007999124936759472
1772556058671488300,6.14348828125,0.028130557388067245,0.04665093123912811,-0.009703152813017368
1772556058681420000,6.153419921875,0.030761759728193283,0.06205279380083084,-0.01708170771598816
1772556058691351300,6.163351318359375,0.030842896550893784,0.07720021158456802,-0.015980787575244904
1772556058701282300,6.1732822265625,0.029055118560791016,0.08374626189470291,-0.01675603538751602
1772556058711213000,6.183213134765625,0.02586136758327484,0.09203849732875824,-0.022466585040092468
1772556058721144300,6.193144287109375,0.023648012429475784,0.10014915466308594,-0.027735918760299683
1772556058731075300,6.203075439453125,0.02714753895998001,0.10135889053344727,-0.028422638773918152
1772556058741006000,6.213006103515625,0.039634302258491516,0.08974218368530273,-0.025186099112033844
1772556058750937300,6.222937255859375,0.050540078431367874,0.062197402119636536,-0.022078756242990494
1772556058760868400,6.232868408203125,0.0621623769402504,0.04806267470121384,-0.021386336535215378
1772556058770799000,6.242799072265625,0.07123372703790665,0.04145979508757591,-0.022293277084827423
1772556058780730400,6.25273046875,0.06984968483448029,0.038526855409145355,-0.032548580318689346
1772556058790661000,6.2626611328125,0.065117247402668,0.029887458309531212,-0.03579942509531975
1772556058800592100,6.272592041015625,0.05803776532411575,0.027977438643574715,-0.034812457859516144
1772556058810523400,6.2825234375,0.05099077522754669,0.019680462777614594,-0.028260622173547745
1772556058820454100,6.2924541015625,0.048185136169195175,0.011382319033145905,-0.029890209436416626
1772556058830386200,6.30238623046875,0.04319095239043236,0.007527047768235207,-0.024227384477853775
1772556058840317200,6.312317138671875,0.04147587716579437,0.007089490070939064,-0.017591852694749832
1772556058850248200,6.322248291015625,0.04140423983335495,0.005414260551333427,-0.01146863866597414
1772556058860179200,6.33217919921875,0.04163699597120285,-0.0012492341920733452,-0.004287690855562687
1772556058870110200,6.342110107421875,0.03626988083124161,-0.005917523987591267,0.005413221661001444
1772556058880041200,6.352041259765625,0.03443869203329086,-0.009446478448808193,0.011322509497404099
1772556058889972200,6.36197216796875,0.029561828821897507,-0.014419023878872395,0.016259407624602318
1772556058899903200,6.3719033203125,0.027760997414588928,-0.014264293946325779,0.01338239386677742
1772556058909834200,6.381834228515625,0.024415936321020126,-0.013880720362067223,0.008651566691696644
1772556058919765200,6.39176513671875,0.02232748456299305,-0.01651458628475666,0.005046711768954992
1772556058929696000,6.401696044921875,0.01850038766860962,-0.012508046813309193,-0.004548114724457264
1772556058939627300,6.411627197265625,0.00803922489285469,-0.009403067640960217,-0.008464558981359005
1772556058949558300,6.421558349609375,-0.0013742935843765736,-0.0037294412031769753,-0.009244046173989773
1772556058959490300,6.431490234375,-0.004370083101093769,-0.0007584188133478165,-0.008893572725355625
1772556058969421000,6.441421142578125,-0.004644877277314663,0.01039215363562107,-0.00364832766354084
1772556058979352300,6.451352294921875,-0.006485121790319681,0.02236120030283928,-0.0004781009629368782
1772556058989283000,6.461282958984375,-0.01780879683792591,0.02409401722252369,-0.004951499402523041
1772556058999214000,6.471214111328125,-0.022778788581490517,0.025389110669493675,-0.010798203758895397
1772556059009145300,6.481145263671875,-0.03263816237449646,0.024673249572515488,-0.01369423046708107
1772556059019076000,6.491076171875,-0.037716545164585114,0.019123755395412445,-0.013322187587618828
1772556059029007000,6.501007080078125,-0.036490246653556824,0.01450764574110508,-0.007811510004103184
1772556059038938400,6.5109384765625,-0.032520540058612823,0.006829218938946724,0.002277875319123268
1772556059048869000,6.520869140625,-0.028984881937503815,-0.007946772500872612,0.0072218431159853935
1772556059058800000,6.530800048828125,-0.02046223357319832,-0.023868747055530548,0.013656573370099068
1772556059068731400,6.5407314453125,-0.01037147268652916,-0.03419741988182068,0.0174175426363945
1772556059078662100,6.550662109375,0.0011080834083259106,-0.031936392188072205,0.01380336657166481
1772556059088593200,6.56059326171875,0.010994535870850086,-0.02914140745997429,0.01052528154104948
1772556059098525200,6.570525146484375,0.015267045237123966,-0.031587518751621246,-0.0028685545548796654
1772556059108456200,6.580456298828125,0.009644711390137672,-0.035996511578559875,-0.012734874151647091
1772556059118387200,6.59038720703125,0.0008991570211946964,-0.032501645386219025,-0.018209267407655716
1772556059128318200,6.600318115234375,-0.00207182252779603,-0.029328621923923492,-0.019081667065620422
1772556059138249200,6.610249267578125,-0.005763496272265911,-0.020556967705488205,-0.01230179239064455
1772556059148180200,6.62018017578125,-0.008743749000132084,-0.015386924147605896,-0.0068102041259408
1772556059158111000,6.630111083984375,-0.008057985454797745,-0.010016659274697304,0.0022493377327919006
1772556059168042200,6.640042236328125,-0.009357385337352753,0.00175405852496624,0.005117413587868214
1772556059177973200,6.64997314453125,-0.014128172770142555,0.004410294815897942,0.006320896092802286
1772556059187904000,6.659904052734375,-0.014717577025294304,0.00998496264219284,0.007605336606502533
1772556059197835300,6.669835205078125,-0.012616874650120735,-0.002380094490945339,0.006706253159791231
1772556059207766300,6.679766357421875,-0.0147315114736557,-0.01710311695933342,0.005086413584649563
1772556059217697000,6.689697021484375,-0.01009494811296463,-0.025185544043779373,0.0011145751923322678
1772556059227628300,6.699628173828125,-0.00492419907823205,-0.032868899405002594,-0.005255226045846939
1772556059237560300,6.709560302734375,-0.0002349051646888256,-0.037686556577682495,-0.010839343070983887
1772556059247491000,6.719490966796875,0.01178780384361744,-0.03837570548057556,-0.019355323165655136
1772556059257422300,6.72942236328125,0.011798722669482231,-0.034899212419986725,-0.0357406847178936
1772556059267353300,6.739353271484375,0.008047569543123245,-0.03824808448553085,-0.04777360334992409
1772556059277284000,6.7492841796875,-0.002043679356575012,-0.0371929407119751,-0.054153475910425186
1772556059287215400,6.75921533203125,-0.008136285468935966,-0.02142190933227539,-0.053241029381752014
1772556059297146400,6.769146484375,-0.01029504369944334,-0.009118104353547096,-0.04175109416246414
1772556059307077000,6.7790771484375,-0.014548242092132568,0.000945044681429863,-0.02515283226966858
1772556059317008000,6.7890078125,-0.019571496173739433,0.005256436765193939,-0.011763523332774639
1772556059326938600,6.798938720703125,-0.026033610105514526,0.005864355713129044,0.0011606793850660324
1772556059336869600,6.80886962890625,-0.024276193231344223,0.002188127487897873,0.010692665353417397
1772556059346801000,6.81880078125,-0.0185384564101696,0.00021011941134929657,0.020015105605125427
1772556059356731600,6.828731689453125,-0.007585939485579729,-0.016655413433909416,0.03145071864128113
1772556059366662700,6.83866259765625,0.005995601415634155,-0.0368238240480423,0.034536127001047134
1772556059376594700,6.8485947265625,0.027240172028541565,-0.057084355503320694,0.02476019412279129
1772556059386525700,6.858525634765625,0.04561784863471985,-0.07361246645450592,0.008882749825716019
1772556059396456700,6.868456787109375,0.06267965584993362,-0.07678881287574768,-0.0183001346886158
1772556059406387700,6.8783876953125,0.07168300449848175,-0.06251555681228638,-0.04974238574504852
1772556059416318700,6.888318603515625,0.07377651333808899,-0.053057070821523666,-0.06516607850790024
1772556059426249700,6.898249755859375,0.06407355517148972,-0.0336998850107193,-0.06891154497861862
1772556059436180500,6.908180419921875,0.05929744616150856,-0.01438584178686142,-0.06259133666753769
1772556059446111700,6.91811181640625,0.04918830469250679,-0.011504754424095154,-0.05705663561820984
1772556059456042800,6.928042724609375,0.03861209377646446,-0.012843525037169456,-0.045005567371845245
1772556059465973500,6.937973388671875,0.03074684552848339,-0.006616230122745037,-0.03447365015745163
1772556059475904800,6.94790478515625,0.0243105199187994,-0.0036630509421229362,-0.018679775297641754
1772556059485835800,6.957835693359375,0.021380197256803513,-0.01303686760365963,-0.0009993892163038254
1772556059495766500,6.9677666015625,0.018738340586423874,-0.022107860073447227,0.01593565195798874
1772556059505697800,6.97769775390625,0.02171979658305645,-0.02812359854578972,0.03080664947628975
1772556059515629800,6.9876298828125,0.025258872658014297,-0.0309516079723835,0.03869599848985672
1772556059525560600,6.997560546875,0.023525062948465347,-0.03566338121891022,0.035385921597480774
1772556059535491600,7.00749169921875,0.012936867773532867,-0.04763695225119591,0.02795277163386345
1772556059545422800,7.0174228515625,0.004889546427875757,-0.0617850236594677,0.011986992321908474
1772556059555353600,7.027353515625,-0.003036553505808115,-0.06596032530069351,-0.003461206331849098
1772556059565284600,7.03728466796875,-0.011729108169674873,-0.06246647238731384,-0.014793071895837784
1772556059575215900,7.0472158203125,-0.016955295577645302,-0.05561442673206329,-0.01296481117606163
1772556059585146600,7.057146728515625,-0.023128237575292587,-0.044613540172576904,0.0012900987640023232
1772556059595077600,7.06707763671875,-0.030647939071059227,-0.03219176083803177,0.0133904367685318
1772556059605008600,7.077008544921875,-0.03896734118461609,-0.01891193725168705,0.030869275331497192
1772556059614939600,7.086939697265625,-0.0552738755941391,-0.0020352182909846306,0.046540115028619766
1772556059624870700,7.09687060546875,-0.060992129147052765,0.02362082339823246,0.05620095506310463
1772556059634801700,7.1068017578125,-0.063693106174469,0.05043778568506241,0.04933985322713852
1772556059644732700,7.116732666015625,-0.06184522807598114,0.06128782778978348,0.037143148481845856
1772556059654664700,7.126664794921875,-0.0598774179816246,0.06087929755449295,0.025599677115678787
1772556059664595700,7.136595703125,-0.05839723348617554,0.06109064072370529,0.017328454181551933
1772556059674526700,7.146526611328125,-0.05659374222159386,0.0644339770078659,0.017622733488678932
1772556059684457700,7.156457763671875,-0.05926826596260071,0.06860272586345673,0.02305028587579727
1772556059694388700,7.166388671875,-0.05517498776316643,0.07065815478563309,0.028071142733097076
1772556059704319700,7.17631982421875,-0.0471467524766922,0.06627339869737625,0.030556034296751022
1772556059714250800,7.186250732421875,-0.0378912016749382,0.05681464821100235,0.04457970708608627
1772556059724181800,7.196181640625,-0.014767997898161411,0.049928054213523865,0.05567939952015877
1772556059734112800,7.20611279296875,0.01136027555912733,0.036103591322898865,0.053861524909734726
1772556059744043500,7.21604345703125,0.026241708546876907,0.007208213210105896,0.04442577809095383
1772556059753974800,7.225974853515625,0.04083370044827461,-0.024045847356319427,0.020176097750663757
1772556059763905800,7.23590576171875,0.056930605322122574,-0.04804606735706329,-0.012332799844443798
1772556059773836500,7.24583642578125,0.07477430999279022,-0.0575234591960907,-0.030567727982997894
1772556059783767800,7.255767822265625,0.09379594027996063,-0.059844404458999634,-0.034365665167570114
1772556059793698800,7.26569873046875,0.11326044797897339,-0.050822414457798004,-0.02586059272289276
1772556059803630600,7.275630615234375,0.12176269292831421,-0.045449115335941315,-0.016165059059858322
1772556059813561600,7.2855615234375,0.12811699509620667,-0.0526961088180542,-0.017341643571853638
1772556059823492900,7.295492919921875,0.12933844327926636,-0.062321703881025314,-0.030673798173666
1772556059833423600,7.305423583984375,0.126113623380661,-0.08229541033506393,-0.0566212460398674
1772556059843354600,7.315354736328125,0.12585726380348206,-0.10136513411998749,-0.0783400908112526
1772556059853286000,7.325285888671875,0.12168381363153458,-0.1106550395488739,-0.08554393798112869
1772556059863216600,7.335216552734375,0.10995586961507797,-0.10539497435092926,-0.08176903426647186
1772556059873147600,7.345147705078125,0.09145728498697281,-0.08517971634864807,-0.07493536174297333
1772556059883079000,7.355078857421875,0.07690258324146271,-0.059148699045181274,-0.059358034282922745
1772556059893009700,7.365009765625,0.06467414647340775,-0.03296743333339691,-0.04689417779445648
1772556059902940700,7.374940673828125,0.05411568656563759,-0.011582518927752972,-0.033936139196157455
1772556059912871700,7.38487158203125,0.04413815215229988,-0.0041373856365680695,-0.020216599106788635
1772556059922802700,7.394802734375,0.037651486694812775,-0.013613552786409855,-0.011817767284810543
1772556059932733700,7.404733642578125,0.022857097908854485,-0.02565503492951393,-0.011664102785289288
1772556059942665700,7.414665771484375,-0.0020553525537252426,-0.037944722920656204,-0.01177504938095808
1772556059952596700,7.4245966796875,-0.02766857109963894,-0.04259726405143738,-0.014675230719149113
1772556059962527700,7.43452783203125,-0.052113860845565796,-0.04072019085288048,-0.01851923018693924
1772556059972458500,7.44445849609375,-0.06900309026241302,-0.0416264645755291,-0.018139194697141647
1772556059982389800,7.4543896484375,-0.07579095661640167,-0.03557230159640312,-0.01761508733034134
1772556059992320800,7.46432080078125,-0.061163280159235,-0.029139969497919083,-0.01210873480886221
1772556060002251500,7.47425146484375,-0.04715660586953163,-0.02092563360929489,-0.010501292534172535
1772556060012182800,7.484182861328125,-0.03125939890742302,-0.018417466431856155,-0.013157528825104237
1772556060022113800,7.49411376953125,-0.0222795307636261,-0.022963138297200203,-0.020930910483002663
1772556060032044500,7.50404443359375,-0.025934185832738876,-0.03101707063615322,-0.039181023836135864
1772556060041975800,7.513975830078125,-0.04149823263287544,-0.035771824419498444,-0.07239693403244019
1772556060051906600,7.523906494140625,-0.05921304598450661,-0.05387067049741745,-0.09308144450187683
1772556060061837600,7.533837646484375,-0.07053902745246887,-0.09940187633037567,-0.09446278214454651
1772556060071768800,7.543768798828125,-0.06223129481077194,-0.12628808617591858,-0.06323748826980591
1772556060081700900,7.553700927734375,-0.0300646610558033,-0.089084692299366,0.0012523764744400978
1772556060091631600,7.563631591796875,0.013870305381715298,-0.04419178143143654,0.07752877473831177
1772556060101562600,7.573562744140625,0.042043086141347885,-0.011680765077471733,0.1314166784286499
1772556060111493600,7.58349365234375,0.04113281890749931,-0.008492695167660713,0.13073863089084625
1772556060121424600,7.593424560546875,0.03129137307405472,-0.042798470705747604,0.09310390800237656
1772556060131355600,7.603355712890625,0.03219764679670334,-0.11041586101055145,0.02260683849453926
1772556060141286700,7.61328662109375,0.044919125735759735,-0.150253564119339,-0.04249855503439903
1772556060151217700,7.6232177734375,0.06875628232955933,-0.15653008222579956,-0.09218834340572357
1772556060161148700,7.633148681640625,0.07517542690038681,-0.143559992313385,-0.10802720487117767
1772556060171079700,7.64307958984375,0.07530352473258972,-0.13576118648052216,-0.11551255732774734
1772556060181010700,7.6530107421875,0.060416679829359055,-0.1413935273885727,-0.11304280161857605
1772556060190941700,7.662941650390625,0.057751383632421494,-0.14297278225421906,-0.1022719144821167
1772556060200872700,7.672872802734375,0.06734329462051392,-0.14906862378120422,-0.09177818149328232
1772556060210803700,7.6828037109375,0.08475877344608307,-0.1758490800857544,-0.09154995530843735
1772556060220734700,7.692734619140625,0.08653851598501205,-0.19742923974990845,-0.08455310761928558
1772556060230666800,7.702666748046875,0.06352987140417099,-0.21979846060276031,-0.0632624626159668
1772556060240597800,7.71259765625,0.03229241073131561,-0.23197971284389496,-0.023045122623443604
1772556060250528800,7.72252880859375,0.0012868242338299751,-0.23341596126556396,0.027060389518737793
1772556060260459800,7.732459716796875,-0.023366589099168777,-0.2320796400308609,0.08735985308885574
1772556060270390800,7.742390869140625,-0.03735830634832382,-0.2216206043958664,0.15446537733078003
1772556060280321500,7.752321533203125,-0.034459054470062256,-0.2072857916355133,0.22726422548294067
1772556060290252800,7.762252685546875,-0.0050636171363294125,-0.18266086280345917,0.2941415309906006
1772556060300183800,7.772183837890625,0.019702274352312088,-0.15499013662338257,0.3578188121318817
1772556060310114600,7.782114501953125,0.029315486550331116,-0.1490294635295868,0.3988431990146637
1772556060320046300,7.79204638671875,0.03452746942639351,-0.1276770383119583,0.47275540232658386
1772556060329977600,7.8019775390625,0.038535259664058685,-0.01539070624858141,0.46297013759613037
1772556060339908600,7.81190869140625,-0.001662092749029398,0.08774417638778687,0.39687538146972656
1772556060349839400,7.82183935546875,-0.04276878386735916,0.1358107626438141,0.3227556049823761
1772556060359770600,7.8317705078125,-0.061859119683504105,0.15097954869270325,0.23826006054878235
1772556060369701400,7.841701416015625,-0.05621135234832764,0.11091442406177521,0.14401505887508392
1772556060379633400,7.85163330078125,-0.04321327060461044,0.01379207894206047,0.04428163915872574
1772556060389564400,7.861564453125,-0.01003560982644558,-0.08479787409305573,-0.01401442103087902
1772556060399495700,7.87149560546875,0.020083412528038025,-0.15212024748325348,-0.04237984120845795
