time,seconds_elapsed,z,y,x
1772555507216678100,0.07167822265625,0.05927578031122684,0.0980607804533094,-0.3574030599046498
1772555507226610200,0.081610107421875,0.23739596671164034,0.08006364373080432,-0.47457434514984487
1772555507236542200,0.091542236328125,0.4630535648345947,0.0226674666211009,-0.551230810785666
1772555507246474200,0.10147412109375,0.7436907073795795,-0.02290522089973092,-0.47940403032861645
1772555507256405000,0.111405029296875,0.9907511590152979,-0.0520513820156455,-0.37139351826906203
1772555507266337300,0.121337158203125,1.162736203661561,-0.1081647527731955,-0.26504582485519346
1772555507276269300,0.131269287109375,1.2485071921885014,-0.16701719310581684,-0.15891075127869844
1772555507286201300,0.141201416015625,1.27693249168396,-0.1925405606146902,-0.06083017014637589
1772555507296133400,0.15113330078125,1.3014391564309595,-0.2137513256214559,-0.005723382615484297
1772555507306064100,0.161064208984375,1.3207862464576958,-0.23546178377866744,0.02709503727238625
1772555507315996200,0.17099609375,1.2911679377853869,-0.1714111172158271,-0.06342818728294224
1772555507325928200,0.18092822265625,1.213566811710596,-0.16428879105523228,-0.08782656934987754
1772555507335860200,0.190860107421875,1.083971294504404,-0.2202754666931927,-0.0146494337297976
1772555507345792000,0.2007919921875,0.9630290393531322,-0.28098785567879675,0.07890040863770992
1772555507355724000,0.21072412109375,0.8659872997492551,-0.31781324618570506,0.15813589444868265
1772555507365655300,0.2206552734375,0.7799842560321092,-0.31017405654415486,0.22695757480561732
1772555507375587300,0.23058740234375,0.675191756170988,-0.2733704394776374,0.25183871715450656
1772555507385519400,0.240519287109375,0.5244458989083767,-0.3006359014134854,0.15927859821040183
1772555507395451100,0.250451171875,0.3321417043328285,-0.27080694566518065,0.1490221935414709
1772555507405383200,0.260383056640625,0.10525544119775294,-0.20363690497279166,0.25811445468943567
1772555507415314200,0.270314208984375,-0.11664601926207542,-0.17206417429707943,0.3121277844278142
1772555507425246200,0.28024609375,-0.29935236440896984,-0.15068616296462714,0.2737153439251706
1772555507435178200,0.29017822265625,-0.38754035094976425,-0.11714943873956798,0.20346216946039347
1772555507445110000,0.300110107421875,-0.3819546597719192,-0.07639456329662353,0.19089103984199463
1772555507455042000,0.3100419921875,-0.3185048086464405,-0.0567519974546507,0.20494247114602476
1772555507464974000,0.31997412109375,-0.23836685757040976,-0.051637723180837924,0.15995795877669006
1772555507474905300,0.3299052734375,-0.1481266146749258,0.014837832441367209,0.13739605315560474
1772555507484837000,0.339837158203125,-0.07094868244826794,0.09430500811636447,0.1501889540322125
1772555507494769200,0.34976904296875,0.017725626304745674,0.11481178957223892,0.17870845288345588
1772555507504701200,0.359701171875,0.11614449948072433,0.12363485523611306,0.12315960240717977
1772555507514633200,0.36963330078125,0.1971738464385271,0.15309351636730134,0.1465506523287855
1772555507524564000,0.37956396484375,0.30818390564024445,0.1784077711701393,0.20927312076147644
1772555507534496000,0.38949609375,0.3990256215602159,0.17863690375089644,0.2600041226272471
1772555507544428000,0.399427978515625,0.4422790723532438,0.19641718285232782,0.28481344184894114
1772555507554360000,0.409360107421875,0.44275662673711774,0.24750410374999046,0.2884230471808463
1772555507564292000,0.4192919921875,0.3133499101012945,0.27228191358856857,0.2220726157756522
1772555507574224000,0.429223876953125,0.01922375590801239,0.22967793968021868,0.035935565527714784
1772555507584155100,0.439155029296875,-0.3313660437852144,0.12998159391433,-0.09509950122861191
1772555507594087200,0.449087158203125,-0.7232949850827455,0.0203964529491961,-0.1640452646229416
1772555507604019200,0.459019287109375,-1.193340600761771,-0.1164622601930052,-0.13543827015133575
1772555507613951000,0.468950927734375,-1.6121464430689811,-0.2494892862178385,-0.12815017723608763
1772555507623883000,0.478883056640625,-1.9517729501992462,-0.35946218439154326,-0.1406715128960088
1772555507633815000,0.48881494140625,-2.274618418398499,-0.4949447868749499,-0.15446801959089934
1772555507643746000,0.49874609375,-2.499484573882818,-0.6544977815799414,-0.1294774803170934
1772555507653678000,0.508677978515625,-2.595862296620011,-0.7935755590111017,-0.02538764883261174
1772555507663609900,0.51860986328125,-2.540277772042155,-0.8848848924428224,0.0756497728113085
1772555507673542100,0.528542236328125,-2.3698452175348996,-0.8963499970480799,0.12737990524964407
1772555507683474200,0.53847412109375,-2.085052708876133,-0.8443975453622639,0.2444842079395428
1772555507693405200,0.5484052734375,-1.7587386877834796,-0.7959843006532639,0.41155945137552913
1772555507703337200,0.558337158203125,-1.389835817286372,-0.7699915620669722,0.5340401316078379
1772555507713269000,0.56826904296875,-1.0180202742129563,-0.797243799195066,0.5230643083568662
1772555507723201000,0.578200927734375,-0.6773463038563728,-0.7881265728902072,0.4050540880694985
1772555507733133000,0.588133056640625,-0.3659522039979696,-0.7188224427785724,0.23424813367258757
1772555507743065000,0.598065185546875,-0.12351239790022372,-0.6177420222431421,0.08099628493841737
1772555507752995800,0.607995849609375,0.06483809061348438,-0.5318561020996422,-0.019984938122413587
1772555507762928000,0.61792822265625,0.20012451293766498,-0.4583171839624643,-0.11230332301580347
1772555507772860200,0.627860107421875,0.24526363134682178,-0.3721582920964807,-0.16027895262567327
1772555507782792200,0.637792236328125,0.2396983984351158,-0.27062033705189825,-0.21822397752348333
1772555507792724200,0.64772412109375,0.18423077823519707,-0.14672544264011084,-0.27749577577933665
1772555507802655000,0.657655029296875,0.12721359050571918,-0.06444485351219773,-0.32534904851801694
1772555507812587000,0.6675869140625,0.101109427434206,0.025539368795603513,-0.3832561342919245
1772555507822519000,0.67751904296875,0.10417349117994308,0.12686521545946597,-0.3983860815476626
1772555507832451000,0.687451171875,0.1614718339383602,0.21815730549544093,-0.41146139782853425
1772555507842383000,0.697383056640625,0.21970716528594492,0.3037285336665809,-0.4118441866010427
1772555507852315100,0.707315185546875,0.23625088832974434,0.36124519535079597,-0.41497346107009797
1772555507862246100,0.71724609375,0.24598902301192282,0.4170036151908338,-0.42883108683507887
1772555507872178200,0.72717822265625,0.26073651028871536,0.47449938021749255,-0.4324452952768653
1772555507882110200,0.737110107421875,0.26456980484127995,0.5178890246108174,-0.4362808183191344
1772555507892042200,0.747042236328125,0.2834685665786266,0.5224237454310059,-0.42448841798827047
1772555507901974300,0.756974365234375,0.33235213221311566,0.5175425492607056,-0.42090270498860627
1772555507911905000,0.766905029296875,0.37963761500120163,0.4955214177191257,-0.3950926660254597
1772555507921837000,0.776837158203125,0.4530108942478895,0.47446226307749745,-0.3387044603819027
1772555507931769000,0.78676904296875,0.5456581982851028,0.4635064231686294,-0.28446842780355364
1772555507941701000,0.796701171875,0.598019669163227,0.4524313407942652,-0.2777132544549182
1772555507951633000,0.8066328125,0.6298223361372948,0.4335772949814796,-0.2686447626626119
1772555507961565000,0.81656494140625,0.6515028375476598,0.43298751239478583,-0.2461103113040328
1772555507971496200,0.82649609375,0.6339040524929761,0.3998994817852974,-0.2300878356553614
1772555507981428200,0.83642822265625,0.5889186633408069,0.31491905911415813,-0.21444681533863766
1772555507991360300,0.8463603515625,0.5467722970068455,0.23131080157905815,-0.17880864358860998
1772555508001292000,0.8562919921875,0.46329906402826304,0.1672214835062623,-0.16156480945143847
1772555508011224000,0.86622412109375,0.39363574521541594,0.13465280059576035,-0.11994196466808206
1772555508021156000,0.876156005859375,0.2954354832261801,0.08626242530569433,-0.0614276611154899
1772555508031087000,0.886087158203125,0.155166596314311,0.010873276191949844,0.011525036365259438
1772555508041019100,0.89601904296875,0.012543839752674101,-0.041076983536779875,0.07582369547295384
1772555508050951000,0.905950927734375,-0.11376491086781024,-0.04458031548261642,0.11685806371071375
1772555508060883000,0.915883056640625,-0.13947218357622623,-0.03281330532133579,0.12765788194080813
1772555508070815000,0.92581494140625,-0.10084288545250893,-0.04204465952515602,0.13419289146643132
1772555508080746200,0.935746337890625,-0.06015256314575672,-0.06942395709902048,0.15073220319659447
1772555508090678000,0.945677978515625,-0.02682663212716579,-0.08503960551247,0.14954270115108229
1772555508100610000,0.955610107421875,-0.005106383228302001,-0.08329159280136227,0.1501316982864868
1772555508110542000,0.9655419921875,0.023471476480364798,-0.0745621967703104,0.1646478884248994
1772555508120474000,0.97547412109375,-0.025241993284225463,-0.09332330360263585,0.15289860571655445
1772555508130405000,0.985405029296875,-0.06231120248436928,-0.09502630812823772,0.17364585399795324
1772555508140337000,0.9953369140625,-0.055576341271400445,-0.09489274487644433,0.1881334664958529
1772555508150269000,1.00526904296875,-0.07283961076140404,-0.060323681928962467,0.2122719189849682
1772555508160201000,1.015200927734375,-0.08420505438446999,-0.04626140043735504,0.22750673312097786
1772555508170133000,1.025133056640625,0.0018991116195917128,-0.010702888061106204,0.22620847347136586
1772555508180065300,1.035065185546875,-0.015483984857797622,0.03849836522042751,0.27383257709667086
1772555508189996000,1.04499609375,-0.08921966767609119,0.06712853963822125,0.32194282027110455
1772555508199928000,1.054927978515625,-0.03799275378584861,0.09875774974152446,0.28354641758780924
1772555508209860000,1.064860107421875,0.09490122044384479,0.10721943474709987,0.256701592216827
1772555508219792100,1.074792236328125,0.25782033058106896,0.09224047680199146,0.26535052515650165
1772555508229724200,1.08472412109375,0.37786300654411314,0.044046354736387724,0.22221416140450162
1772555508239656000,1.094656005859375,0.47606677566468714,-0.03898220321461558,0.1880258962018415
1772555508249587000,1.1045869140625,0.5284492893308401,-0.016344401079416274,0.2303105750279501
1772555508259519000,1.11451904296875,0.5981728138983249,0.060390755815804,0.24181429461054502
1772555508269451300,1.124451171875,0.49856619224250315,0.43810602445229885,0.41036607687249776
1772555508279383300,1.13438330078125,-0.2216647290945053,0.5309973663784563,0.38030528512969614
1772555508289315000,1.144315185546875,-0.5369266102969646,-0.45484278585016724,0.6924635012283921
1772555508299246000,1.15424609375,-0.3888011646658182,-0.9326965910620987,0.27627310211658473
1772555508309178000,1.16417822265625,-0.2985276040226221,-0.8233284538485109,-0.3558514465484768
1772555508319110100,1.174110107421875,-0.15108897161185741,-0.6770758163519204,0.3203028345117345
1772555508329042200,1.184042236328125,-0.2728700156748295,-0.4506387582890689,0.23261965568792073
1772555508338974000,1.193973876953125,-0.21747078453600405,0.3010013006597757,0.13111140166185795
1772555508348906000,1.203906005859375,0.31257366503179074,0.6052179101042449,-0.30338151032719757
1772555508358837200,1.213837158203125,0.1854535980284214,0.22990926421806215,-0.7284788905266671
1772555508368769300,1.223769287109375,0.048154666838049885,-0.0307367913082242,-0.4573870635055005
1772555508378701000,1.233701171875,-0.17408640083968638,-0.21339739761725066,-0.16435186462039128
1772555508388633000,1.243633056640625,-0.22320903592705726,-0.19161460487619042,0.06233920473614707
1772555508398565000,1.253565185546875,-0.18564941286146638,-0.06827902484759688,-0.04801016206713393
1772555508408496000,1.26349609375,-0.11811316920518874,0.036978900568187235,-0.30190204889178274
1772555508418428200,1.27342822265625,0.01400748256444931,0.0627029782809317,-0.5069795445943251
1772555508428360000,1.28335986328125,0.14640519770979882,0.10316679835543036,-0.6323230669118464
1772555508438292000,1.2932919921875,0.3088309713721275,0.19289353877082466,-0.728523533385992
1772555508448224000,1.30322412109375,0.45125206788182254,0.26214900743514297,-0.8342049449108541
1772555508458156000,1.313156005859375,0.4929255560070276,0.24091259653046726,-1.0063803975626826
1772555508468087300,1.32308740234375,0.42135611131191253,0.16725713934153316,-1.159174200331047
1772555508478018800,1.333018798828125,0.1762111379086971,0.1431431271739304,-1.2029261752307414
1772555508487950800,1.342950927734375,-0.0684317311912775,0.23787439787834883,-1.1418418841928244
1772555508497882600,1.352882568359375,-0.2285188327729702,0.3490243039421737,-1.1049917245708405
1772555508507814700,1.362814697265625,-0.32803543805778024,0.3996275329761207,-1.0695216211304068
1772555508517745700,1.37274560546875,-0.40835108378827567,0.4523144364163279,-0.9978661055870354
1772555508527677700,1.382677734375,-0.4055237514078617,0.502009318433702,-0.8956227787520736
1772555508537609700,1.392609619140625,-0.37373745104670525,0.4895158936940133,-0.8148006448041647
1772555508547541500,1.40254150390625,-0.34226036276519295,0.43229149295464153,-0.6969500720579177
1772555508557473500,1.4124736328125,-0.26411329324543475,0.37088001578897234,-0.5594798394212499
1772555508567405800,1.42240576171875,-0.19488427419662474,0.2978621258512139,-0.41307774698399
1772555508577336800,1.4323369140625,-0.15388883146345614,0.18069515145495532,-0.2790753548546694
1772555508587268600,1.4422685546875,-0.12104805361330509,0.05733911316022276,-0.12948236655476503
1772555508597200600,1.45220068359375,-0.10615677395164966,-0.025877660839259624,0.01445901659107767
1772555508607132700,1.462132568359375,-0.10213058717548847,-0.061278644566237925,0.10220292175933718
1772555508617064700,1.472064697265625,-0.09356909505724906,-0.06451908779218793,0.07524138380666263
1772555508626995700,1.48199560546875,-0.10482990926206111,-0.06207111011818051,0.0024480416060891
1772555508636927500,1.491927490234375,-0.14311024781763554,-0.030909517526626584,-0.06078212062041275
1772555508646859500,1.501859619140625,-0.20124679496586323,-0.0024104221425950527,-0.05746595441028476
1772555508656791800,1.511791748046875,-0.22529870168268679,0.0285778597086668,-0.02196744685927406
1772555508666723800,1.521723876953125,-0.2143932767868042,0.02254296345859766,0.01185213116146624
1772555508676655900,1.53165576171875,-0.20340543430447577,-0.011108838513493537,0.05462925141332671
1772555508686586600,1.541586669921875,-0.1848690761387348,-0.05610270323306322,0.13973017692528664
1772555508696518700,1.5515185546875,-0.18526947363317012,-0.09471782670095562,0.22852551824208348
1772555508706450700,1.56145068359375,-0.15683423726558685,-0.09416253090575337,0.28849333593808113
1772555508716382700,1.5713828125,-0.10070610733032226,-0.07693433272913097,0.33467688536625356
1772555508726314800,1.581314697265625,-0.02443126142323017,-0.06098594522997736,0.3917176731670275
1772555508736245800,1.591245849609375,0.05205108975470066,-0.06300649127215147,0.4317375488663092
1772555508746177800,1.601177734375,0.11930910099148749,-0.08650222541093826,0.4646816774930805
1772555508756109800,1.61110986328125,0.19070202007591724,-0.12322232891246676,0.46881965408064424
1772555508766041900,1.621041748046875,0.2414759295016527,-0.14620792157202958,0.4815760040728375
1772555508775974000,1.630973876953125,0.2616092014700174,-0.18217837575003504,0.49671135815605516
1772555508785904600,1.640904541015625,0.20964929713010788,-0.21845789587721226,0.5128524552157149
1772555508795836700,1.650836669921875,0.11951485269665717,-0.20346271744966507,0.5093206643603742
1772555508805768700,1.660768798828125,0.09145371033847331,-0.13568769660145044,0.45460631021317094
1772555508815700700,1.67070068359375,0.06192132638394832,-0.05967486263141036,0.39352906997054815
1772555508825632800,1.6806328125,-0.019828736063838004,0.021190672066807744,0.32483233116753396
1772555508835564500,1.690564453125,-0.10043138204216956,0.08565101540908217,0.23521003750730304
1772555508845495800,1.700495849609375,-0.1645171929836273,0.14209829429611562,0.1802255794481374
1772555508855427800,1.710427734375,-0.20432430271506308,0.1462066063977778,0.15604326955098657
1772555508865360000,1.72035986328125,-0.20272972699999808,0.11427812108695506,0.14778256874391807
1772555508875292000,1.7302919921875,-0.1468365748643875,0.0836705091163516,0.14657227050554938
1772555508885223700,1.7402236328125,-0.06374795728921889,0.05465878803506493,0.12148722134870477
1772555508895154700,1.75015478515625,0.027436872979998587,0.041970717506110665,0.0757909120147815
1772555508905086700,1.760086669921875,0.12481938884556293,0.03856090906262397,0.013254004165891092
1772555508915018800,1.770018798828125,0.22387246827185153,0.02705985636115074,-0.0413776241509011
1772555508924950500,1.779950439453125,0.26957974195778367,0.03614405717924237,-0.08256041071629151
1772555508934882600,1.789882568359375,0.215376442605257,0.039652795952558516,-0.11117948835133575
1772555508944814600,1.799814697265625,0.15170973385870457,0.0529411704622209,-0.14606378212729468
1772555508954745900,1.809745849609375,0.08146072411239147,0.06236424784585833,-0.1466173974220641
1772555508964678000,1.819677978515625,-0.019816461104154585,0.029031887086480853,-0.11521982238385825
1772555508974609700,1.829609619140625,-0.1389239020437002,0.016722002220153808,-0.11831748700509778
1772555508984541700,1.839541748046875,-0.2380740121036768,0.03539776885658502,-0.0893725110170897
1772555508994473700,1.8494736328125,-0.2822702967047691,0.06313391704410314,-0.06663224402125924
1772555509004404700,1.85940478515625,-0.29407354722321033,0.08037906635552644,-0.05038957715011202
1772555509014336800,1.869336669921875,-0.30992811895906924,0.08549377902075647,-0.042623938984144474
1772555509024268500,1.8792685546875,-0.3016226474285126,0.1054340126350522,-0.04315173485106788
1772555509034200600,1.88920068359375,-0.2606768890559673,0.10206088294014334,-0.009680358346644788
1772555509044132600,1.899132568359375,-0.22424130158424377,0.059443245832622046,0.03730848871557973
1772555509054064600,1.909064697265625,-0.1715098283499479,0.02275266068652272,0.08533307203371077
1772555509063995600,1.91899560546875,-0.15549275952875613,-0.00906023542061448,0.1193886416342575
1772555509073927700,1.928927734375,-0.10354688371419905,-0.021703590025007723,0.1480534215745516
1772555509083859700,1.938859619140625,-0.011285364124178885,-0.021338702235370873,0.15357653237758204
1772555509093791700,1.948791748046875,0.09923135860264301,-0.027840631475299596,0.11102047099787742
1772555509103723800,1.958723876953125,0.20072189430892468,-0.04273264178931713,0.053538022110518065
1772555509113654500,1.968654541015625,0.2713689634621143,-0.02846007854789495,0.008103692747605964
1772555509123586600,1.978586669921875,0.33197102394104,0.0013211656011641025,-0.019415990544483064
1772555509133518600,1.9885185546875,0.37996202464997764,0.0198584005497396,-0.05364842824900988
1772555509143450600,1.99845068359375,0.3922048356294632,0.008644055835157632,-0.11472281438084318
1772555509153382700,2.008382568359375,0.3522890048265457,-0.0044235155306756495,-0.17312964810412376
1772555509163315000,2.01831494140625,0.2621288414299488,-0.0009865268193185329,-0.21040915732039137
1772555509173245700,2.02824560546875,0.176647775760293,0.025255437287688254,-0.2043851660568267
1772555509183177700,2.038177734375,0.0639221448123455,0.05994491174444556,-0.20910035801045596
1772555509193109800,2.04810986328125,-0.015680968734622002,0.09527078440859914,-0.22663585030427202
1772555509203041800,2.058041748046875,-0.09322364262044429,0.10142039307951926,-0.23150796811897306
1772555509212973600,2.0679736328125,-0.16189327422082422,0.0732484838232398,-0.1922502176322974
1772555509222904600,2.077904541015625,-0.19336510180532931,0.06285641527697444,-0.16534832831183446
1772555509232836600,2.087836669921875,-0.21766601484715936,0.06361541695073246,-0.1056568250728771
1772555509242768600,2.0977685546875,-0.17946867839992045,0.05690569017902016,-0.06696979627939872
1772555509252701000,2.107700927734375,-0.0937421135365963,0.02650587574020028,-0.07219576446649152
1772555509262632700,2.1176328125,-0.007350947284698486,-0.0032042028687894342,-0.062064529680344274
1772555509272564700,2.127564697265625,0.013640987339615822,-0.07497881474718451,-0.051241015480831265
1772555509282495700,2.137495849609375,0.0007394201904535293,-0.0995790029965341,-0.026868057832808698
1772555509292427800,2.147427734375,0.0019908815562725067,-0.10432897400259972,0.00977394235614338
1772555509302359800,2.15735986328125,-0.0031108254969120022,-0.12047682959660887,0.029080685531115157
1772555509312291600,2.16729150390625,-0.02410918986201286,-0.12686769967749714,0.027949850303702985
1772555509322223600,2.1772236328125,-0.07120704112350941,-0.11627937790676951,0.0438122719858773
1772555509332154600,2.187154541015625,-0.14479250181615352,-0.08309782379493116,0.051917782231234014
1772555509342087000,2.1970869140625,-0.21548282558917997,-0.05008884977102279,0.0704542499948293
1772555509352018700,2.207018798828125,-0.23463877695798874,-0.019057167169451713,0.07370806415900588
1772555509361950700,2.21695068359375,-0.21088030022978782,0.009722352591156959,0.07259277812717482
1772555509371882800,2.2268828125,-0.1578109733432531,0.01576791636571288,0.08705434286836534
1772555509381813800,2.236813720703125,-0.12701017688810826,-0.008903291293233632,0.10502451851870864
1772555509391745800,2.246745849609375,-0.10374328306913375,-0.02689209857881069,0.14305986933726816
1772555509401677600,2.256677490234375,-0.050446577167510984,-0.03418225558698177,0.16903549239197746
1772555509411609600,2.266609619140625,0.0014519523739814758,-0.06907762787938118,0.17582235778681932
1772555509421541600,2.276541748046875,0.05288461796939373,-0.08156827614009379,0.150708301731199
1772555509431473700,2.2864736328125,0.09394260454475879,-0.08489157534390687,0.12028460409329272
1772555509441405000,2.296405029296875,0.13572890539467333,-0.06534457883089781,0.09662668339642695
1772555509451336700,2.306336669921875,0.1816360855668783,-0.04716200253888964,0.043356664572330186
1772555509461268700,2.316268798828125,0.2186971114605665,-0.02249956270828843,0.018971415981603786
1772555509471200800,2.32620068359375,0.23018355111479757,-0.0022233751378953454,-0.017341330561740323
1772555509481132500,2.336132568359375,0.21126550015509127,0.01617474360093474,-0.012333297707955352
1772555509491063300,2.346063232421875,0.13211772916018963,0.02715834829956293,-0.0012547858340665697
1772555509500995300,2.355995361328125,0.034578561428189276,0.021129443398863076,0.02049484898948576
1772555509510927400,2.36592724609375,-0.0482411760777235,0.021748159819096325,0.06653195741798262
1772555509520859400,2.375859375,-0.09926467635035514,0.013858721743524073,0.11111520920977927
1772555509530791400,2.38579150390625,-0.14249357722401618,0.016968524327129125,0.13341798897064291
1772555509540723200,2.39572314453125,-0.17512801884710788,0.04883154318630695,0.14609599476330912
1772555509550654500,2.405654541015625,-0.20147651206851006,0.06320186771377921,0.1399459751004353
1772555509560586500,2.41558642578125,-0.21905191624760625,0.06626710050329565,0.13990118611063806
1772555509570518500,2.4255185546875,-0.2075917800784111,0.055755058839172124,0.12887043606834486
1772555509580450600,2.435450439453125,-0.2141407633304596,0.04344020553678274,0.10884683501953259
1772555509590382300,2.44538232421875,-0.19479308878183363,0.04565846610814333,0.12046868282277136
1772555509600313300,2.455313232421875,-0.2094388692498207,0.03751271518394351,0.1262191178419627
1772555509610245400,2.465245361328125,-0.21978139956593512,0.04306128922179341,0.14861363100688904
1772555509620177400,2.475177490234375,-0.19196984805464742,0.05293810172230005,0.1595552597273141
1772555509630109200,2.485109130859375,-0.14159808968901633,0.05310775920078158,0.16364008135553448
1772555509640041500,2.49504150390625,-0.06372457641363144,0.04515241628214717,0.14299106928422115
1772555509649972500,2.504972412109375,0.01424713653922081,0.034115035569667815,0.13983518080287613
1772555509659904500,2.514904541015625,0.09193243376612663,0.009814122527837752,0.15628559040687978
1772555509669836500,2.52483642578125,0.148915134704113,-0.030520518209040164,0.18039616850838064
1772555509679768300,2.534768310546875,0.1690098282277584,-0.0710153179436922,0.2073710865324363
1772555509689700400,2.544700439453125,0.16276888801157474,-0.1082592991888523,0.24503822509311138
1772555509699632400,2.55463232421875,0.13697802867293357,-0.1187576045885682,0.26285269872508943
1772555509709563400,2.5645634765625,0.13275193541049957,-0.10917845986038446,0.2588475547369569
1772555509719495400,2.574495361328125,0.1276531509667635,-0.10953750243112444,0.22886578304711727
1772555509729427500,2.584427490234375,0.14923603722155093,-0.1087621341444552,0.19358873622706158
1772555509739359500,2.594359375,0.16075579462349415,-0.09031915335059165,0.15368585623726247
1772555509749291500,2.60429150390625,0.12597206601202487,-0.0807264184884727,0.1068510398261249
1772555509759222500,2.614222412109375,0.061434419649839395,-0.07263181322962045,0.06584726765602826
1772555509769154300,2.624154296875,0.013777180939912795,-0.05721271030157804,0.033588372213905676
1772555509779086300,2.63408642578125,-0.05564648389816284,-0.029051468569785355,0.014910842878650873
1772555509789018400,2.644018310546875,-0.08486322603225707,0.012339110960811375,0.008757014690339565
1772555509798950400,2.653950439453125,-0.08718436245620251,0.02531023621484637,-0.0024149521872401237
1772555509808882400,2.66388232421875,-0.1242582478314638,0.031110446926206348,-0.020673059667181224
1772555509818813400,2.6738134765625,-0.170064305716753,0.025794220339506863,-0.043202259461907665
1772555509828745500,2.683745361328125,-0.21893033569455145,0.04231836190000176,-0.053399042898090554
1772555509838677500,2.693677490234375,-0.2514712538152933,0.06974179087653756,-0.06639850833062082
1772555509848609500,2.703609619140625,-0.26200083113610745,0.0907785875558853,-0.07529381724679843
1772555509858541600,2.71354150390625,-0.2765723773241043,0.10091989621147512,-0.07850897990101947
1772555509868472300,2.723472412109375,-0.30208441972136496,0.09705810621678829,-0.06076636592885479
1772555509878404400,2.733404296875,-0.23995909519791603,0.11420534811168909,-0.03809964822642505
1772555509888336400,2.74333642578125,-0.11954174070358276,0.10932152159288525,-0.03329290553182363
1772555509898268400,2.753268310546875,-0.007641454663872719,0.08081102803200482,-0.07810894773276522
1772555509908200400,2.763200439453125,0.04241232379376888,0.05656769039630889,-0.12206043639308772
1772555509918131500,2.77313134765625,0.04510755422711372,0.035765433125197886,-0.13714122901116496
1772555509928063500,2.7830634765625,0.06053425593972206,0.031287849319726224,-0.11636818870138377
1772555509937995500,2.79299560546875,0.04840776481628418,0.010886135673522949,-0.1059191110045649
1772555509947927600,2.802927490234375,0.06434592318236827,-0.016522972516715525,-0.11026366128120571
1772555509957859600,2.812859619140625,0.05234802687466144,-0.053560033012926576,-0.11763808077303692
1772555509967791400,2.822791259765625,0.04146773642003536,-0.06102554658800363,-0.10637456315448507
1772555509977722400,2.832722412109375,0.0865174229800701,-0.04169759965315461,-0.09612301732376217
1772555509987654400,2.842654296875,0.12162497671842575,-0.051543286363035436,-0.11228674634033814
1772555509997586400,2.85258642578125,0.15331775357723235,-0.07730243538916111,-0.12134594058133662
1772555510007518500,2.8625185546875,0.12879530673921108,-0.0865429958127439,-0.10204625162659213
1772555510017450200,2.8724501953125,0.10216624301075934,-0.08876417899355292,-0.043599031093996016
1772555510027381500,2.882381591796875,0.08161912954449653,-0.09682517424374819,-0.00740700658718124
1772555510037313500,2.8923134765625,0.08468845398724079,-0.11190846934616565,0.00758097491459921
1772555510047245600,2.90224560546875,0.08473053956329822,-0.10369915166646242,-0.00039347456330433487
1772555510057177300,2.91217724609375,0.08950316079258919,-0.07897869803830981,-0.012176540810242295
1772555510067109400,2.922109375,0.06722995418608188,-0.035035657545924186,-0.047759274312295014
1772555510077041400,2.93204150390625,0.04071954840123653,-0.0005808686278760433,-0.07526739503075368
1772555510086972400,2.941972412109375,0.004961421799659729,0.043297582195699215,-0.1016839028539136
1772555510096904400,2.951904541015625,-0.05402677374184131,0.0838062643252313,-0.12926117981844581
1772555510106836200,2.961836181640625,-0.11578268043100833,0.09626008770689368,-0.12997141958018765
1772555510116768300,2.971768310546875,-0.15709727211594582,0.12746858818009496,-0.11965971366059966
1772555510126700300,2.9817001953125,-0.18030454470217228,0.15867138956487178,-0.1243692521915771
1772555510136631600,2.991631591796875,-0.22471827144622802,0.15028276979550717,-0.11615652784523553
1772555510146563600,3.0015634765625,-0.24588790072500705,0.14082520562037826,-0.10176799180763774
1772555510156495400,3.011495361328125,-0.23310440699756144,0.156363989405334,-0.08582526686429046
1772555510166427400,3.021427490234375,-0.16371464442908762,0.18060878834575414,-0.08535384996025823
1772555510176359400,3.031359375,-0.10095277556776999,0.15361600587144494,-0.09762696474646218
1772555510186290400,3.04129052734375,-0.031631402060389516,0.13089067158326506,-0.09713568323133513
1772555510196222200,3.05122216796875,0.023523498928546903,0.10272139267548919,-0.07969901166949421
1772555510206154200,3.061154296875,0.06866203281581401,0.0740815736465156,-0.08270113436123355
1772555510216086300,3.071086181640625,0.050427287945151326,0.029791911673545834,-0.09676534294844605
1772555510226018300,3.081018310546875,0.022604045996069907,0.002363075869530439,-0.07523183052702806
1772555510235950600,3.09095068359375,-0.015817162334918974,0.002672872471064329,-0.02838550634118728
1772555510245881300,3.10088134765625,-0.027005495825409887,-0.0203735104650259,0.015798759028548374
1772555510255813400,3.1108134765625,-0.040324411603808404,-0.058488575456291436,0.047667020318424326
1772555510265745400,3.120745361328125,-0.046294133663177486,-0.10675327854007483,0.07281268622186035
1772555510275677400,3.130677490234375,-0.03170271373093128,-0.11991276597306132,0.11893021207596174
1772555510285609500,3.140609375,0.018495441633462905,-0.13342150523513555,0.11941616896199993
1772555510295540200,3.150540283203125,0.06191138951182365,-0.14640212896987795,0.12073259445596486
1772555510305472300,3.16047216796875,0.09454524661302566,-0.15123568660616873,0.10048069194345735
1772555510315404300,3.170404296875,0.07784078004956245,-0.13911927848532796,0.08666445763478986
1772555510325336600,3.180336669921875,0.04917582657933235,-0.11102437998801469,0.0655290228865575
1772555510335268600,3.1902685546875,0.02970890956521034,-0.07965557438656687,0.028735908947745338
1772555510345199400,3.200199462890625,-0.008784194958209991,-0.042123423849791286,-0.0026869192627258596
1772555510355131400,3.21013134765625,-0.024900632500648497,-0.006214782861620188,-0.018315180562576278
1772555510365063400,3.2200634765625,-0.005493921241164207,0.007213292379677295,-0.009206137564172968
1772555510374995500,3.229995361328125,0.013345803785324096,-0.005543167210370302,-0.018701143106282687
1772555510384927500,3.239927490234375,0.017770049968361852,-0.01845876288488507,-0.024197146706678902
1772555510394859300,3.249859375,0.012038812839984894,-0.01420285900607705,-0.0013961716327117754
1772555510404790500,3.25979052734375,0.019342998373508453,-0.026550737795233724,0.04322653082006145
1772555510414722600,3.26972265625,0.00035071313381195067,-0.054299599333852526,0.06562599415474105
1772555510424654600,3.279654541015625,-0.008257540735602378,-0.06702376408949494,0.09621429407009854
1772555510434586600,3.289586669921875,-0.003618775019049644,-0.06201689571291208,0.11618759883693419
1772555510444518400,3.299518310546875,-0.018678981506824493,-0.04344254362434149,0.10627254581842571
1772555510454449400,3.309449462890625,-0.028167525342106817,-0.03798427821844816,0.0722469101318391
1772555510464381400,3.31938134765625,-0.020602058523893355,-0.026090134546160697,0.014758287232019938
1772555510474313500,3.3293134765625,0.0055061962008476255,-0.014444412676990032,-0.0322518126807874
1772555510484245500,3.33924560546875,-0.003433481580018997,0.0018814298324286937,-0.031335937661596105
1772555510494177300,3.34917724609375,-0.028760230538249013,-0.006578793868422508,-0.029490930849418506
1772555510504109300,3.359109375,-0.04309738344848156,-0.01657046492025256,-0.025155232882802372
1772555510514040600,3.36904052734375,-0.05978256078958511,-0.016272943278402088,-0.0025544588393415324
1772555510523972600,3.37897265625,-0.04725041147470474,-0.013697101441025733,0.001385878567560576
1772555510533904600,3.388904541015625,-0.01516425138413906,-0.024554011020064354,-0.012863390563242136
1772555510543836400,3.39883642578125,0.03398877884149551,-0.03129515584334731,-0.019991333613870663
1772555510553768400,3.4087685546875,0.0615039777547121,-0.038479222128540276,-0.034031690968037584
1772555510563699500,3.418699462890625,0.057924365702271455,-0.03664630761295557,-0.02153965446783695
1772555510573631500,3.428631591796875,0.04460428088009357,-0.052000967002660034,-0.035434863163693806
1772555510583563500,3.4385634765625,0.02962883006632328,-0.06152165954187512,-0.018539824197883716
1772555510593495300,3.448495361328125,-0.0004471592456102371,-0.07881400899589061,0.009584515023045241
1772555510603427300,3.45842724609375,-0.02181318787932396,-0.07388166716024279,0.04362614286320749
1772555510613358600,3.468358642578125,-0.043296705412864685,-0.061951137000322336,0.04939160648817196
1772555510623290600,3.47829052734375,-0.07720482023358345,-0.051610360249876974,0.03934299935102462
1772555510633222400,3.488222412109375,-0.1047211881905794,-0.06190875916332006,0.04741664402023889
1772555510643154400,3.498154541015625,-0.1284025080293417,-0.08642360721677542,0.07022792129251174
1772555510653086500,3.50808642578125,-0.14709201093018054,-0.11065861541554331,0.08746707925456576
1772555510663018500,3.5180185546875,-0.12422960625886917,-0.13325184775665402,0.10213243207270278
1772555510672949500,3.527949462890625,-0.0732072750300169,-0.17780235262289643,0.10935459274542517
1772555510682881300,3.53788134765625,-0.05305939001441001,-0.22379165812060237,0.07204105339539237
1772555510692813300,3.547813232421875,-0.035001170754432674,-0.24005890231058,0.0149354932627175
1772555510702745300,3.557745361328125,-0.06902034473419189,-0.21773411164730785,-0.054169086555670945
1772555510712677400,3.567677490234375,-0.14644552972018718,-0.16554697442278266,-0.08004678392754867
1772555510722608600,3.577608642578125,-0.2330366024583578,-0.10723331714197992,-0.10467482829820364
1772555510732540400,3.58754052734375,-0.27999592203199863,-0.043536651648581025,-0.12190518189929425
1772555510742472400,3.597472412109375,-0.27024785047769545,-0.022361323281377552,-0.1324594735362567
1772555510752404500,3.607404541015625,-0.24856325741410254,-0.03268997120261192,-0.13988018898838198
1772555510762336500,3.61733642578125,-0.2359942832201719,-0.04829436756968498,-0.12242806412908248
1772555510772268500,3.6272685546875,-0.19205285016298293,-0.04091390192955732,-0.10999333817353471
1772555510782199300,3.63719921875,-0.13915829532146454,-0.03754954006299376,-0.07435240821084008
1772555510792131300,3.64713134765625,-0.11820084748864174,-0.04638151968568563,-0.029123017702344805
1772555510802063400,3.6570634765625,-0.1157183830231428,-0.038605624987185,0.035282846373179924
1772555510811995400,3.666995361328125,-0.1320142687857151,-0.009602671734243631,0.11453609616970643
1772555510821927400,3.676927490234375,-0.08369242868721484,0.018410247568041084,0.17836206886488942
1772555510831858400,3.6868583984375,-0.01762333497405052,0.03844371242374182,0.2304184558492154
1772555510841790500,3.69679052734375,0.0491039303869009,0.043737288787215944,0.24547530133612452
1772555510851722500,3.706722412109375,0.12355389895439148,0.06447057247534393,0.2585520241227932
1772555510861654500,3.716654541015625,0.18469898026883602,0.08056275235936045,0.24801165141332893
1772555510871586600,3.726586669921875,0.24129940389096735,0.08384864216223359,0.18577534079607574
1772555510881517300,3.736517333984375,0.2801677714675665,0.07519128845408558,0.1433562036690302
1772555510891449300,3.746449462890625,0.2794558238059282,0.09054141779914497,0.11458663904685526
1772555510901381400,3.75638134765625,0.24876374842226504,0.09282236834317445,0.0979390629029367
1772555510911313400,3.7663134765625,0.21834815189242363,0.08170432360991835,0.06421711373750585
1772555510921245700,3.77624560546875,0.1577554437637329,0.05763137410506606,0.06359276216092985
1772555510931176400,3.786176513671875,0.07129647297263145,0.0351484702706337,0.05290265594958327
1772555510941108500,3.7961083984375,0.02937222495675087,0.03478650509044528,0.05841803097072988
1772555510951040500,3.80604052734375,0.00036591070294380185,0.0331691330216825,0.07012329187425784
1772555510960972500,3.81597265625,-0.04009177189171314,0.017745061657577752,0.07378280076249502
1772555510970904300,3.825904296875,-0.08138181365728378,0.005370294861495494,0.0768675237037707
1772555510980836400,3.83583642578125,-0.05472177026867866,0.0026937691286206245,0.09400823539318516
1772555510990767400,3.845767333984375,0.011049217280745505,0.0037692894056439398,0.0977219678198453
1772555511000699600,3.85569970703125,0.07509703429937362,-0.018307079454511405,0.06354630637043156
1772555511010631700,3.865631591796875,0.11749416052401065,-0.04288286391496658,0.04655210874592885
1772555511020563500,3.8755634765625,0.10613514664173125,-0.05238850501552224,0.05572145796366967
1772555511030495500,3.88549560546875,0.0707283176958561,-0.0637554099433124,0.06776919389562681
1772555511040426500,3.895426513671875,0.05908171904385089,-0.0609396218702197,0.08904922474632039
1772555511050358500,3.905358642578125,0.047560208076238626,-0.05985679506957531,0.09627868280950933
1772555511060290600,3.91529052734375,0.06534487109184264,-0.059924015086889264,0.09929307132777758
1772555511070222300,3.925222412109375,0.05251520013511181,-0.05826368065923452,0.0984882394846063
1772555511080154400,3.935154296875,0.06878010623753071,-0.03711611708179116,0.085258116234513
1772555511090085600,3.945085693359375,0.08426409109532833,-0.0501017092525959,0.05722321342928335
1772555511100017700,3.955017578125,0.04386895234286785,-0.05637538269460201,0.0365654974617064
1772555511109949400,3.964949462890625,-0.012530980271100996,-0.05241700045764446,0.0202668352201581
1772555511119881500,3.974881591796875,-0.054852703171968456,-0.03921104353442788,0.016841984471166506
1772555511129813500,3.9848134765625,-0.0928442879140377,-0.034106121610850096,0.004871049235621467
1772555511139745500,3.99474560546875,-0.1052355674535036,-0.026922785978019236,-0.020406271090311928
1772555511149676500,4.004676513671875,-0.0932499461054802,-0.028335867646336554,-0.03651801419132389
1772555511159608300,4.0146083984375,-0.05423778614401817,-0.015988719509541987,-0.03738300612336024
1772555511169540400,4.024540283203125,-0.018784779968857763,-0.010492021789401769,-0.06505956961074844
1772555511179472400,4.034472412109375,-0.018320669588446616,-0.0064433309204876416,-0.08958640036294237
1772555511189404400,4.044404296875,-0.02929799067676067,-0.0015957447588443754,-0.08976113587534054
1772555511199335700,4.054335693359375,-0.03973930519223213,-0.013867489571869373,-0.05609752473444678
1772555511209267500,4.064267333984375,-0.07119301259815693,-0.026590631414204834,-0.015631065178290007
1772555511219199500,4.074199462890625,-0.07540916898846625,-0.042220016092061996,0.04020653911149129
1772555511229131500,4.084131591796875,-0.0621533815741539,-0.05564209998399019,0.04767467390191741
1772555511239063600,4.0940634765625,-0.0595826543033123,-0.06899784064143896,0.03194392947512679
1772555511248995600,4.10399560546875,-0.049370472368597984,-0.06599661299884318,-0.016322518041171134
1772555511258926300,4.11392626953125,-0.04874620299041271,-0.049293607740104196,-0.03182175526702776
1772555511268858400,4.1238583984375,-0.04914426239728927,-0.03204348999261856,-0.0381813168941997
1772555511278790400,4.133790283203125,-0.007353285372257232,-0.022592940080165862,-0.02289026992577128
1772555511288722400,4.143722412109375,0.018569675913453102,-0.04553951590359211,-0.005040313988458365
1772555511298654500,4.153654541015625,0.052908583366870876,-0.07641907668337225,0.005104556597396731
1772555511308585500,4.16358544921875,0.07110884144604206,-0.08406462300047278,0.02966431237165816
1772555511318517500,4.173517578125,0.08364917406737804,-0.11813567329794168,0.013040085137286222
1772555511328449500,4.183449462890625,0.07358721425831317,-0.14904577534645794,-0.03772147626352962
1772555511338381600,4.193381591796875,-0.007882862204313277,-0.1387327633857727,-0.08186857426092028
1772555511348313600,4.203313720703125,-0.0881821413218975,-0.11237827881500125,-0.08785113753555342
1772555511358244400,4.213244384765625,-0.10787994448244571,-0.08190276879146695,-0.07891405357057228
1772555511368176400,4.22317626953125,-0.07908698071837425,-0.04651975911259651,-0.1073489246119745
1772555511378108400,4.2331083984375,-0.04316694155335426,-0.022682956451177596,-0.1546131454163231
1772555511388040400,4.24304052734375,-0.04725567217171192,0.0034928105518221854,-0.18107361111221834
1772555511397972200,4.25297216796875,-0.09689970078468323,0.001313128425180912,-0.1652880312256515
1772555511407904500,4.262904541015625,-0.1661690518438816,-0.01655102956742048,-0.12373730183043516
1772555511417835500,4.27283544921875,-0.23493922120928762,-0.04807531799152493,-0.09137847141148522
1772555511427767600,4.282767578125,-0.2476461425691843,-0.037985885653644795,-0.09119139700732193
1772555511437699600,4.292699462890625,-0.20529811618328092,-0.013939970286190508,-0.11553281558947637
1772555511447631400,4.30263134765625,-0.13427344588935375,-0.007768295913934707,-0.16126664848877115
1772555511457563400,4.3125634765625,-0.0406903223067522,-0.013508154740184545,-0.21866361104976384
1772555511467494400,4.322494384765625,0.0037549686193466183,-0.012762304808944462,-0.23307567409342153
1772555511477426400,4.332426513671875,-0.03135667677223682,-0.01813362258374691,-0.208826582570374
1772555511487358500,4.3423583984375,-0.015824176597595215,-0.026135288862138985,-0.17090514045506716
1772555511497290500,4.35229052734375,0.03823182323873043,-0.036826486485451455,-0.14014622864658013
1772555511507222500,4.362222412109375,0.11148410645425319,-0.04411620510220527,-0.1160793344231788
1772555511517153800,4.37215380859375,0.12939619524180887,-0.06449234591573476,-0.12230284858052617
1772555511527085800,4.3820859375,0.1061550203859806,-0.08670330094099045,-0.1165857130427379
1772555511537017600,4.392017578125,0.05567570999264717,-0.10430588538795708,-0.07601431354107335
1772555511546949600,4.40194970703125,0.000025718963146209716,-0.09495178158730268,-0.03439672945472411
1772555511556881700,4.411881591796875,-0.04165595246851444,-0.07738719106316566,-0.0007128141696739476
1772555511566813700,4.421813720703125,-0.06984568964242935,-0.061162616971135134,0.022006404329906217
1772555511576744400,4.431744384765625,-0.08578910870552063,-0.04821443420127034,0.01903085683454992
1772555511586676500,4.441676513671875,-0.09420388582944869,-0.03716784726902842,0.010110598423494956
1772555511596608500,4.4516083984375,-0.0885129807114601,-0.022295710699260233,-0.0049499437077087345
1772555511606540800,4.461540771484375,-0.061271922564506524,-0.008905921641737221,-0.021822885006142313
1772555511616472800,4.471472900390625,-0.05386895283162593,0.010845219141244887,-0.014303014320257351
1772555511626403600,4.481403564453125,-0.046183659026026724,0.010185440058261155,-0.005465174637292511
1772555511636335600,4.491335693359375,-0.04701134202182293,0.01929126818627119,0.002832615910307504
1772555511646267600,4.501267578125,-0.03877309050858021,0.047455870918929575,0.024468312347854952
1772555511656199700,4.51119970703125,-0.017815642675757408,0.05526113784238696,0.05553984518591314
1772555511666131700,4.521131591796875,0.023209610673785207,0.053976066467911005,0.06979257121570408
1772555511676062500,4.5310625,0.07616027961671352,0.05859934235438704,0.07151528508877382
1772555511685994800,4.540994873046875,0.11604396171569824,0.060882192594557995,0.07811835488192737
1772555511695926800,4.5509267578125,0.14666589447259903,0.039350305874645705,0.059683246867265546
1772555511705858800,4.56085888671875,0.1423451086640358,0.03110518622919917,0.037338285632221954
1772555511715790800,4.570790771484375,0.1526741949766874,0.03954305196776986,0.028583230003528297
1772555511725721600,4.5807216796875,0.16456746186614035,0.06645210168138146,0.010102985939197241
1772555511735653600,4.590653564453125,0.16443419087529182,0.08400923955142497,-0.01722909094247734
1772555511745585700,4.600585693359375,0.15283026232123373,0.07273439682126044,-0.03321030756557593
1772555511755517700,4.610517578125,0.14778466936945914,0.08589286134094,-0.05217707705481443
1772555511765449700,4.62044970703125,0.12406710917353629,0.08823021824732423,-0.06076196374837309
1772555511775381500,4.630381591796875,0.0960989057958126,0.07714636804461479,-0.0571785249041859
1772555511785312800,4.640312744140625,0.02921440404653549,0.06625292584747075,-0.05274938335032202
1772555511795244800,4.650244873046875,-0.034677930149435994,0.06819792243540286,-0.027817800872272345
1772555511805176800,4.6601767578125,-0.0906739581376314,0.0788544871367514,0.002647893864256912
1772555511815108900,4.67010888671875,-0.13358371005952357,0.04706307220906019,0.023320578501280397
1772555511825040600,4.68004052734375,-0.1471194834589958,0.025359336053580043,0.06748410247708671
1772555511834971600,4.6899716796875,-0.1424713653922081,0.0009819967746734618,0.09980946901785209
1772555511844903700,4.699903564453125,-0.12227204245030879,-0.024358780708909032,0.11256753604309633
1772555511854835700,4.709835693359375,-0.07928571816086769,-0.06042874973863363,0.11872830542884766
1772555511864767500,4.719767578125,-0.03699263683259487,-0.08263166758790612,0.11653558115754276
1772555511874699500,4.729699462890625,-0.0034650457620620727,-0.08369330547004937,0.09847631158479489
1772555511884631600,4.739631591796875,0.04395604610443115,-0.07390373286157846,0.06871811038460582
1772555511894562800,4.749562744140625,0.03150514533221722,-0.06678308720141649,0.04294395558559336
1772555511904494800,4.759494873046875,-0.05364274286031723,-0.06314458456858993,0.03740885751724709
1772555511914426600,4.769426513671875,-0.1024818848311901,-0.045998365586996076,0.018471731964312493
1772555511924358700,4.779358642578125,-0.12656009503304957,-0.017560645001381634,0.01039176258558873
1772555511934290700,4.789290771484375,-0.1524830563187599,-0.022166969753056764,-0.023155864342686253
1772555511944221700,4.7992216796875,-0.1310246732264757,-0.020436200437694788,-0.04722029033107683
1772555511954153700,4.80915380859375,-0.08894143525660038,-0.01256239832267165,-0.0796651185330469
1772555511964085500,4.81908544921875,-0.08957096533179283,-0.02761909767910838,-0.10085301412087865
1772555511974017500,4.829017578125,-0.10616671082377434,-0.03795870538577437,-0.10134039577902294
1772555511983949600,4.838949462890625,-0.1170697976320982,-0.03854994927719235,-0.09949267641995102
1772555511993880800,4.848880859375,-0.126328039842844,-0.03382233623340726,-0.1127898826900404
1772555512003812600,4.8588125,-0.1434901870459318,-0.03174742965549231,-0.10743073941022158
1772555512013744600,4.86874462890625,-0.16622633498907088,-0.031911534176021814,-0.08430935500916092
1772555512023676700,4.8786767578125,-0.18027064243257046,-0.0252044377528131,-0.055069958085264076
1772555512033608700,4.888608642578125,-0.1499251885294914,-0.012618658554553986,-0.04682027642913163
1772555512043540700,4.898540771484375,-0.12913608300089835,-0.01319002870172262,-0.02558594331711065
1772555512053471500,4.908471435546875,-0.11721885071396827,-0.024777736773341892,-0.015103212229150812
1772555512063403500,4.918403564453125,-0.08339198443591594,-0.01910217535495758,-0.0048192984987865195
1772555512073335600,4.92833544921875,-0.05545417619645595,0.008400894729048014,0.01593192270483123
1772555512083267600,4.938267578125,-0.05559212336242199,0.015783698456734416,0.034767715908295936
1772555512093199600,4.94819970703125,-0.0930529622286558,-0.0014319324992597103,0.055225765134906395
1772555512103130600,4.958130615234375,-0.09399404247105121,0.012790215729176997,0.09965045166439376
1772555512113062700,4.968062744140625,-0.0594780248850584,0.03863981951773166,0.13552114439550786
1772555512122994700,4.97799462890625,0.0019347674548625944,0.03523351820558309,0.13732708870577626
1772555512132926700,4.9879267578125,0.013496610432863234,-0.010566256069391966,0.1541297458135523
1772555512142858800,4.997858642578125,0.02821311804950237,-0.015745412272959947,0.1927761412025429
1772555512152789500,5.00778955078125,0.08562778066396713,0.024243337635695934,0.22911690826397388
1772555512162721500,5.017721435546875,0.1390542504251003,0.02794204602316022,0.19506193231847135
1772555512172653600,5.027653564453125,0.1449549989014864,0.03511296056583524,0.15396164097134024
1772555512182585600,5.037585693359375,0.15299159036278723,0.06532616639137268,0.1344072740026284
1772555512192517600,5.047517578125,0.17282324903607368,0.10434797096401452,0.12784059069710782
1772555512202449700,5.05744970703125,0.1780979745686054,0.10483414704576134,0.1053817892574705
1772555512212380700,5.067380615234375,0.16005553739964962,0.10559431776329875,0.10025834529651328
1772555512222312700,5.077312744140625,0.14793313792943955,0.11768398400768637,0.11536766075617633
1772555512232244700,5.08724462890625,0.1374082367837429,0.12453764929473399,0.09299672026308253
1772555512242176800,5.0971767578125,0.1498603065997362,0.12417933737635611,0.06672516930198762
1772555512252108500,5.107108642578125,0.1665349625468254,0.11627061007842421,0.027418323543155564
1772555512262039600,5.11703955078125,0.16895605221390722,0.13293021458685397,0.029131612000754103
1772555512271971600,5.1269716796875,0.12945347838699817,0.11287234594225883,0.03019970702314749
1772555512281903600,5.136903564453125,0.078082187590003,0.09275777867436409,0.04580157350641675
1772555512291836000,5.1468359375,0.057609892925620076,0.09985796606838702,0.04727359142089262
1772555512301767700,5.156767578125,0.043135961893200875,0.09529197332710027,0.017865409234771503
1772555512311698700,5.16669873046875,0.029713001218438145,0.08105375074669718,-0.011614582378813064
1772555512321630700,5.176630615234375,0.007441548177599906,0.07509425782039761,-0.018895750079641584
1772555512331562800,5.186562744140625,-0.06012918227016925,0.06226385621130466,-0.028373692605807445
1772555512341494500,5.19649462890625,-0.1178928044527769,0.03950564256682992,-0.04580973397998605
1772555512351426600,5.206426513671875,-0.15588672728240488,0.026385464230924843,-0.08063884980287403
1772555512361357600,5.216357666015625,-0.18809212983846663,0.008542056765407324,-0.07893587267673574
1772555512371289900,5.226289794921875,-0.19026538222432135,-0.0014478607207536697,-0.0718951603849884
1772555512381222000,5.236221923828125,-0.1706347990810871,-0.019163257892429827,-0.06896151808588766
1772555512391153700,5.246153564453125,-0.15439327385425566,-0.04762625904977321,-0.09363598628100007
1772555512401085700,5.256085693359375,-0.11723229471743106,-0.061985331530869006,-0.09125298186829313
1772555512411017700,5.266017822265625,-0.09632745385468006,-0.08403203590512275,-0.09316413098555058
1772555512420948700,5.27594873046875,-0.0745791479051113,-0.08754545085355639,-0.08164393519219011
1772555512430880800,5.285880859375,-0.10168342792987822,-0.11118906903043389,-0.07280972251321655
1772555512440812500,5.2958125,-0.1566664794832468,-0.1276383917890489,-0.03591355005872901
1772555512450744600,5.30574462890625,-0.20517536658644675,-0.11128960679545997,-0.006208531217346899
1772555512460676600,5.315676513671875,-0.2047287918627262,-0.09404650331065058,-0.014597539145778864
1772555512470608000,5.32560791015625,-0.17623977948129177,-0.07895765525028109,-0.034259083682857454
1772555512480539600,5.33553955078125,-0.12119769121706485,-0.04921045950129628,-0.03521003686529584
1772555512490471700,5.3454716796875,-0.03728080612421036,-0.03784764622673392,-0.03233281006170437
1772555512500403700,5.35540380859375,0.013179799568653106,-0.0506188649944961,-0.04766957760169171
1772555512510335700,5.365335693359375,0.005300444495677948,-0.06453808475360275,-0.0661990859015379
1772555512520266800,5.375266845703125,-0.05111527020931243,-0.0488521475829184,-0.04906779049444012
1772555512530198800,5.38519873046875,-0.09416355381906032,-0.016216829176992176,-0.03570656537769828
1772555512540130600,5.395130615234375,-0.14425474167764185,0.02106149272918701,-0.018509648255328647
1772555512550062600,5.4050625,-0.17416238868534564,0.026207185054570436,-0.014858779331273398
1772555512559994600,5.41499462890625,-0.21993220621347426,0.036559944503754375,0.001204270356381312
1772555512569926700,5.4249267578125,-0.1813572686254978,0.05891834517568349,0.03791138651217334
1772555512579858000,5.43485791015625,-0.0950005891650915,0.08049889334291219,0.07684053523214533
1772555512589789700,5.444789794921875,0.00858078134059906,0.07245601827129722,0.05224758957433514
1772555512599721700,5.4547216796875,0.08594634509384631,0.04005333957746625,0.014135497424867935
1772555512609653800,5.46465380859375,0.13798866702020168,0.04287731095701456,0.019968678824068047
1772555512619585800,5.474585693359375,0.15189444277584552,0.04725684121549129,0.026181224062829276
1772555512629516500,5.4845166015625,0.13011749525368213,0.04657397351786494,0.014772708483017049
1772555512639448600,5.494448486328125,0.10447510447502135,0.04553703168556094,0.024575403151253703
1772555512649380600,5.504380615234375,0.08325812892317772,0.06806406692266463,0.002355404019728303
1772555512659312600,5.514312744140625,0.048692426976561544,0.07539046428799628,-0.045902220869297156
1772555512669244700,5.52424462890625,0.004164133942127227,0.09241875597834587,-0.06686875619087368
1772555512679175700,5.53417578125,-0.03616963001191616,0.10634235965162515,-0.05540493936040439
1772555512689107700,5.544107666015625,-0.04292611853480339,0.10245251260623335,-0.0356773210169049
1772555512699039700,5.554039794921875,-0.03841711667776108,0.0885797623373568,0.0046043108911020675
1772555512708971800,5.5639716796875,-0.015882628786563872,0.06034092532470822,0.025292298699356616
1772555512718903800,5.57390380859375,-0.008671966755390167,0.015081103145331143,0.04528106133022811
1772555512728834600,5.58383447265625,0.001741290709376335,-0.031159839025884865,0.08132771798302418
1772555512738766600,5.5937666015625,0.007291326051950454,-0.05602393890842795,0.09016294900872744
1772555512748698600,5.60369873046875,-0.020249591824412345,-0.057755292745679615,0.06540964342374354
1772555512758630700,5.613630615234375,-0.03312368644475937,-0.0804962629944086,0.027966077636007683
1772555512768562700,5.623562744140625,-0.04372165282666683,-0.11081877441331743,-0.0350704845474218
1772555512778494700,5.63349462890625,-0.05543313340842723,-0.09423033544495701,-0.03810066428986611
1772555512788425700,5.64342578125,-0.06304185484647751,-0.0745804630793631,-0.05576707350395154
1772555512798357800,5.653357666015625,-0.06595803455412387,-0.07000730994492768,-0.04395472179702483
1772555512808289800,5.663289794921875,-0.07876023298203945,-0.08008870510682463,-0.021415913923736662
1772555512818221800,5.673221923828125,-0.06319733766913414,-0.07086246546953916,-0.037328791718091815
1772555512828153600,5.683153564453125,-0.06483925965726375,-0.0765806969858706,-0.03220034507174278
1772555512838084600,5.693084716796875,-0.05894669448733329,-0.05522212100625038,-0.02061992069085827
1772555512848016600,5.7030166015625,-0.05172843367159366,-0.024751141027361152,0.007997453610866796
1772555512857948700,5.71294873046875,-0.030984920850396155,-0.008405278643220663,0.012282035594887565
1772555512867880700,5.722880615234375,-0.004904138654470444,-0.00014729951620101928,0.04318890678999014
1772555512877812700,5.732812744140625,0.02941138792335987,-0.007206278117001056,0.05999864665910135
1772555512887743700,5.74274365234375,0.08556815943121909,-0.000660655865818262,0.05296781187397428
1772555512897675800,5.75267578125,0.14356325228214262,-0.008507277712970971,0.04113326660154853
1772555512907607800,5.76260791015625,0.18602526043653486,-0.017043343129009007,0.021458257511409465
1772555512917539600,5.77253955078125,0.17627017461955546,-0.03435688150152564,0.02763364679426886
1772555512927471600,5.7824716796875,0.14941197831034658,-0.03453530680835247,0.027938707855180836
1772555512937403600,5.792403564453125,0.08066460529863834,-0.03778802499398589,0.01820716046070447
1772555512947334700,5.802334716796875,-0.014207389050722122,-0.01640460683405399,0.03409723505149595
1772555512957266700,5.8122666015625,-0.061599254822731014,0.013563392058759926,0.02484370554848574
1772555512967198700,5.82219873046875,-0.07920563866198062,0.05715922654867172,0.005275686797045637
1772555512977130800,5.832130859375,-0.0703138916760683,0.06626359337195753,-0.010883969974255886
1772555512987062800,5.842062744140625,-0.07800269261300563,0.0542332560993731,-0.026367554114898665
1772555512996993800,5.851993896484375,-0.09504676639437674,0.043099137014150614,-0.03839727033297531
1772555513006925800,5.86192578125,-0.09152969818413258,0.05927037348374724,-0.04247603667974472
1772555513016857600,5.871857666015625,-0.11485972036719322,0.05654562469497323,-0.03908010606456082
1772555513026789600,5.88178955078125,-0.10490005188882351,0.05508110510036349,-0.03485388037138618
1772555513036721700,5.8917216796875,-0.08811433678269386,0.04140416966453194,-0.027509257796197197
1772555513046652700,5.901652587890625,-0.09000292700827121,0.011717910322546958,-0.04608228557736147
1772555513056584700,5.911584716796875,-0.08378302958011627,0.011691899098455905,-0.045195068113785236
1772555513066516700,5.921516845703125,-0.06929331645667552,0.033917905562371016,-0.02940782370980596
1772555513076448800,5.93144873046875,-0.04563771558105945,0.04189838292226195,-0.025575230126851235
1772555513086380800,5.941380859375,0.026187749701738355,0.050855157968401905,-0.03167457448183559
1772555513096311800,5.951311767578125,0.07313245622813701,0.05552314977943897,-0.032140497793420215
1772555513106243600,5.96124365234375,0.13360592189133166,0.029958938803523776,-0.031298756589519326
1772555513116175600,5.971175537109375,0.14910335075259207,0.004066811047494411,-0.04294465427191462
1772555513126107600,5.981107666015625,0.12903671427965163,-0.0023009704187512397,-0.023139381282054818
1772555513136039700,5.991039794921875,0.05940554417073726,-0.016899112352728844,0.007106223267520545
1772555513145971700,6.0009716796875,-0.003936170405149459,-0.04215747224986553,0.023202043855260125
1772555513155902700,6.01090283203125,-0.03979541929364204,-0.05048530174270272,0.028317959813599008
1772555513165834800,6.020834716796875,-0.07920388509631157,-0.05527852736860513,0.04885957740412559
1772555513175766800,6.030766845703125,-0.07771861497461795,-0.06207900116369128,0.05217365212186705
1772555513185698800,6.04069873046875,-0.07591127329170703,-0.050109454167634244,0.03662146086606662
1772555513195630800,6.050630859375,-0.05850947211384773,-0.031097733575105667,0.0004925150618102634
1772555513205561600,6.0605615234375,-0.046376551249623296,-0.04225567192733288,-0.019499851169344037
1772555513215493600,6.07049365234375,-0.023347557839751242,-0.04694222230836749,-0.03730036249133991
1772555513225425700,6.08042578125,-0.004815291327238082,-0.0532287552319467,-0.01609613568157074
1772555513235357700,6.090357666015625,-0.014608371067047118,-0.06327230260148645,0.007235723978016176
1772555513245289700,6.100289794921875,-0.026558921101689337,-0.07575199107676744,0.028979716224537697
1772555513255220700,6.110220703125,-0.052798693251609796,-0.09762889184206723,0.048343892100104126
1772555513265152800,6.12015283203125,-0.06431318995654582,-0.09020882484391331,0.08525842676176688
1772555513275084800,6.130084716796875,-0.05293897850513458,-0.07841594958901404,0.09782605838198215
1772555513285016800,6.140016845703125,-0.046864627027511596,-0.08979410656318068,0.07540254745143465
1772555513294948900,6.149948974609375,-0.0729150140851736,-0.08772489907369017,0.05690600527285132
1772555513304879600,6.159879638671875,-0.08761749317646027,-0.07158727261275052,0.01806153117013746
1772555513314811600,6.169811767578125,-0.1308598380535841,-0.04172273409441113,-0.023378905109374317
1772555513324743700,6.17974365234375,-0.1594634167253971,-0.0390052918292582,-0.04118975972887128
1772555513334675700,6.18967578125,-0.1759679768025875,-0.03383855671584606,-0.03189841439954471
1772555513344607500,6.199607421875,-0.18063304600417612,-0.03577449321448803,0.0014984743798500857
1772555513354539500,6.20953955078125,-0.18976093983352182,-0.06269143397361039,0.033752629714773504
1772555513364470800,6.219470703125,-0.17743103509247302,-0.07576119729653,0.06459545009718276
1772555513374402800,6.22940283203125,-0.1520440803796053,-0.09252075504809618,0.0741470035655424
1772555513384334800,6.2393349609375,-0.09683364981114864,-0.06565627512857318,0.09293746435651555
1772555513394266600,6.2492666015625,-0.03396072179079056,-0.043269232884049415,0.08862351928069255
1772555513404198700,6.25919873046875,0.03582826922833919,-0.035386078418791295,0.05405200864779763
1772555513414129700,6.269129638671875,0.07918634943962097,-0.026384441317617892,0.014614718609442934
1772555513424061700,6.279061767578125,0.1337561440169811,-0.04129135693982243,0.0015491885036462917
1772555513433993700,6.28899365234375,0.16771043606698513,-0.0568451921634376,-0.02715373148994986
1772555513443925500,6.298925537109375,0.1689969687461853,-0.030938159099221228,-0.06077885551766958
1772555513453857500,6.308857421875,0.09688976391255855,-0.03611877660751343,-0.06999131322477478
1772555513463788800,6.318788818359375,0.026323358780145644,-0.01627133584320545,-0.06844863666030578
1772555513473720800,6.328720947265625,-0.020745850908756254,0.030303806718438863,-0.0572488775935024
1772555513483653000,6.338653076171875,-0.06769815621972083,0.071200319121778,-0.053607406685454766
1772555513493585200,6.348585205078125,-0.09139934980273247,0.08237783895730971,-0.03264904097060207
1772555513503517200,6.35851708984375,-0.061843584972620005,0.08042159032300114,-0.02502804000629112
1772555513513448000,6.368447998046875,-0.013285598030686378,0.07401786076053976,-0.0378990019546356
1772555513523380000,6.3783798828125,0.003765490013360977,0.0568256106801331,-0.04676354127321392
1772555513533312000,6.38831201171875,0.006489362019300461,0.03572305528819561,-0.05124970111078583
1772555513543244000,6.398244140625,-0.020728899773955343,0.04287117347717285,-0.017300962018733844
1772555513553175800,6.40817578125,-0.05308744706511497,0.03837152397036552,0.018715532391238958
1772555513563107000,6.418107177734375,-0.050286418169736856,0.0407645565867424,0.025519376320345327
1772555513573039000,6.4280390625,-0.048722822114825245,0.03949848217368126,0.019795742543111554
1772555513582971100,6.43797119140625,-0.0419102194905281,0.04964622057005763,0.01659423852148466
1772555513592903200,6.447903076171875,-0.011261398726701736,0.06323708515763282,0.0033287516970653087
1772555513602835000,6.4578349609375,-0.007660743886232376,0.07450695945173502,0.00530171400415711
1772555513612767000,6.46776708984375,-0.013927987587451934,0.061021601065248246,0.013450524535123258
1772555513622698000,6.477697998046875,-0.02317687744796276,0.05988426759839058,0.014809035605145618
1772555513632630000,6.487630126953125,-0.021115268743038176,0.03760521577298641,0.0103636279030703
1772555513642562000,6.49756201171875,-0.023898177459836006,0.010628507650643586,-0.0035871560380794105
1772555513652494000,6.507494140625,-0.01808218465745449,-0.009975596699863672,-0.011054331847280264
1772555513662426000,6.517426025390625,-0.018655016109347344,-0.03572393207103014,0.013766787410061805
1772555513672357000,6.527357177734375,-0.026315759995579717,-0.056311669808626175,0.028260035064304245
1772555513682289200,6.5372890625,-0.047641456618905065,-0.07242986091673374,0.05029442794625647
1772555513692221000,6.547220947265625,-0.05211304907500743,-0.07134849542081356,0.06771644536165985
1772555513702153000,6.557153076171875,-0.0501712673574686,-0.06450578991919756,0.07850490651410072
1772555513712085000,6.5670849609375,-0.05197276382148266,-0.06666618282347918,0.08061121287727728
1772555513722016000,6.57701611328125,-0.05343699115514755,-0.07432765736207365,0.08065174581706523
1772555513731948000,6.586947998046875,-0.0779822343468666,-0.0777701990313828,0.08317132742255925
1772555513741880000,6.596880126953125,-0.0960071358591318,-0.07144508766308426,0.08229884630381129
1772555513751812000,6.60681201171875,-0.13212182081341742,-0.05405322335734963,0.06732936857310123
1772555513761744100,6.616744140625,-0.1115139170706272,-0.02632774269431829,0.047790888726687984
1772555513771675100,6.626675048828125,-0.08877835364937782,0.0012758651547133922,0.04633138780049048
1772555513781607200,6.636607177734375,-0.04155015400648117,0.011303045911341904,0.04007461982751265
1772555513791539000,6.6465390625,0.001378302615880966,0.01614873237684369,-0.001734952300135046
1772555513801471000,6.656470947265625,0.02384381692409515,0.04477203866243362,-0.04680791013790294
1772555513811403000,6.666403076171875,-0.024251228681206702,0.03907251184657216,-0.059756010709377
1772555513821335000,6.6763349609375,-0.0789887810409069,0.04760886952355504,-0.061964096946595236
1772555513831266000,6.68626611328125,-0.14710896206498145,0.07380845579355955,-0.05544467771574855
1772555513841198000,6.696197998046875,-0.16295593501627445,0.08592237969636916,-0.0422706868333742
1772555513851130000,6.706130126953125,-0.13734569294154644,0.08792977399602532,-0.050571655718749386
1772555513861062100,6.716062255859375,-0.09659048870503902,0.09590236031040549,-0.06184195927111431
1772555513870994200,6.725994140625,-0.026949381723999976,0.11076266031190753,-0.07377459005657583
1772555513880925000,6.735925048828125,0.041319852381944654,0.10468933174759149,-0.0855897867411375
1772555513890857000,6.74585693359375,0.0962169792175293,0.11100611367896199,-0.0875691605227068
1772555513900789000,6.7557890625,0.1534977863192558,0.09824687760993837,-0.06298113763518631
1772555513910721000,6.765720947265625,0.17872282846868037,0.10456818958595394,-0.0422820713104913
1772555513920653000,6.775653076171875,0.20043430953919886,0.08754457407072186,-0.009079058852093294
1772555513930584000,6.785583984375,0.1953384477049112,0.0565872718796134,-0.009546050742757507
1772555513940516000,6.79551611328125,0.16065584138035774,0.03598959726989269,-0.017832561844517477
1772555513950448000,6.8054482421875,0.11486790367364882,0.03140753017663955,-0.04694200767923612
1772555513960380200,6.815380126953125,0.04496726897358894,0.03835647253170609,-0.05991327906374354
1772555513970312200,6.825312255859375,0.0027080899149179456,0.05019771697297692,-0.08007370846709236
1772555513980243000,6.835242919921875,-0.026285364857316015,0.06216171101108193,-0.09780257704169489
1772555513990175000,6.845175048828125,-0.04565115958452225,0.08749810458049177,-0.11043857032353989
1772555514000107000,6.85510693359375,-0.0657914458155632,0.091403003064543,-0.11121908057620748
1772555514010039000,6.8650390625,-0.056342064946889876,0.06685118400156498,-0.0744636682992801
1772555514019971000,6.87497119140625,-0.05070025966763496,0.032379443948715926,-0.04441105072977952
1772555514029902000,6.884902099609375,-0.06733166099488735,0.0011922785244882106,0.0013158683715388177
1772555514039834000,6.894834228515625,-0.1039110408514738,-0.030360651472210884,0.01310957474349998
1772555514049766100,6.90476611328125,-0.09634382046759128,-0.036835838835686446,0.010198272140370682
1772555514059698200,6.9146982421875,-0.062062780681252476,-0.026238603106141088,0.0016523246511351316
1772555514069630200,6.924630126953125,-0.05966857902109623,-0.013536504051834344,-0.0201509080897551
1772555514079562000,6.93456201171875,-0.09053075027465819,-0.017755144660174846,-0.04050200579357333
1772555514089493000,6.944492919921875,-0.12072072135508059,-0.0007822364188730716,-0.050319754183758045
1772555514099425000,6.954425048828125,-0.16594985613524912,0.010513649099320172,-0.05624917163220234
1772555514109357000,6.964357177734375,-0.1685094774901867,0.035413550947606565,-0.04116225066743791
1772555514119289000,6.9742890625,-0.1260398705512285,0.04073796084076166,-0.03942328891246579
1772555514129220900,6.984220947265625,-0.07653495814800262,0.04388225021585822,-0.04832689986610785
1772555514139152100,6.994152099609375,-0.007520458632707595,0.02314078322127461,-0.05918696038345806
1772555514149084200,7.004084228515625,0.029754502272605895,-0.007823971623927355,-0.0564622298609931
1772555514159016200,7.01401611328125,0.037906244546175,-0.023512977534532544,-0.005670392052922397
1772555514168948000,7.023947998046875,0.02987374473810196,-0.03968421400412917,0.05744889367762953
1772555514178880000,7.0338798828125,0.015440145716071128,-0.0689373426258564,0.09630944327395409
1772555514188811000,7.04381103515625,0.020594459739327428,-0.09836451264023781,0.11055421432615258
1772555514198743000,7.053742919921875,0.03890402341187,-0.08354790564998985,0.11360502586467192
1772555514208675000,7.063675048828125,0.040676293781399725,-0.0679915862083435,0.09204524649083613
1772555514218606800,7.07360693359375,0.07407470551431179,-0.03963219155594706,0.05845743139935657
1772555514228539000,7.083538818359375,0.10052782815396785,-0.007128975097090005,-0.01142213311321102
1772555514238470100,7.09347021484375,0.08635492589473724,-0.0013747954845428467,-0.045150863645877684
1772555514248402200,7.103402099609375,0.033301965621113774,0.00426554848998785,-0.02393720342912711
1772555514258334200,7.113334228515625,-0.029660394248366355,0.004612754492461681,0.01367028649933636
1772555514268266000,7.123265869140625,-0.06465630430579185,0.00505918308570981,0.024404528679931536
1772555514278198000,7.133197998046875,-0.07444938404560089,-0.003031184389442205,0.011951015825523064
1772555514288130000,7.143130126953125,-0.07458733121156692,-0.011398030718415974,0.000576822640420869
1772555514298061000,7.15306103515625,-0.03645312312841415,0.004330576550215483,0.018496272750524803
1772555514307992800,7.162992919921875,-0.0004945055186748505,0.03607902911901474,0.028470462944591417
1772555514317924900,7.1729248046875,0.003836217162013054,0.042392596179991957,0.003568944527953863
1772555514327857000,7.18285693359375,0.028436989933252332,0.04759206451922655,-0.012596720717381686
1772555514337789200,7.1927890625,0.048666123491525645,0.06534019491672516,-0.021792163357604293
1772555514347720200,7.20272021484375,0.07027355966567993,0.08263882798105478,-0.05767548724142834
1772555514357652000,7.21265185546875,0.09693418757617472,0.09137333857864141,-0.0668512935994193
1772555514367584000,7.222583984375,0.09453823235034942,0.07435337632521986,-0.05675066401408985
1772555514377516000,7.23251611328125,0.10177812047600746,0.049798634652793404,-0.06667943503069691
1772555514387448000,7.242447998046875,0.06145780052542686,0.030800504194200037,-0.08138782327296212
1772555514397379000,7.252379150390625,0.013490180692076682,0.026104309201985598,-0.08676678549810313
1772555514407310800,7.262310791015625,-0.06514671817123889,0.009207827197760343,-0.08109141587596386
1772555514417243000,7.272242919921875,-0.11654255888760089,0.013614829985052347,-0.06518992712530307
1772555514427175200,7.282175048828125,-0.14835457821190356,0.035563919203728436,-0.05614286171351559
1772555514437107200,7.292107177734375,-0.1377729784429073,0.03058934566155076,-0.06806555562685243
1772555514447038000,7.302037841796875,-0.09631576341688633,0.02962809941396117,-0.09190919902101159
1772555514456970000,7.311969970703125,-0.021757073777914047,0.0178878311291337,-0.12010047969804144
1772555514466902000,7.321902099609375,0.022322306445240973,0.012753244719654321,-0.10249191303486004
1772555514476834000,7.331833984375,0.02005728412270546,-0.023162118270248173,-0.0831148479949683
1772555514486765800,7.341765869140625,-0.0037321722656488416,-0.07138064412474632,-0.03487329745790921
1772555514496696800,7.35169677734375,-0.049850364840030664,-0.09372823114171623,0.013065662536537273
1772555514506628900,7.36162890625,-0.1093921026110649,-0.10060235469490289,0.05962571712690405
1772555514516561200,7.37156103515625,-0.11645897225737571,-0.10798179742172359,0.0752638970325701
1772555514526493200,7.3814931640625,-0.11093407135605811,-0.0961414297632873,0.06716041434751824
1772555514536425000,7.391425048828125,-0.11212123531401157,-0.08241670966297387,0.07382979997568763
1772555514546356000,7.40135595703125,-0.1011532665759325,-0.0767656981639564,0.05065800969479605
1772555514556288000,7.4112880859375,-0.07211129648685455,-0.06302504984214902,0.04977623102474026
1772555514566220000,7.421219970703125,-0.034010406151413916,-0.04807414894774556,0.04545870575234294
1772555514576151800,7.43115185546875,0.00540624295771122,-0.049626639086753126,0.04105762124918401
1772555514586083800,7.441083740234375,0.029583237358927726,-0.049257951904833314,0.06354152973061428
1772555514596015900,7.451015869140625,0.03549859888255596,-0.05906579082235693,0.07654225553846918
1772555514605947100,7.460947021484375,0.02940788079202175,-0.07188698621168732,0.08857209048755467
1772555514615879200,7.470879150390625,0.014571546187996864,-0.07394143452346325,0.11732711512772366
1772555514625811000,7.48081103515625,-0.017819149807095525,-0.06803893248140812,0.1482226863273885
1772555514635743000,7.490742919921875,-0.052366147053241725,-0.06294716230034827,0.16082347129853442
1772555514645675000,7.500675048828125,-0.07022270626127719,-0.04931421213671565,0.15160873030279762
1772555514655606000,7.51060595703125,-0.04320318191051483,-0.04036708170175552,0.12140888628233223
1772555514665538000,7.5205380859375,-0.04964812026619911,-0.04263765698224306,0.07646444106190466
1772555514675469800,7.5304697265625,-0.019493220499157905,-0.00750131554082036,0.027577925418503582
1772555514685401900,7.54040185546875,-0.01466974586546421,0.01464753403365612,-0.007766387084638699
1772555514695334000,7.550333984375,-0.005075988090038299,0.0364554612159729,-0.020742425975808873
1772555514705265200,7.56026513671875,-0.0019125556230545043,0.04802154197767377,-0.02639842417719774
1772555514715197000,7.570197021484375,-0.031496962025761605,0.04612666814178228,0.0023186887385323643
1772555514725129000,7.58012890625,-0.04776595978140831,0.0322159239500761,0.013226378656737505
1772555514735061000,7.59006103515625,-0.046610944527387614,0.03710369599163532,0.008034189441660419
1772555514744993000,7.599992919921875,-0.01445055015683174,0.06355404215231537,0.015259921177802607
1772555514754924000,7.609924072265625,0.03761339907944202,0.06503902001306414,-0.0005352485210169106
1772555514764855800,7.619855712890625,0.05193944607377052,0.04768734158724546,-0.044188978077471255
1772555514774787800,7.629787841796875,0.05607435392141342,0.043727790306508536,-0.05592044200133532
1772555514784720000,7.639719970703125,0.04130699290037155,0.06256196237504481,-0.05252048823158256
1772555514794652000,7.64965185546875,0.024627076256275176,0.07530147083029151,-0.032682080157101154
1772555514804583200,7.659583251953125,0.01900923637449741,0.05458689184263348,-0.021158112370921297
1772555514814515000,7.669514892578125,0.029684359645843504,0.022603169213235377,-0.010321935052657499
1772555514824447000,7.679447021484375,0.03743044372797012,-0.0014475684598088264,0.008134836804540828
1772555514834379000,7.68937890625,0.03529810787439346,-0.0070811904326081275,0.03165033508972265
1772555514844311000,7.69931103515625,0.016290040543675423,-0.027977117336541412,0.05077893266072497
1772555514854241800,7.70924169921875,0.0008498948276042938,-0.04578793770670891,0.06869662920515984
1772555514864173800,7.719173828125,-0.012031214055418968,-0.0554815025947988,0.07249229516107589
1772555514874105900,7.72910595703125,-0.002561374920606613,-0.057273500578105443,0.07366711109410971
1772555514884038000,7.739037841796875,-0.011734276935458183,-0.08651011645644903,0.07950719715813175
1772555514893970000,7.748969970703125,-0.03783610191941261,-0.09648790511339903,0.06403665630379692
1772555514903901000,7.75890087890625,-0.059059507212042804,-0.08126563993170857,0.05701921528978273
1772555514913833000,7.7688330078125,-0.05684592281579971,-0.07831877282485365,0.07533930035633966
1772555514923765000,7.778764892578125,-0.051821957173943514,-0.06890490166097879,0.06087484953831881
1772555514933697000,7.788697021484375,-0.030738837134838104,-0.07258899700120092,0.04508947058115154
1772555514943629000,7.798629150390625,-0.023240005812048912,-0.06857070127055048,0.04060861710635945
1772555514953561000,7.80856103515625,-0.032923779958486554,-0.03645224634557962,0.022721096504479645
1772555514963491800,7.818491943359375,-0.05307575662732124,-0.018026801208406686,0.004070701771322637
1772555514973423900,7.828423828125,-0.09636837038695811,-0.010860270579904317,-0.004819949236046522
1772555514983356000,7.83835595703125,-0.09691782096326351,0.01270166066288948,0.016909268420562146
1772555514993288000,7.848287841796875,-0.11072188991010189,-0.003333966728299856,0.03296745470343158
1772555515003220000,7.858219970703125,-0.06695815150737762,-0.014711831441521644,0.06344455389585346
1772555515013151000,7.86815087890625,-0.028513562300801275,-0.01806099573895335,0.07576580040641129
1772555515023083000,7.8780830078125,0.010276479342579841,-0.03926861894056201,0.07895895215822384
1772555515033015000,7.88801513671875,0.03315758871436119,-0.02278100999817252,0.07583090153187513
1772555515042947000,7.897947021484375,0.03993687359094619,-0.024414018027484417,0.06681834117788821
1772555515052878800,7.90787890625,0.021422142735123634,-0.025851211223751305,0.034866548056714235
1772555515062809900,7.917809814453125,-0.013816928428411483,0.0009203297153115272,-0.0019234606095589696
1772555515072742000,7.927741943359375,-0.06026537587046623,0.020243308214098213,-0.038103849477507175
1772555515082674000,7.937673828125,-0.07937748809754848,0.029342414340376852,-0.019873707716725766
1772555515092606000,7.94760595703125,-0.08978022416830063,0.03334638928472996,0.001156860151235014
1772555515102538000,7.9575380859375,-0.0859118583023548,0.027139351338148116,0.01812215134166181
1772555515112469000,7.967468994140625,-0.06096680213809013,0.017950374971330164,0.02424810514235869
1772555515122401000,7.977401123046875,-0.02841185549199581,0.0237327577650547,0.01667476554494351
1772555515132333000,7.9873330078125,-0.018752046743035315,0.019299013101309537,0.00005536518273875117
1772555515142264800,7.997264892578125,0.025752865415811538,0.0212058696359396,-0.01509167933827266
1772555515152196900,8.00719677734375,0.057635611888766286,0.023868074582517145,-0.020711345850955694
1772555515162128000,8.0171279296875,0.044237785655260084,0.03855214123427868,-0.03787455249996856
1772555515172060000,8.027059814453125,0.0441238038867712,0.05222425436452031,-0.04569770213998854
1772555515181992000,8.036991943359375,0.04096387855112552,0.045499622284621,-0.08216200424954295
1772555515191924000,8.046924072265625,0.034818215402960775,0.05094722016602754,-0.11613989637084304
1772555515201856000,8.05685595703125,0.008282675176858902,0.06373743589520454,-0.1221857158737257
1772555515211788000,8.0667880859375,-0.0013625205248594284,0.07512246100157499,-0.1305836879933253
1772555515221719000,8.076718994140625,0.006834229934215545,0.06711743372231721,-0.14082279446758328
1772555515231651000,8.086651123046876,0.011894435933232307,0.05665551481023431,-0.13985555687062443
1772555515241582800,8.096582763671876,0.015270049846172333,0.05613309837132692,-0.1337743007281795
1772555515251515000,8.106514892578126,0.03577741582393646,0.07534019540548324,-0.12063417558278888
1772555515261447000,8.116447021484374,0.05877133792042732,0.0783710875339806,-0.08348675004728139
1772555515271378000,8.1263779296875,0.055880292654037475,0.054661856774985786,-0.06673734836354851
1772555515281310000,8.13631005859375,0.03039864539504051,0.035125235525518654,-0.06517272939532995
1772555515291242000,8.146241943359374,0.021276012262701986,0.040769963414221996,-0.06887947495877743
1772555515301174000,8.156174072265625,0.0041167876690626146,0.052907706584036346,-0.05548212364930659
1772555515311106000,8.16610595703125,0.020783844831585883,0.0498499264486134,-0.04926204355806112
1772555515321037000,8.176037109375,0.019323124629259107,0.03140723791569471,-0.023847762446850537
1772555515330968800,8.18596875,0.0014426000237464905,-0.004810030630230903,-0.012070121293701231
1772555515340900900,8.19590087890625,-0.0508031355202198,-0.02682385564818978,0.029446459236741065
1772555515350833000,8.2058330078125,-0.05307809471487999,-0.014218787227571009,0.05380604366324842
1772555515360765000,8.215764892578125,-0.021582886254787444,-0.021708266200125215,0.026562026374228297
1772555515370696200,8.2256962890625,0.021053309422731398,-0.017285773582756517,0.024885763725079595
1772555515380628000,8.2356279296875,0.0419669181138277,-0.016483078897744415,0.04607197881247848
1772555515390560000,8.24556005859375,0.059279871964454646,-0.038678690223395824,0.06123988345842808
1772555515400492000,8.255491943359376,0.031140403673052788,-0.047912967036664485,0.10938348091319203
1772555515410424000,8.265424072265626,0.018300795844197273,-0.053729398230463264,0.1607434100659564
1772555515420354800,8.275354736328126,0.023608839124441144,-0.06704612205177544,0.14375833646282551
1772555515430286800,8.285286865234376,0.033736265385150906,-0.048476738399267194,0.11881832179985939
1772555515440219000,8.295218994140624,0.0792547385007143,-0.01798734598085284,0.1310347562290728
1772555515450151000,8.30515087890625,0.13167933774292467,-0.016692483864724637,0.08702065979447215
1772555515460083000,8.3150830078125,0.16025135223269463,-0.005489537326991558,0.024611476828344164
1772555515470014000,8.325013916015624,0.21579437575638294,0.03436842580884695,0.007816007513180375
1772555515479946000,8.334946044921875,0.325553558114171,0.07144859479442238,-0.03564217207171023
1772555515489877800,8.344877685546875,0.35509646346271034,0.044850510726124046,-0.014374416180700064
1772555515499809800,8.354809814453125,0.16742752747237682,-0.13359291627928613,0.030842553237639365
1772555515509741800,8.364741943359375,0.09030746291279793,-0.24401816133037207,0.015620653382129967
1772555515519672600,8.374672607421875,0.042947161322832106,-0.15142214908897875,0.1459548235937953
1772555515529604600,8.3846044921875,-0.20546002874672412,-0.05949775249883532,0.2695894961668178
