time,seconds_elapsed,z,y,x
1772556146451909600,0.07090966796875,1.9116431843847035,1.0764654489189385,-0.010515694925934075
1772556146461840600,0.080840576171875,1.9368641348809004,0.982520506286621,0.053020227047801016
1772556146471771600,0.090771728515625,2.0339947218120096,1.0293792880952357,0.29621830416694284
1772556146481702700,0.10070263671875,2.102460355272889,1.0969862589001655,0.35259660947099325
1772556146491633700,0.110633544921875,2.083278100419044,1.071537344866991,-0.08441212126389146
1772556146501564700,0.120564697265625,1.767964196768403,0.8765133699387312,-0.8755620605632662
1772556146511496400,0.130496337890625,1.2958885365664958,0.363793564659357,-1.7872599949993193
1772556146521427700,0.140427734375,0.9150380386441945,-0.15744740072786806,-2.537496909151971
1772556146531358700,0.150358642578125,0.4936766666352749,-0.6442845767319202,-3.077347590202093
1772556146541289500,0.16028955078125,-0.19082769228219984,-1.111457851845026,-3.264528450414538
1772556146551220700,0.170220703125,-1.0349527043133973,-1.3509499140530823,-2.963530072364211
1772556146561151700,0.18015185546875,-1.9938532655596732,-1.4656979907393455,-2.6001602860748765
1772556146571082500,0.19008251953125,-3.330346784237027,-1.6405530378639697,-2.2000338636659085
1772556146581013800,0.200013671875,-4.666105558899044,-1.6446838540583848,-1.6049254057742655
1772556146590945800,0.20994580078125,-5.731524128624796,-1.5316975263476371,-1.0347811471387742
1772556146600876500,0.21987646484375,-6.6948764085829255,-1.6417267578184604,-0.6675593615964055
1772556146610807600,0.2298076171875,-7.378151517966389,-1.7453350163310766,-0.2838252710618078
1772556146620738600,0.239738525390625,-7.562067238903045,-1.7643565276652573,-0.20936405044794082
1772556146630669600,0.249669677734375,-7.48600398992002,-1.883064740154147,-0.682386928372085
1772556146640600600,0.2596005859375,-7.560635744795203,-2.21445241124928,-1.1923422373741865
1772556146650531600,0.269531494140625,-7.513212314841151,-2.590795660880208,-1.166042551730573
1772556146660463600,0.279463623046875,-7.417055541378259,-2.692475581678748,-0.5198183852382003
1772556146670394600,0.28939453125,-7.2007777660191055,-2.817805842655897,0.4869546649038791
1772556146680325600,0.29932568359375,-6.106686644038557,-2.805436774948239,1.8108055596292019
1772556146690256600,0.309256591796875,-4.751759058526158,-2.8014754701018334,2.5751509325027464
1772556146700187600,0.319187744140625,-3.3851316828697917,-2.9514158562004567,2.831144047656655
1772556146710118700,0.32911865234375,-1.8112345986962317,-2.4066665894538164,3.0476877804756164
1772556146720049700,0.339049560546875,-0.5182260014802217,-1.1981558920890092,3.340626186189055
1772556146729980700,0.348980712890625,0.6457073030114173,-0.15223346547186373,3.193257404144108
1772556146739911700,0.35891162109375,2.17342131268084,0.23141396969258785,2.654554724085331
1772556146749843700,0.36884375,3.2753187244981525,-0.3863438346415758,1.4262227433107793
1772556146759774700,0.378774658203125,3.906208397606015,-1.718980093368888,-0.8928542638868093
1772556146769705500,0.38870556640625,3.2641981955468653,-1.938621207681298,-3.7193127840757367
1772556146779636700,0.39863671875,2.0937410422444342,1.6185639088958501,-1.5503881982922554
1772556146789567700,0.408567626953125,1.5898948637723922,4.001031292116641,0.4788423778578639
1772556146799498500,0.41849853515625,1.363957279664278,3.850821441426873,0.16412863205745815
1772556146809429800,0.4284296875,1.5178437730401753,3.8768557541325688,0.2664467046290636
1772556146819360800,0.43836083984375,1.8877987829387186,4.118903346042335,0.7732341972500085
1772556146829292500,0.44829248046875,2.4804683232456446,4.147710630592703,1.0555582699686288
1772556146839223600,0.4582236328125,3.344035117849707,4.279094200259447,1.206550795468688
1772556146849154800,0.46815478515625,4.151524051401019,4.3949058145239945,1.4888742836654185
1772556146859085600,0.47808544921875,5.371242956000566,4.3056852700650685,0.9984995811849832
1772556146869016600,0.4880166015625,6.430191452929377,4.840792848241329,0.8475297059081495
1772556146878947800,0.49794775390625,7.086983044534922,5.337398554065823,0.8696230259031057
1772556146888878600,0.507878662109375,7.451547009044885,5.429427433943748,0.4756649168655276
1772556146898809600,0.5178095703125,7.774013122537732,5.538351334521174,0.14331176173910498
1772556146908741600,0.52774169921875,7.919328186923265,5.553301066371798,-0.1357308050908148
1772556146918672600,0.537672607421875,7.983480048838257,5.3687406177908175,-0.4891355160742998
1772556146928603600,0.547603759765625,8.138122913539409,5.1806058178544045,-0.4070144283570349
1772556146938534700,0.55753466796875,8.268585276708006,4.804983868235349,-0.0638762598440051
1772556146948465700,0.567465576171875,8.179066333824396,4.451706144632399,0.20180399045720696
1772556146958396700,0.577396728515625,7.554942501589656,4.265573332168161,0.3854493700198829
1772556146968327400,0.587327392578125,6.882638868075609,4.137928364507854,0.6612834961973131
1772556146978259500,0.597259521484375,6.581168196338415,3.777297355532646,0.2412221008710563
1772556146988190700,0.607190673828125,6.2314335521698,2.855164390191436,-1.1879418104581534
1772556146998121700,0.617121826171875,5.804592287445068,2.138893020135164,-2.338821425978839
1772556147008052500,0.627052490234375,5.176815777921676,1.1314219047263263,-3.2754122480005026
1772556147017983700,0.636983642578125,4.484744783142209,-0.41112405563294885,-3.706835579818487
1772556147027914500,0.64691455078125,3.8691795204162593,-1.7496154701292514,-2.65987153519392
1772556147037845500,0.656845458984375,2.3413556206315755,-2.990749795462191,-0.4724697740860283
1772556147047776800,0.66677685546875,-0.4499228651046753,-4.58434351375252,1.2416671170353888
1772556147057708800,0.676708740234375,-3.24317118960917,-5.440460284611582,2.2173326428607103
1772556147067639600,0.6866396484375,-5.602528915399312,-5.360453266438841,2.4035388128221036
1772556147077570600,0.696570556640625,-7.380079271158576,-5.16696190790534,1.5522396713778375
1772556147087501600,0.70650146484375,-8.967195317867398,-5.048270646551251,0.1622677335564047
1772556147097432600,0.7164326171875,-11.433900488698482,-4.996468563121557,-0.6200524911426007
1772556147107363600,0.726363525390625,-14.983504356366396,-4.397844790585339,0.15552669833097607
1772556147117294600,0.736294677734375,-18.72297963850498,-3.7889135590463874,1.4984762247473
1772556147127225600,0.7462255859375,-20.987669952607153,-3.7750095368564125,1.9780226592212915
1772556147137157600,0.75615771484375,-21.32496480191946,-4.266862495195865,1.7996955520719289
1772556147147088600,0.766088623046875,-20.135684874725342,-4.9947623437255615,1.3445619665816426
1772556147157019600,0.77601953125,-17.66498332773447,-5.370847819203138,0.7452955122277141
1772556147166950700,0.78595068359375,-14.726100789892673,-5.872374614816904,0.002520385323092341
1772556147176881700,0.795881591796875,-11.907867077213526,-6.349787544393539,-0.3624010873876512
1772556147186812700,0.805812744140625,-9.775060098993778,-6.572481032013893,-0.3711922966085374
1772556147196743700,0.81574365234375,-8.405939737477897,-6.431386215671896,-0.23061872766166924
1772556147206674700,0.8256748046875,-7.313744219985604,-5.998056173449754,0.2252666808429174
1772556147216606700,0.835606689453125,-6.038327393561601,-5.077520706433058,0.8868227286376058
1772556147226537700,0.845537841796875,-4.472611277756094,-3.516155479313433,1.6190782881587742
1772556147236468500,0.855468505859375,-2.9137913512051106,-1.9583838927716015,2.435980216091126
1772556147246399700,0.865399658203125,-1.7586323047995567,-0.7623106521755456,3.0878894424825907
1772556147256330800,0.875330810546875,-0.6930132440656424,-0.07078092466592788,1.814001725322008
1772556147266261500,0.885261474609375,0.8301601995646953,0.8584525203302502,0.8162808734245598
1772556147276192800,0.89519287109375,2.3600743496268985,2.082107887595892,-0.3389964655984193
1772556147286123500,0.90512353515625,3.8874867460012434,3.416193468348682,-1.3042040910996495
1772556147296055600,0.9150556640625,5.185065719872712,4.7896562429830425,-1.8200626327961682
1772556147305986600,0.924986572265625,5.979108896395564,5.909599306839704,-2.0441051969379185
1772556147315917800,0.934917724609375,6.46705724851191,6.964803941065073,-1.8175692085452377
1772556147325848600,0.9448486328125,6.920846141394972,7.868027038753032,-1.6592847724713384
1772556147335779600,0.954779541015625,7.663885106867552,8.32863145686984,-1.758426553094387
1772556147345710600,0.964710693359375,8.530361651438474,8.705182796293496,-1.6463833514526485
1772556147355641600,0.9746416015625,9.113085551792382,8.91870279737711,-1.7103066653087735
1772556147365572600,0.984572509765625,9.5175180008322,9.059716365176438,-1.9912654410235582
1772556147375504600,0.994504638671875,9.98548447214961,9.468661907726526,-1.7250263877958059
1772556147385435600,1.004435546875,10.483362682127952,9.848002585607766,-1.172938594854623
1772556147395366700,1.01436669921875,11.123947235298155,9.951496862351894,-1.034262237831205
1772556147405296600,1.024296630859375,12.004718847203254,10.05568321301341,-1.1313777002584189
1772556147415227600,1.0342275390625,12.830673996293545,9.889497794556616,-1.7005191385269165
1772556147425158700,1.04415869140625,13.274248953676222,9.083736123189329,-2.5598317828178403
1772556147435089700,1.054089599609375,13.56543554728627,8.063066795772313,-3.1678909076973794
1772556147445020700,1.064020751953125,13.507536316025256,7.362495683673024,-3.099539840526879
1772556147454952700,1.07395263671875,12.967774774563312,6.7867948138236995,-2.2670772092387077
1772556147464883500,1.083883544921875,11.815926460140943,6.1607192629992955,-0.3940320875892415
1772556147474814700,1.093814697265625,10.165938069933652,5.026856102600694,1.9924571350261568
1772556147484745700,1.103745849609375,8.408374271148443,3.189306912952661,3.974980612798035
1772556147494676500,1.113676513671875,6.937119815325737,1.4396698155134915,5.356767271402478
1772556147504607700,1.123607666015625,5.804387704783678,-0.32974048840999604,5.821442884480953
1772556147514538800,1.133538818359375,4.107214954075217,-2.309776825541258,5.540387808784843
1772556147524470500,1.143470458984375,2.6061171486526726,-4.281642715698481,4.879648940858244
1772556147534401500,1.153401611328125,1.9599083258599042,-4.5997222846701735,5.043005857890844
1772556147544332800,1.163332763671875,0.2706920871138572,-4.98372481688261,4.824921617631614
1772556147554263600,1.173263671875,-2.013693692061305,-5.94804506509006,4.242379795846343
1772556147564194600,1.183194580078125,-4.667825222298503,-6.558401068735122,4.105934851136803
1772556147574125800,1.193125732421875,-7.796222616258263,-6.883008285909891,4.57932656237334
1772556147584056600,1.203056640625,-11.374712971192597,-7.2812734444916245,5.448920654442906
1772556147593987600,1.212987548828125,-14.54478794493079,-6.988477662119269,5.7429059388607735
1772556147603918600,1.222918701171875,-16.680218257391452,-6.662426091355085,5.760894015493989
1772556147613850600,1.2328505859375,-17.849680554437636,-6.211731657356023,5.891133675822616
1772556147623781600,1.24278173828125,-18.574840748870372,-5.541011493641138,5.70404633911252
1772556147633713000,1.252712890625,-19.03203272819519,-4.795702537409961,5.309230444201827
1772556147643643600,1.2626435546875,-19.07044984487295,-4.113049943839013,4.572423066595197
1772556147653574700,1.27257470703125,-17.87804038748145,-3.5547841929152604,3.3731627203956243
1772556147663505700,1.282505615234375,-15.392674355322121,-3.232447258760035,1.9326545543618499
1772556147673436700,1.292436767578125,-12.709260616499185,-3.131049662034213,0.3394245182847604
1772556147683368700,1.30236865234375,-10.67206739090681,-3.204602389501035,-1.2523042463839054
1772556147693299700,1.3122998046875,-9.338526292294263,-2.9719068555653094,-2.294317098341882
1772556147703230700,1.322230712890625,-8.408039340105653,-2.1905174089103934,-2.3669547567903995
1772556147713161700,1.33216162109375,-7.573315193626284,-0.937241979406774,-1.67935389316231
1772556147723092500,1.342092529296875,-6.449174970340728,0.7268658293068408,-1.1863517647877335
1772556147733023700,1.352023681640625,-4.8774721813410515,2.2580434234336018,-1.746068883563578
1772556147742954800,1.361954833984375,-2.9447938077121973,3.316480463708937,-2.6632106164887546
1772556147752885500,1.371885498046875,-0.781601628100872,3.940129079647362,-3.3187206438511607
1772556147762817500,1.381817626953125,1.566856518012285,4.125576832456886,-3.415844216519594
1772556147772748800,1.391748779296875,3.8071249230414628,4.012479737848043,-2.891643232282996
1772556147782679600,1.401679443359375,5.6953638509631155,3.994719917012751,-2.263183416670561
1772556147792610600,1.411610595703125,7.100316573360562,4.204644816213846,-1.7219681692689657
1772556147802541800,1.421541748046875,8.235538162630796,4.719120817510784,-1.2079739601396025
1772556147812472600,1.43147265625,9.506639463943243,5.432865007176995,-0.709834322746098
1772556147822403600,1.441403564453125,10.506984380733966,5.8417351464033125,-0.4649896474637091
1772556147832334800,1.4513349609375,11.062948868978022,5.828005896258354,-0.238838274474442
1772556147842266600,1.4612666015625,11.36825634239912,5.585573688945174,0.03336801659464836
1772556147852197600,1.47119775390625,11.644155350506304,5.201588984650373,0.41722690255269407
1772556147862128600,1.481128662109375,11.7145867310822,4.611005895228684,1.0769520633921026
1772556147872059600,1.4910595703125,11.682930194580555,3.968533336354792,1.5938804262772202
1772556147881990700,1.50099072265625,11.665997764480114,3.7076314063712954,1.1958914542883634
1772556147891921700,1.510921630859375,11.22739124315977,3.406170379245281,0.988856869701296
1772556147901852700,1.520852783203125,10.552469536101817,2.7856185602784156,1.0867983346238732
1772556147911783700,1.53078369140625,9.849137727117538,2.127203459124267,1.2658709994435309
1772556147921715700,1.5407158203125,9.093984545481204,1.6777584406644106,1.3804168315559624
1772556147931646500,1.550646484375,8.318518059134483,1.2187816237494349,1.6214758508197962
1772556147941577700,1.56057763671875,7.717147910499572,0.6998556573063135,1.9633358160905539
1772556147951508700,1.5705087890625,7.093710891485213,0.43233167883455753,2.2800020111329853
1772556147961439500,1.580439453125,6.230449217307568,0.3069289371430874,2.5709581569880244
1772556147971370800,1.590370849609375,5.20634991544187,0.03550502862334251,2.5963947960615155
1772556147981301800,1.6003017578125,4.174846474799514,-0.4812034079007804,2.265503822442144
1772556147991232500,1.610232421875,3.3673896899521347,-1.0839354925386606,1.7610228531979024
1772556148001163800,1.620163818359375,2.728677360394597,-1.8429051637232303,1.0435163153234868
1772556148011095800,1.630095703125,2.2697896830677986,-2.9193747042953966,0.595865705999732
1772556148021026600,1.640026611328125,2.278986550480127,-3.8623254167377947,0.9672960491478443
1772556148030957800,1.649957763671875,2.7283874375373123,-4.80520598655343,1.6280299486383796
1772556148040888600,1.659888671875,2.8357594324976203,-5.969483574438095,1.8767348064802587
1772556148050819600,1.669819580078125,1.67505502692461,-6.934161550042033,2.140142289543897
1772556148060750800,1.679750732421875,-1.8800445155501364,-7.902781541270017,2.736888723900914
1772556148070681600,1.689681640625,-7.740265166714787,-8.974694733712077,3.8976340460062024
1772556148080613600,1.699613525390625,-13.128527646577357,-8.496997141975164,6.179982766395807
1772556148090544600,1.709544677734375,-15.864727219170332,-6.026646308118105,7.719523407459259
1772556148100475600,1.7194755859375,-16.54887151260376,-3.1717142653778194,6.85630323433578
1772556148110406700,1.72940673828125,-16.996961317062375,-1.435226572369039,4.597236605334282
1772556148120337700,1.739337646484375,-18.188221604418754,-0.4801509762383997,2.855122012354433
1772556148130268700,1.7492685546875,-19.962764595055578,0.24160379366502163,1.9837515582621097
1772556148140199700,1.75919970703125,-21.34382147808075,0.5467096800994128,1.2265461202710866
1772556148150130700,1.769130615234375,-21.65294237231016,0.8134755336802453,0.6693756172381341
1772556148160061700,1.779061767578125,-20.753938353621958,1.4561395965382455,0.7833200493913144
1772556148169993700,1.78899365234375,-19.015135369408128,1.7857574814818797,0.8139624404143542
1772556148179924700,1.7989248046875,-16.662154192912578,1.5637033146783708,0.17337796030938624
1772556148189855500,1.80885546875,-13.734078295767306,1.0319641900219023,-0.7101660389184952
1772556148199786800,1.818786865234375,-10.498315921109914,0.34019656210318205,-1.4249679209440946
1772556148209717800,1.8287177734375,-7.530770183363557,0.03611643851995468,-1.6335758923277257
1772556148219648500,1.8386484375,-5.05778315578401,0.27249007644653317,-1.5156357416018842
1772556148229579800,1.848579833984375,-2.924220975282788,1.1617357944473623,-1.3498010362789035
1772556148239510800,1.8585107421875,-1.0190046090751885,2.472778353264928,-1.486015971624851
1772556148249442600,1.868442626953125,0.7721867340236902,3.9381510575726626,-2.1290879576966164
1772556148259373600,1.87837353515625,2.3157845415234566,5.0776954784780735,-3.5384435912281273
1772556148269304800,1.888304931640625,3.573362928918004,5.665055806460976,-5.214368386724591
1772556148279235600,1.898235595703125,4.714967497223616,5.881862574130296,-6.429598747733235
1772556148289166600,1.90816650390625,5.932246607455611,6.048437284165621,-6.9505088737308975
1772556148299097900,1.918097900390625,7.188142156329751,6.281002177459001,-6.808347889462113
1772556148309028600,1.928028564453125,8.287050323203205,6.6787365901649,-6.1108671445935965
1772556148318959600,1.937959716796875,9.11747414214015,7.066752741932868,-5.049899124535918
1772556148328891600,1.9478916015625,9.592055063161254,7.367595637160539,-3.676563191151619
1772556148338822700,1.95782275390625,9.815531225591897,7.5559665839403864,-2.0839608219861985
1772556148348753700,1.967753662109375,10.179587825101613,7.641366401067375,-0.5762915292188525
1772556148358684700,1.9776845703125,10.823780047374964,7.617966820779443,0.7425276549495756
1772556148368615700,1.98761572265625,11.703217780327796,7.439843711769581,1.8540977349974215
1772556148378546700,1.997546630859375,12.563774287199973,7.162981411588191,2.4181617969363924
1772556148388477400,2.0074775390625,13.203729894816874,6.8081871459424494,2.473171736496687
1772556148398409000,2.017408935546875,13.626056312465668,6.312382235106825,2.2792962009511886
1772556148408341000,2.027341064453125,13.792967707109451,5.748926514324546,2.0283390341378746
1772556148418271700,2.037271728515625,13.65982531107664,5.202400885555148,1.7127485055029392
1772556148428202800,2.04720263671875,13.26647715063095,4.7423356888815755,1.5555563947103916
1772556148438134000,2.057134033203125,12.62215399545431,4.380977534675598,1.7905926465533673
1772556148448064800,2.067064697265625,11.908020221948624,3.9015558956250547,1.932026923982799
1772556148457995800,2.076995849609375,11.06873563568592,3.3742800339877603,1.887188249824941
1772556148467927000,2.086927001953125,10.113596472799777,2.8408886120796204,1.7153791462674737
1772556148477857800,2.09685791015625,9.018414048451184,2.393808276924491,1.9314272045239804
1772556148487789800,2.106789794921875,7.893050420850515,1.9053186575382948,2.753992418915033
1772556148497720800,2.116720947265625,6.898541955128311,0.9890373408347367,3.3897102428317067
1772556148507651800,2.12665185546875,6.175134741842746,-0.5401987638354301,3.2749183270037174
1772556148517582800,2.136582763671875,5.717010450103879,-2.1493439792618156,3.010324849025905
1772556148527513900,2.146513916015625,4.563197557610273,-3.3589605920419094,3.245608645889163
1772556148537444900,2.15644482421875,1.9821464611530302,-4.401662010785937,4.002333314625918
1772556148547375900,2.1663759765625,-1.334885498958826,-5.410467881929874,4.887430096253753
1772556148557307000,2.176306884765625,-4.4650645156383515,-5.822407930120826,5.916206742280721
1772556148567239000,2.186239013671875,-7.673762942281365,-5.934938915279507,6.810251677256822
1772556148577170000,2.196169921875,-11.219025565874576,-6.335774801132082,6.763740101450681
1772556148587101000,2.206100830078125,-14.785768784391879,-6.480702327504754,6.272512581533193
1772556148597032000,2.216031982421875,-18.170881178039313,-5.228321508753299,6.253298177975416
1772556148606963000,2.225962890625,-21.09485723865032,-2.7125194217979907,6.1572542172372335
1772556148616893700,2.235893798828125,-23.406126933097838,-1.4911460279896855,4.12609121171981
1772556148626825000,2.245824951171875,-24.7264730345726,-1.5225649563431738,1.11723175907135
1772556148636756000,2.255755859375,-25.410786839354035,-1.3027261275015771,-0.4946071524184197
1772556148646686700,2.265686767578125,-25.796475424957276,-1.6960760415129363,-0.5689579714603722
1772556148656618800,2.27561865234375,-24.996928974843023,-2.277815753135085,0.2899989912606776
1772556148666550000,2.285550048828125,-22.531925347232818,-2.6389211016237732,0.7373043673433363
1772556148676480800,2.295480712890625,-18.513332679462433,-3.354382616601884,0.031051191019639372
1772556148686411800,2.305411865234375,-13.285296417391299,-4.512823461157083,-1.7596952578559517
1772556148696343000,2.315343017578125,-8.15363846257925,-5.5749207775056355,-4.411416219820082
1772556148706273800,2.325273681640625,-5.233696187528968,-6.240212486431003,-6.674585315704345
1772556148716204800,2.335204833984375,-5.041410113132,-6.148563545781373,-7.099656063625216
1772556148726136000,2.345135986328125,-6.633277738282084,-5.294800936833024,-5.595004949635267
1772556148736067800,2.35506787109375,-8.203091937056183,-4.210243366873264,-3.2002111688047647
1772556148745998800,2.364998779296875,-7.813532647499442,-3.0836902372270822,-1.614702703423053
1772556148755929900,2.374929931640625,-5.5101849782228465,-2.2975503811746836,-0.9591797435138374
1772556148765860900,2.38486083984375,-2.5659283461272717,-1.621633525599539,-0.6852326731920242
1772556148775791900,2.3947919921875,0.41229134584665295,-0.7880455435432493,-0.8351914717301726
1772556148785723000,2.404722900390625,3.279155526182055,0.2827411290869117,-0.8533862499166279
1772556148795654000,2.41465380859375,5.644381267222761,1.7477336019054055,-0.35292730273008344
1772556148805585000,2.4245849609375,7.259043492504954,3.391774481885135,0.03143032196376007
1772556148815517000,2.434516845703125,7.814034167280793,5.033507961705327,-0.07112520349237601
1772556148825447700,2.44444775390625,7.74816731814146,6.540003242257237,-0.9183061735946685
1772556148835379000,2.45437890625,7.801048428979516,7.710302574649453,-1.8680799369901417
1772556148845310000,2.46431005859375,8.260174006715417,8.534485453370213,-2.29743552262336
1772556148855240700,2.47424072265625,9.156988990926742,9.043343322524429,-2.2529576446019113
1772556148865172000,2.484171875,10.380410841697454,9.471728309559822,-1.586220851434767
1772556148875102700,2.494102783203125,11.306979743659495,9.744649763160943,-0.7730340715680271
1772556148885033700,2.50403369140625,11.569759742474556,9.312454277926683,-0.3115440297231078
1772556148894965800,2.5139658203125,11.448121906274556,8.351364682203531,-0.30373503647260364
1772556148904897000,2.52389697265625,11.146661755931376,7.718996168714761,-0.5754468950882554
1772556148914827800,2.533827880859375,10.703853691267966,7.638107107010483,-0.926298998979479
1772556148924758800,2.5437587890625,10.042434439861774,7.644621018949151,-1.3668188065752387
1772556148934689800,2.553689697265625,9.10913710642755,7.241756257617473,-1.9674851908549664
1772556148944620800,2.563620849609375,8.004028915870188,6.573695668500662,-2.4565549482166764
1772556148954551800,2.5735517578125,7.089668922618031,5.9787646130025385,-2.5505706179976464
1772556148964482800,2.58348291015625,6.648146221590042,5.795666638189554,-1.9211853581033647
1772556148974413800,2.593413818359375,6.453819581276178,5.5617561755061145,-1.1331405452124774
1772556148984345900,2.603345947265625,6.459721498796344,5.021162274873256,-0.43207799633443356
1772556148994276900,2.61327685546875,7.1399781371414655,4.476438142567873,0.2964753476679325
1772556149004207900,2.623207763671875,8.099018983641267,3.858665725186467,1.0019462145075202
1772556149014139000,2.633138916015625,8.199860115528105,2.8281401896655556,1.6794043081752954
1772556149024070000,2.64306982421875,7.915303169190883,1.6747731412433087,1.8431867571435867
1772556149034001000,2.6530009765625,7.691009260636568,0.6543311928413807,1.5359320951774715
1772556149043932000,2.662931884765625,7.6997987162917845,-0.6629436844944954,1.6909209968373178
1772556149053863000,2.67286279296875,7.551330156311392,-1.8781421890601515,3.626293139594793
1772556149063795000,2.682794921875,6.8291732353478665,-3.5746713811680673,5.651292069524526
1772556149073726000,2.692725830078125,5.136067587947845,-5.8244204389870164,5.804788686800003
1772556149083656700,2.70265673828125,2.505266079893708,-7.201650457200407,4.40156322658658
1772556149093588000,2.712587890625,-1.0019599507719277,-7.254644965285062,1.8922274130359291
1772556149103519000,2.72251904296875,-4.607897700080275,-6.881956146508455,-0.7366217919066548
1772556149113449700,2.73244970703125,-8.051870278975366,-6.430808123522996,-1.6718180908299982
1772556149123381000,2.742381103515625,-11.60988600115776,-6.0976668867588035,-1.3303668524906038
1772556149133312000,2.75231201171875,-14.831644400382041,-5.658443110322952,-1.0267618721384555
1772556149143243800,2.762243896484375,-17.08130782574415,-4.890176472352445,-0.6135615216881036
1772556149153174800,2.7721748046875,-18.482409133410453,-4.4313989774018525,-0.13339330205395816
1772556149163106000,2.78210595703125,-19.585203201806543,-4.482790726464986,0.44599166313558813
1772556149173036800,2.792036865234375,-20.95160261392593,-4.8531420422047375,-0.04076156091205776
1772556149182967800,2.8019677734375,-21.9930803360939,-5.4176884808331724,-1.9698130492806434
1772556149192899000,2.811899169921875,-21.64232979288101,-5.834369001549482,-4.163909777982533
1772556149202829800,2.821829833984375,-19.545883583331108,-5.795308910793065,-5.235081504407525
1772556149212760800,2.8317607421875,-16.712230183202028,-5.486294984069466,-5.2618122749447815
1772556149222692900,2.84169287109375,-13.963512489819525,-4.951301972183585,-4.7680564055934544
1772556149232623900,2.851623779296875,-11.296864007836579,-4.209195319125056,-3.8838849221169944
1772556149242555000,2.861554931640625,-8.446465809133649,-3.4371883255824445,-2.753441214773059
1772556149252486000,2.87148583984375,-5.589687554004788,-2.658127906396985,-1.7931440846018492
1772556149262417000,2.8814169921875,-3.074661712118983,-1.6388373199872672,-1.1816111461319028
1772556149272348000,2.891347900390625,-1.0292425099730491,-0.4452528274670243,-0.8265675819002092
1772556149282278700,2.901278564453125,0.7349187873810529,0.5641854963615537,-0.6762664727304131
1772556149292210000,2.9112099609375,2.2969687818944453,1.4686109555765985,-0.6109401602085679
1772556149302142000,2.921141845703125,3.8021068026185034,2.3525994837015864,-0.45024610570967194
1772556149312073000,2.931072998046875,5.223517323341965,3.2600591960459946,-0.1932266431827098
1772556149322004000,2.94100390625,6.442173567146062,4.072209691667556,0.11910203411206602
1772556149331935000,2.95093505859375,7.401319627586006,4.654979184728861,0.4468149622172117
1772556149341865700,2.96086572265625,8.00145409694612,4.908202250647545,0.7195586480986327
1772556149351797000,2.970796875,8.364916822215914,4.8650177734375,1.0870559626467526
1772556149361728000,2.98072802734375,8.726730026713014,4.6892874047830695,1.6315638218529522
1772556149371658800,2.99065869140625,9.23381270288825,4.603521969214081,2.1891982891358435
1772556149381590000,3.000590087890625,9.964066421067715,4.52609824553281,2.5934815389633177
1772556149391522000,3.01052197265625,10.949352884936332,4.293842856580019,2.9999224052160978
1772556149401452800,3.020452880859375,12.047496497178077,3.921054084560275,3.423313821747899
1772556149411383800,3.0303837890625,12.95707334780693,3.542716446241736,3.528873214328289
1772556149421315000,3.040315185546875,13.51342128241062,3.169235015782714,3.2640374520272015
1772556149431245800,3.050245849609375,13.54186411756277,2.9991175185739993,2.802658542406559
1772556149441176800,3.0601767578125,12.873876009160279,3.0540190293237566,2.328796144918352
1772556149451108000,3.070108154296875,11.685513781332968,3.5241613833755254,2.1877103886656464
1772556149461039900,3.080039794921875,10.173470219004153,4.11316801726073,2.291240905766934
1772556149470971000,3.089970947265625,8.96883256368041,4.3332861014351245,2.327030012028664
1772556149480902000,3.09990185546875,8.315256426990032,4.5936716063290834,2.8767876084566115
1772556149490833000,3.1098330078125,8.039542127799987,5.406134236639738,3.8230712647140024
1772556149500764000,3.119763916015625,8.053927211505174,6.292339564031362,5.091415960794687
1772556149510695000,3.12969482421875,8.357896714320779,6.67819356932938,6.023182431399822
1772556149520626000,3.1396259765625,8.442150868543981,7.143777529424429,5.303562335437536
1772556149530557000,3.149556884765625,7.906806559002399,7.756230213087797,2.380137186707556
1772556149540487700,3.15948779296875,6.586424801692366,8.383273147639631,-1.4167393140420317
1772556149550419700,3.169419677734375,5.025554372352361,8.529172733914852,-4.846069911861419
1772556149560351000,3.17935107421875,3.551767767703533,7.8188664097428315,-7.245829206144809
1772556149570282000,3.189281982421875,2.372131282645464,6.037277592247724,-8.133783423030376
1772556149580212700,3.199212646484375,1.6400497645169496,3.596919745594263,-7.551764456075429
1772556149590144000,3.20914404296875,0.8453396485179662,0.4816987902022898,-6.692806032049655
1772556149600074800,3.21907470703125,-0.23385317953824997,-2.9874902091443536,-6.310893457853794
1772556149610005800,3.229005859375,-1.7882535360813139,-5.437127925318479,-4.7479444686740635
1772556149619937000,3.23893701171875,-4.324640730425715,-6.620539252740144,-1.6280517220787702
1772556149629867800,3.24886767578125,-7.854293696954846,-7.271689039066433,0.131835405087471
1772556149639799800,3.2587998046875,-11.533860746097565,-6.666589056253433,0.22134894114360212
1772556149649730800,3.268730712890625,-15.423458785164355,-4.451325036360323,0.5422852147206664
1772556149659661800,3.278661865234375,-19.72581344950199,-2.61629513605684,2.0446274672463534
1772556149669592800,3.2885927734375,-23.958486090326307,-1.6802292146921156,4.271915102410317
1772556149679523800,3.29852392578125,-27.680034086108208,-1.4547339675240218,4.941193835145235
1772556149689454800,3.308454833984375,-30.160871242666243,-0.4082678990168497,3.903780001415312
1772556149699385900,3.3183857421875,-31.393688698291776,0.32676870605759323,1.6160770605161785
1772556149709318000,3.32831787109375,-31.214495329701897,0.19960509217344224,-0.7207865824583918
1772556149719249000,3.338248779296875,-29.24522004055977,0.22614775626007466,-2.138964624066651
1772556149729180000,3.348179931640625,-25.506054555022715,0.20940160597935317,-2.6103663305297493
1772556149739111000,3.35811083984375,-20.434176822912693,0.09298559608086943,-2.6862013237148523
1772556149749042000,3.3680419921875,-14.92827288300991,0.5771604210078716,-2.723458164441585
1772556149758973000,3.377972900390625,-9.763629773440956,1.1797007824659347,-2.5896380152776834
1772556149768904000,3.387904052734375,-4.8448763181626795,1.8588215486489235,-1.5864213424429296
1772556149778835000,3.3978349609375,-0.18646131376624106,2.720927769181132,-0.19212788816057144
1772556149788766000,3.407765869140625,3.7209418465822934,3.5130788483470674,0.9182186414416879
1772556149798698000,3.417697998046875,6.679969931352138,3.943808937203884,1.069531046545878
1772556149808628700,3.427628662109375,9.01840294253528,4.41507532684952,0.5015610632095485
1772556149818560000,3.43756005859375,10.830023910200595,5.089779884025454,0.2800396881084889
1772556149828491000,3.447490966796875,12.231127555954455,5.601258164811134,0.549637623310089
1772556149838421800,3.457421875,13.451871127426623,6.100140583395958,1.102580425645411
1772556149848353000,3.46735302734375,14.602931506341696,6.469654279267788,1.8225215702556072
1772556149858283800,3.47728369140625,15.464697973525523,6.49881958347559,2.4016132515870035
1772556149868214800,3.48721484375,15.890674145853518,6.366207348796725,2.7694939394295215
1772556149878146800,3.497146728515625,16.159540186583996,5.971666179174185,3.131302175490558
1772556149888078000,3.507078125,16.241314798951148,5.543889094904065,3.610851824834943
1772556149898008800,3.5170087890625,16.167406682175397,5.514698071733116,4.2180692381933325
1772556149907939800,3.52693994140625,16.377070007830856,5.546634594219923,4.636447794999182
1772556149917870800,3.536870849609375,16.982246563011408,5.6708606933474535,4.959585816404223
1772556149927801900,3.5468017578125,17.60384701424837,6.224595815104246,5.184745401877165
1772556149937732900,3.55673291015625,17.84350449615121,6.870045928484201,5.046181565317511
1772556149947664000,3.566663818359375,17.596360457885265,7.46157039040923,4.274662647552788
1772556149957596000,3.576595947265625,16.760785247534514,7.555653864729404,2.893737866474688
1772556149967527000,3.58652685546875,15.625976915240287,7.045221293604373,1.6853271223530173
1772556149977457700,3.596457763671875,14.534446583658456,5.9928691262006755,1.3842162238389253
1772556149987389000,3.606388916015625,13.633407259750365,4.448173586592078,2.1322556279473006
1772556149997320000,3.61631982421875,13.082716327995062,2.6277970655411482,3.5349013885766265
1772556150007250700,3.626250732421875,13.183213176488875,0.7235222179673612,4.580214158862829
1772556150017182000,3.636181884765625,14.016636177241802,-1.0625786701247095,5.139878086146712
1772556150027113000,3.646113037109375,15.033058953130244,-3.178162418603897,5.155733242404461
1772556150037044700,3.656044677734375,15.818061329585312,-5.532154233446717,4.392541423480212
1772556150046975700,3.665975830078125,16.435394771027564,-7.912620798239112,3.837518892261386
1772556150056907000,3.675906982421875,16.181505350154637,-9.976613767951726,3.660038757330179
1772556150066837800,3.685837646484375,14.660073197233675,-11.295088230335711,3.844808757008612
1772556150076768800,3.695768798828125,12.43198096768856,-10.316451287484169,4.734826336164772
1772556150086700000,3.705699951171875,8.48650672762096,-5.828212232485413,5.556641608971357
1772556150096630800,3.715630859375,-1.280123396679759,1.5933023341283201,5.100819748955964
1772556150106561800,3.725561767578125,-17.791939144086836,10.050025041121243,5.208370023092627
1772556150116493800,3.735493896484375,-34.97126661455631,17.74793984336257,5.086504807877541
1772556150126424800,3.7454248046875,-49.411145739769935,23.788399572777745,2.4021586105100807
1772556150136355800,3.75535595703125,-62.65901638960838,27.029788555145263,-1.8833445800088344
1772556150146286800,3.765286865234375,-70.00559612674712,26.694768665027617,-4.970579504105449
1772556150156217900,3.7752177734375,-69.05714155619144,25.440539003539083,-4.308177379141748
1772556150166148900,3.78514892578125,-61.01545774018764,23.001469443130492,-2.782081910584867
1772556150176080000,3.795079833984375,-47.77153845832348,18.111544022929667,-2.2082813213989136
1772556150186011000,3.805010986328125,-35.6030786632061,12.977684758681058,-0.9030300593338906
1772556150195942000,3.81494189453125,-27.476279107713697,9.018990387034416,0.45491230742242184
1772556150205874000,3.8248740234375,-24.106538470721244,7.218254970520734,0.8940618861109018
1772556150215805000,3.834804931640625,-23.113314199590683,6.827868582490086,0.1449739958629012
1772556150225736000,3.84473583984375,-22.251803752994537,7.277557054316997,-0.5004183959804475
1772556150235667000,3.8546669921875,-20.225310785114765,8.241569259488582,0.30730149678252633
1772556150245598000,3.864597900390625,-16.683032145768404,9.183353266239166,1.2767635648578404
1772556150255529000,3.874529052734375,-11.73443241828084,10.20202995853424,2.013550191937387
1772556150265459700,3.884459716796875,-5.6198687572568655,11.788693585300445,3.139786218458414
1772556150275391000,3.894390869140625,1.1088491306513548,13.440213422858715,3.78088865802288
1772556150285323000,3.904322998046875,7.489222951966524,14.601791688656807,3.049126288846135
1772556150295254000,3.91425390625,13.165156126272677,15.051224724417924,2.097557970184088
1772556150305184800,3.924184814453125,18.071043670237064,15.046002605855463,0.9959727661211043
1772556150315116000,3.934115966796875,21.899608271670342,15.590159751927851,0.032450755619257685
1772556150325046800,3.944046875,25.247754331970214,16.055542051970956,0.214556796785444
1772556150334977800,3.953977783203125,28.833852239298817,16.066232957333327,1.8461904690042137
1772556150344909000,3.963908935546875,32.13760035494566,15.968394514393806,4.03536961504817
1772556150354839800,3.97383984375,34.558011976635456,15.830061563980578,5.791161727985739
1772556150364771800,3.983771728515625,35.95453530886173,15.287687209671734,6.175759011220932
1772556150374702800,3.993702880859375,36.71412150450945,14.212143551772831,5.00610499099493
1772556150384633900,4.0036337890625,37.10357908725738,13.099554065549373,3.098212683576345
1772556150394564900,4.01356494140625,36.74542148265839,11.855931138271092,1.1535006116740405
1772556150404496400,4.023496337890625,35.59906182878017,10.784279227113723,0.23201821919605134
1772556150414427400,4.033427490234375,33.70883727999925,10.305924048250914,0.8340621754392981
1772556150424358700,4.043358642578125,30.761479174757003,9.853234056520462,1.7197281352572142
1772556150434289400,4.053289306640625,27.097331228542327,9.457355500814318,2.4392330804072317
1772556150444220400,4.063220458984375,22.990639421558377,9.467828379511833,3.025103315962851
1772556150454152700,4.073152587890625,18.35325785284042,9.307584041541814,3.589269523102045
1772556150464083500,4.08308349609375,13.148031972992419,8.298079666739701,4.25930053550899
1772556150474014500,4.093014404296875,8.241235497489571,7.1988611187428235,5.060887551540136
1772556150483945700,4.10294580078125,4.574224563059211,6.451321334719657,6.279038768431544
1772556150493876500,4.11287646484375,1.953832805338502,5.95291354790926,7.809920302221179
1772556150503807500,4.122807373046875,-0.9794833305478096,5.065632115718722,7.916442986875772
1772556150513738500,4.132738525390625,-4.2592841688960785,3.5893484335571526,6.048984396654367
1772556150523669500,4.14266943359375,-6.060321783226728,1.8826567438751458,4.579709424211084
1772556150533601500,4.1526015625,-5.518418553560972,0.5277388760391623,4.525250688792765
1772556150543532500,4.162532470703125,-4.09963662777543,-0.6488288690980524,5.468392247632146
1772556150553463600,4.172463623046875,-2.7270009516149756,-1.875325085812807,7.220405426552891
1772556150563394600,4.18239453125,-1.941834909030795,-2.9579060950025915,7.9141224349737165
1772556150573325300,4.1923251953125,-2.139915348920226,-4.947479783546925,6.160913324266672
1772556150583256600,4.202256591796875,-2.711621596175432,-6.605957185158133,3.0456080515921116
1772556150593187600,4.2121875,-2.8415415230304,-7.011904714936017,1.6845822953350842
1772556150603118300,4.222118408203125,-2.635432090464234,-5.709135771206021,2.535495506201684
1772556150613050400,4.23205029296875,-3.5962253335893153,-3.497422137270868,2.264219773980975
1772556150622981600,4.241981689453125,-5.167424849241971,-1.88877098897174,0.18950066319582984
1772556150632912400,4.251912353515625,-5.954317569488286,-0.004718918280676007,-2.08045193708241
1772556150642843400,4.261843505859375,-6.267224411997199,2.1643768593512474,-3.937266091431677
1772556150652774700,4.271774658203125,-7.933086663162708,4.347662709572911,-4.627653370907902
1772556150662705400,4.281705322265625,-12.725117526322602,6.677903061950206,-4.467819951826334
1772556150672636400,4.291636474609375,-20.04737998380661,8.885126106467842,-3.2289313595935702
1772556150682567700,4.301567626953125,-27.61074018512964,10.088206010955572,-0.7783243599958717
1772556150692499500,4.31149951171875,-34.28654832062721,10.290019207632541,0.3867907381588593
1772556150702430500,4.321430419921875,-38.94731777919531,9.362932419276238,-0.30849216787181793
1772556150712361500,4.331361572265625,-40.99206653473377,8.230898227870464,-2.3313616114921865
1772556150722292500,4.34129248046875,-41.471622321557994,7.537572849115729,-4.820999183490872
1772556150732223500,4.351223388671875,-40.9270349673748,6.7356783745706075,-6.427684438544511
1772556150742154500,4.361154541015625,-39.535807403469086,6.030529871553182,-6.831090467146039
1772556150752085500,4.37108544921875,-37.3242852004528,5.557451756310463,-5.818900798782706
1772556150762016500,4.3810166015625,-34.21163365715742,5.572403826248645,-3.69891267786473
1772556150771947300,4.390947265625,-30.85243779505491,5.679515708968043,-1.6552908805295825
1772556150781879600,4.400879638671875,-26.790482955420014,5.650327608406544,0.04759770880872383
1772556150791810600,4.410810546875,-21.707127551484106,5.929370759758353,1.8584712739065288
1772556150801741600,4.420741455078125,-16.51198233614564,6.595390782958269,3.58760918867439
1772556150811672600,4.430672607421875,-11.314379790782928,7.829870034316182,5.664817321529984
1772556150821603600,4.440603515625,-5.5289615748852485,9.590517770591378,8.527434365814925
1772556150831534300,4.450534423828125,1.1259347054868936,10.776332067501544,10.52832995110154
1772556150841465600,4.460465576171875,7.8601330706328145,11.52705924938917,10.183216536992788
1772556150851396600,4.470396728515625,14.214230294919012,12.899987771016358,8.716660468119382
1772556150861328600,4.48032861328125,19.242245504426954,14.35616390017271,6.259008372315764
1772556150871259400,4.49025927734375,22.977169699132443,15.159968007731436,3.3237060310482978
1772556150881190700,4.500190673828125,25.979225024724006,15.887005686473845,1.3528645155027508
1772556150891121400,4.510121337890625,28.44251951032877,16.525636767488717,1.1334522415101527
1772556150901052400,4.520052490234375,30.2865013633728,16.84671347244978,2.3902431317888198
1772556150910983700,4.529983642578125,31.219802788460253,16.534146237158776,3.6791914938285943
1772556150920914400,4.53991455078125,31.351542331957816,15.976250488591193,4.092953496749699
1772556150930845400,4.549845458984375,31.186814711093902,15.569450141376256,4.037034917911887
1772556150940777500,4.559777587890625,30.79772420809269,15.023451751351356,3.615498773857951
1772556150950708500,4.56970849609375,29.9796694568634,14.15918002334833,2.930636103022098
1772556150960639500,4.579639404296875,29.297029722774028,12.979046694684028,1.6517483856171369
1772556150970570500,4.589570556640625,29.15886277657747,12.048109076118468,0.14977072862014174
1772556150980501500,4.59950146484375,28.71723310804367,11.371878040027617,-0.9287328019976615
1772556150990432500,4.6094326171875,26.928563392376898,10.418304226762055,-1.4173118532329796
1772556151000363500,4.619363525390625,23.81330721954107,9.12556509413719,-1.2234091374196112
1772556151010294500,4.62929443359375,19.979781196308135,8.068341521304845,-0.33451281737834215
1772556151020225500,4.6392255859375,16.07719040467739,7.674542109960317,1.6018972901247441
1772556151030157600,4.649157470703125,12.357561978781222,7.388764681917428,4.101487516339123
1772556151040088300,4.65908837890625,8.46759452188015,6.773107649254799,6.643792118033766
1772556151050019600,4.66901953125,4.523023952654004,5.889959371346235,9.571531330570577
1772556151059950600,4.67895068359375,1.2603496056735515,4.2069998549073935,11.291021127027273
1772556151069881300,4.68888134765625,-1.2209499076992272,2.535906132829189,10.641579898184537
1772556151079812600,4.6988125,-3.3928426956385374,1.4026295401468871,7.871308544641733
1772556151089743600,4.70874365234375,-5.985594751283526,1.1071186535969375,4.701897880031169
1772556151099674400,4.71867431640625,-9.251037978455424,0.9557060760539025,2.7174066093176603
1772556151109606400,4.7286064453125,-12.229395033073425,-0.558187498055771,0.941734249324724
1772556151119537700,4.73853759765625,-13.45801328344345,-2.481696111474931,-0.6314554172318428
1772556151129468400,4.748468505859375,-12.859874371814726,-3.0393355471938848,-0.03780943310819566
1772556151139399400,4.7583994140625,-12.392093193936347,-2.087632350105792,2.021373140648007
1772556151149330700,4.76833056640625,-14.107438145673274,-0.10066599451564252,2.7758184662759304
1772556151159261400,4.778261474609375,-17.56611495722532,2.3056321269519624,1.8459081449314951
1772556151169192400,4.7881923828125,-21.17872911555767,4.274566201440989,-0.28907822315394877
1772556151179123500,4.79812353515625,-23.82511456171274,6.4736442256867885,-1.4833219102352857
1772556151189055500,4.808055419921875,-24.33439211758375,6.782254247784614,-1.3239037939563394
1772556151198986500,4.817986572265625,-22.76532961395979,6.47856589999795,1.3247700553968549
1772556151208917500,4.82791748046875,-23.145813616657257,6.068234456047415,4.36538190613687
1772556151218848500,4.8378486328125,-27.417186282753942,5.029197697290778,5.337769725465774
1772556151228779500,4.847779541015625,-33.45090881286859,4.318413234212994,4.834369537195563
1772556151238710500,4.85771044921875,-39.61422686018943,4.22495665961951,3.9230505190744993
1772556151248641500,4.8676416015625,-45.038791072010994,3.9519004737228154,3.3533079731076954
1772556151258572500,4.877572509765625,-46.10707730612754,3.6394764462947844,3.5953561495393513
1772556151268504300,4.88750439453125,-42.034746033906934,4.10053211531043,4.20581210642755
1772556151278435600,4.897435546875,-36.29813130414486,5.096356924328208,4.737440610316395
1772556151288366600,4.90736669921875,-31.108385902023315,5.688727773949504,5.22444028340578
1772556151298297300,4.91729736328125,-26.0540999407053,6.318577582615614,5.800600587460399
1772556151308228600,4.927228515625,-20.7151073954463,7.236207391318678,6.100549748718739
1772556151318159600,4.93715966796875,-15.365497594583033,8.59515941004157,5.971788928771018
1772556151328090400,4.94709033203125,-9.644369772288202,10.524386766433715,6.273699745491147
1772556151338021600,4.957021728515625,-3.2810107986599206,12.465488100492953,6.602246055680513
1772556151347953700,4.96695361328125,3.071801061990857,14.27205236929059,6.93114600161314
1772556151357884400,4.976884521484375,9.42003027102649,15.877223128128051,6.935273895198106
1772556151367815400,4.9868154296875,16.109465365338323,17.368437837439775,4.9234021578669545
1772556151377746700,4.99674658203125,23.26531327178478,19.196608373367784,0.755399119221419
1772556151387677400,5.006677490234375,30.142288122749328,19.99563810613155,-3.5293677198469635
1772556151397608400,5.0166083984375,35.412426327490806,19.443813201910256,-5.442693742752075
1772556151407539200,5.026539306640625,37.64081783224344,18.32901656103134,-5.39585308112204
1772556151417470000,5.036469970703125,36.89334760632515,17.213440167951582,-4.23033572230935
1772556151427401000,5.04640087890625,34.959260534942146,16.129607989656925,-2.5789161302551626
1772556151437333000,5.0563330078125,33.0953862329483,15.064543640196323,-1.1313872718043625
1772556151447264000,5.066263916015625,31.548166143298147,13.750808481293916,-0.4195185206212103
1772556151457195000,5.076195068359375,30.51705550136566,12.279738734388351,-0.06302680340781808
1772556151467126000,5.0861259765625,29.52026330862045,10.980886671841144,0.32909064619913697
1772556151477057000,5.09605712890625,27.77915029389858,9.524323004671931,0.43512686251103877
1772556151486988000,5.105988037109375,25.78637021052837,8.237899046543241,0.7934373195841908
1772556151496919000,5.1159189453125,24.07052724614143,7.6836133051663635,1.4671303616300224
1772556151506850000,5.12585009765625,21.872764688408374,7.7900541567564,2.1951533981479705
1772556151516782000,5.135781982421875,18.211665608370303,8.047706729555129,2.53357330596745
1772556151526713000,5.145713134765625,13.142514086353778,8.026158914613724,2.279424503505975
1772556151536644000,5.15564404296875,7.407671626961231,7.576875516456365,2.0316843990430233
1772556151546575000,5.1655751953125,1.6602555171996354,6.497434266597033,2.1790201556012034
1772556151556506000,5.175506103515625,-3.383253614038229,5.266214309296012,3.0860867769747973
1772556151566437000,5.18543701171875,-6.948317501166462,4.36292954454869,5.757288684478402
1772556151576368000,5.1953681640625,-8.993923750317096,2.8810242231130596,8.687929463675617
1772556151586299000,5.205298828125,-9.109469114860891,1.319065560144931,9.584033084747194
1772556151596231000,5.21523095703125,-8.334630989545584,0.44858840163052077,8.030519447910786
1772556151606162200,5.225162109375,-8.127757002347707,-0.40646980008631944,4.969858788615465
1772556151616093200,5.23509326171875,-8.177501568725704,-1.301637893873453,1.7893018760904669
1772556151626024000,5.24502392578125,-7.425124866065382,-1.5319563234142959,-0.15428533823406324
1772556151635955200,5.254955078125,-6.731053052857518,-1.4810674093067646,-0.8394458412390202
1772556151645886000,5.264885986328125,-7.213187750259041,-1.8268233591027556,-0.6636833238806575
1772556151655817000,5.27481689453125,-8.401650515851378,-1.7019301743686197,0.8049812615793198
1772556151665748200,5.284748291015625,-9.734427644354104,-1.1435786448575556,2.8369489345431327
1772556151675679000,5.294678955078125,-11.343149958193301,-0.9819318927437066,4.801757891926169
1772556151685611000,5.304611083984375,-12.574556377977132,-0.040578824756294485,4.321130384217202
1772556151695542000,5.3145419921875,-12.14497604367733,1.3547612890347838,2.1063184920057654
1772556151705473000,5.32447314453125,-11.354220802783965,1.4418338616795836,-0.7681878736458718
1772556151715404000,5.334404052734375,-11.702644948875903,0.7224201019443571,-3.7858252376422286
1772556151725335000,5.3443349609375,-13.540671692907809,-0.3306440131209791,-5.008784439337253
1772556151735266000,5.35426611328125,-16.42126687695384,-1.2973174003258348,-3.5023569633245466
1772556151745197000,5.364197021484375,-19.26750386432409,-2.213448787164688,-0.6422769632365554
1772556151755128000,5.374128173828125,-21.412551899957656,-3.112240332145989,1.49008848176077
1772556151765059800,5.384059814453125,-22.192738985085487,-3.8994425567328928,1.990090844286233
1772556151774991000,5.3939912109375,-21.201850463426112,-4.456172768652439,0.38558486950043586
1772556151784922000,5.403922119140625,-18.93027681955099,-4.86847726624161,-1.853597822651267
1772556151794852900,5.413852783203125,-16.377409030526877,-5.096261647260189,-3.1957220406919715
1772556151804784000,5.4237841796875,-14.548471601879596,-5.050204244962335,-2.921436313000321
1772556151814715100,5.433715087890625,-13.493007439935207,-4.431521142476797,-1.700783780812472
1772556151824646000,5.44364599609375,-11.788111401498316,-3.2831595011264083,-0.7964998489599674
1772556151834577200,5.4535771484375,-8.895819349917769,-2.13302617392838,-0.4853450012175366
1772556151844509200,5.46350927734375,-5.248599742150306,-1.2827201351746915,-0.3905072379313409
1772556151854440000,5.47343994140625,-0.7268091306835412,-0.40488574576526876,-0.0881223922249861
1772556151864371000,5.483370849609375,6.2123845683068035,0.7482838803887367,1.0645119762748478
1772556151874302200,5.49330224609375,8.088740166211128,1.2538877161830664,-0.48509292615260924
1772556151884233000,5.50323291015625,6.825826847529411,0.715906920658052,-2.246900244259089
1772556151894164000,5.5131640625,7.34476655023694,0.9038590575039386,-2.1114102621868254
1772556151904095000,5.523094970703125,8.021434808701276,2.342654428270459,-1.36304440260306
1772556151914026000,5.53302587890625,8.318664189606904,3.725642863880098,-1.0542202993631362
1772556151923958000,5.5429580078125,8.405872517460583,4.817860885465145,-0.09417977430149913
1772556151933889000,5.552888916015625,8.566558169457316,5.550377287879586,0.7003644836112857
1772556151943820000,5.562820068359375,8.903014229857922,6.20476298738718,1.3096829609021543
1772556151953751000,5.5727509765625,9.26846608311832,6.607255408275127,2.0124039445117115
1772556151963682000,5.58268212890625,9.01487710649669,6.780072812092304,2.4641923112273214
1772556151973613000,5.592613037109375,9.037365417158604,6.04513590453267,2.0317956043325363
1772556151983544000,5.6025439453125,10.202303514778613,5.573500973835587,2.1909666139826176
1772556151993475000,5.61247509765625,10.260058953654765,5.5549470800131555,1.7233463257543742
1772556152003406000,5.622406005859375,10.36594860110283,5.624057441118359,0.888225727303326
1772556152013338000,5.632338134765625,10.42234327301979,5.5209974641382695,0.37799759270921346
1772556152023268900,5.642268798828125,10.236391662341356,4.919768769800663,0.09511720128208398
1772556152033200000,5.6522001953125,9.938658423566817,4.102368098565936,0.10088336359336972
1772556152043131100,5.662131103515625,9.647062664633989,3.4848990480452775,0.7201425124011933
1772556152053062000,5.672061767578125,9.337475906458497,3.1619021886765957,1.6302499627754092
1772556152062993200,5.6819931640625,9.10078136601448,3.2920033173173664,2.4129596982486543
1772556152072924200,5.691924072265625,8.718763577878475,3.984411581227183,2.687815188652277
1772556152082855000,5.70185498046875,7.926229052352904,4.736153493115306,2.1889522054202852
1772556152092787000,5.711786865234375,6.736633483338355,4.83752653992176,1.1994148061089216
1772556152102718200,5.72171826171875,5.199803854799271,4.292711222201586,-0.10995748140886426
1772556152112649000,5.73164892578125,3.6428485530763863,3.6371950573593375,-0.9150266404673456
1772556152122580000,5.741580078125,2.568426592683792,3.0039176123321054,-0.570446748713404
1772556152132511200,5.75151123046875,1.891112437531352,2.3270050237178803,0.5477073858998716
1772556152142442000,5.76144189453125,1.3605278897374868,1.7207044329434633,1.6580821186833083
1772556152152373000,5.771373046875,1.0073919126927853,1.049713051071763,2.4104253574654457
1772556152162304000,5.781303955078125,0.5657669203341007,0.19972177735567093,2.7521307166963815
1772556152172235000,5.791235107421875,-0.33218437443077564,-1.05134094453454,2.1753400057837364
1772556152182167000,5.8011669921875,-1.3923720577657221,-2.885970447343588,0.6361651292927563
1772556152192098000,5.81109814453125,-2.362684239864349,-4.570629753437638,-1.281437986409664
1772556152202029000,5.821029052734375,-2.764114584478736,-4.897805359795689,-2.3700182360142468
1772556152211960000,5.8309599609375,-2.661788182470202,-3.8437873050063844,-1.659717464800179
1772556152221890800,5.840890869140625,-3.1302567580908534,-3.3835786082088943,-0.21481559385210275
1772556152231822000,5.850822021484375,-5.140823258042335,-4.534675812003016,0.39842487918809055
1772556152241753000,5.860753173828125,-7.954585378265381,-6.173384098783135,0.13785481150746345
1772556152251683800,5.870683837890625,-10.42786349774599,-6.91188074465096,-0.3316495369017124
1772556152261615900,5.880615966796875,-12.253467982578277,-6.966369290685654,-1.5485001925885677
1772556152271547100,5.890547119140625,-14.1754250557065,-7.129365557712316,-3.5393326490223407
1772556152281478000,5.900477783203125,-16.45067183513641,-7.19674164237082,-4.73047544747889
1772556152291409000,5.910408935546875,-18.898100058567522,-6.836204449158907,-4.417840407648682
1772556152301340200,5.920340087890625,-20.888109508180616,-6.687805447283387,-3.35302886390537
1772556152311271000,5.93027099609375,-21.120328364515302,-7.090355735838413,-2.287047107338905
1772556152321202000,5.940201904296875,-18.94372082301378,-7.880072865855693,-1.841655017531663
1772556152331133200,5.95013330078125,-15.049745884037018,-8.193069724735617,-1.9333390294946728
1772556152341065000,5.96006494140625,-10.671332062369585,-7.853336834621429,-2.2571692709475752
1772556152350996000,5.969995849609375,-6.319327524200081,-7.0965516678690905,-2.516477209737897
1772556152360927200,5.97992724609375,-2.5701427489519117,-5.809370169371366,-2.775720266598463
1772556152370858000,5.98985791015625,0.16376432878971098,-4.183937543749809,-2.8823300450146196
1772556152380789000,5.9997890625,1.7542156574010848,-2.7936189113825556,-2.5016414596557617
1772556152390720300,6.00972021484375,2.389727145090699,-1.632501248833537,-1.4835520657293497
1772556152400651300,6.0196513671875,2.592455118525028,-0.5337053101629018,-0.20924802285283803
1772556152410582300,6.029582275390625,2.900212907707691,0.3536649693548679,0.9636009940221905
1772556152420514300,6.039514404296875,3.4948359201699493,1.292602354502678,1.958178871718794
1772556152430445300,6.0494453125,4.140796321159601,2.3282202447265385,2.3513632199048993
1772556152440376300,6.059376220703125,4.942577982980013,3.304717837461829,2.3603557969167825
1772556152450307300,6.069307373046875,5.906988832080364,4.152282176291942,2.3500632432222366
1772556152460238300,6.07923828125,6.991507823595404,5.064182501432299,2.489289927604794
1772556152470169300,6.08916943359375,8.118798619866372,6.008593934077024,2.8115216478198763
1772556152480100400,6.099100341796875,9.055514237311481,6.798841225448251,3.19731983127743
1772556152490031400,6.10903125,9.525541148290037,7.2825062011569734,3.098459059552848
1772556152499963400,6.11896337890625,9.607285950040817,7.265688921868801,2.3315244008384646
1772556152509894400,6.128894287109375,9.696395143079757,6.812974380218982,1.5636546532310545
1772556152519825200,6.1388251953125,10.0072485601902,6.367814199471473,1.3872031306952237
1772556152529756400,6.14875634765625,10.340560477346182,6.162604930615425,1.5951985231384633
1772556152539687400,6.1586875,10.601723688614367,6.08426496887207,1.7657129107102751
1772556152549618200,6.1686181640625,10.606620813006161,6.0774652257293456,1.6097991492904722
1772556152559549400,6.178549560546875,10.547323405385017,6.1295151464402675,1.2172960613667965
1772556152569480200,6.188480224609375,10.29196215839386,6.156587277761101,0.7686594366803765
1772556152579411200,6.1984111328125,9.627974517804384,6.056858491030335,0.10802739012911915
1772556152589343200,6.20834326171875,8.50114198669493,5.5349733825206755,-0.8126140214800834
1772556152599274500,6.2182744140625,7.099483045145869,4.7180055497452615,-1.460911048723757
1772556152609205200,6.228205322265625,5.836952588301897,3.895082023435831,-1.019334717812389
1772556152619136300,6.23813623046875,5.171268665188551,3.305695158061385,0.033592326869815586
1772556152629067300,6.2480673828125,5.0775896800160405,3.360613912206888,1.1060326119258999
1772556152638998300,6.257998291015625,5.042162977325916,3.622638124218583,2.2012479156307876
1772556152648929300,6.26792919921875,4.897264092525839,3.5883430559068916,2.896281997999549
1772556152658860300,6.2778603515625,4.668279980328679,3.1285268655583263,3.1165485507339237
1772556152668792300,6.287792236328125,4.623766300341487,2.653657190723717,3.293894830152392
1772556152678723300,6.297723388671875,5.207864996179938,2.3394006871715187,3.9662928639516233
1772556152688654000,6.307654052734375,6.259752468681335,1.8912883786201475,5.146787719404697
1772556152698585300,6.31758544921875,7.514193727093935,0.7857827131778001,6.048115797126293
1772556152708516400,6.327516357421875,8.800957292440533,-0.7045727489560842,5.611498988318443
1772556152718447000,6.337447021484375,9.78469769591093,-2.366381048555672,3.7657553862988946
1772556152728378400,6.34737841796875,9.869086290168761,-4.319015584020316,1.1278915386430919
1772556152738309400,6.357309326171875,7.957898448336124,-6.23825842975378,-2.3991163202047345
1772556152748241200,6.3672412109375,3.63144686909616,-6.665366236460208,-5.899231057560444
1772556152758172200,6.377172119140625,-1.3959855720877647,-5.358136806190013,-6.550418837809563
1772556152768103400,6.387103515625,-5.905674242350459,-3.3022789198771116,-3.083755703678727
1772556152778034200,6.3970341796875,-11.43125611166954,-2.3652561361789703,-0.49195963358432054
1772556152787965200,6.406965087890625,-19.05981505361199,-3.9233880804657932,-0.6397637383066117
1772556152797896400,6.416896484375,-27.73864058885574,-5.15931636158824,-0.8564803434744477
1772556152807827200,6.4268271484375,-35.68763092359304,-3.9370559558123346,-0.46059462737515566
1772556152817758200,6.43675830078125,-41.26819935159683,-2.921300703921914,-1.3384427530489862
1772556152827690200,6.446690185546875,-43.69068719503879,-2.819081269419193,-3.074931761232018
1772556152837621200,6.456621337890625,-41.74234480381012,-1.862912325093895,-3.6247216524943706
1772556152847552300,6.46655224609375,-36.19817806100845,-1.015073260975629,-3.689887952148914
1772556152857483300,6.476483154296875,-29.500808082044124,-0.8117788858301938,-4.317681412807107
1772556152867414300,6.486414306640625,-22.780160103344915,-0.5674916983000934,-5.132051338043809
1772556152877345300,6.49634521484375,-16.65404102908373,0.11779226668775081,-5.820550319555402
1772556152887276300,6.5062763671875,-11.645755771440268,1.0503925577685236,-5.715305984273552
1772556152897207300,6.516207275390625,-8.030877759829163,2.003615073378384,-4.683035066390037
1772556152907139300,6.526139404296875,-5.423708471775055,3.0605466775268315,-2.912093315115571
1772556152917070300,6.5360703125,-2.934557075858116,4.207990911771357,-0.7523616512216628
1772556152927001300,6.54600146484375,0.09264145881831645,5.369466009455919,0.9798071556746959
1772556152936932400,6.555932373046875,3.7798482090592382,6.813233907938003,1.4098372795686125
1772556152946863000,6.565863037109375,8.02647923260927,7.973887460106611,0.8120658860780299
1772556152956794400,6.57579443359375,12.06843640935421,8.941207474651932,-0.18184490601196884
1772556152966725400,6.585725341796875,15.153594381046295,9.762963418486715,-0.9843618963696062
1772556152976656100,6.59565625,17.27310465531945,10.096545969277619,-1.3077908635452389
1772556152986587400,6.60558740234375,18.6632987845242,9.877565364700555,-0.8584678640298545
1772556152996519400,6.61551953125,19.731567482984065,9.264666106313467,0.3544777470424771
1772556153006450200,6.6254501953125,20.700103887581825,8.734988736492395,1.880901424640417
1772556153016381200,6.635381103515625,21.551530162537098,8.418504035496712,3.318636180438101
1772556153026312400,6.6453125,22.24173127179146,8.174876480919123,4.267643124179542
1772556153036243200,6.6552431640625,22.948558521676063,7.897491033646464,4.340832279030979
1772556153046174200,6.66517431640625,23.482540310692787,7.302586281633377,3.7202082716107365
1772556153056105500,6.67510546875,23.640134426414964,6.53893532076478,3.001982260355353
1772556153066036200,6.6850361328125,23.505317959690093,5.8557402908802025,2.8158558776319027
1772556153075968300,6.69496826171875,22.93671610819101,5.458597414326667,3.320260859030485
1772556153085899300,6.704899169921875,21.743330499243736,5.270536264148355,4.089699171128869
1772556153095830300,6.714830322265625,20.001111569106577,5.100162161830068,4.605229942175746
1772556153105761300,6.72476123046875,17.993273032814262,5.1458045535862444,4.983678055131435
1772556153115692300,6.7346923828125,15.81685370736122,5.556467421448231,4.93025509250164
1772556153125623300,6.744623291015625,12.978681953024864,6.11830226303041,3.9976206068903206
1772556153135554300,6.75455419921875,9.537544305294752,5.86980856372118,2.7165269038736817
1772556153145485300,6.7644853515625,6.074536771062016,4.948509126594662,1.676074579230696
1772556153155416300,6.774416259765625,3.2738083199352026,4.140697536960244,1.2046962536431849
1772556153165348400,6.784348388671875,1.7329454903572796,3.2704064025372266,2.0681717167019844
1772556153175279400,6.794279296875,0.860045634740591,2.5597744996726512,3.9854888550698755
1772556153185210000,6.804210205078125,-0.9719932670533656,1.5814961610004306,4.985954183369874
1772556153195141400,6.814141357421875,-4.0661055295735595,1.1469201373051852,5.3011102661103005
1772556153205072400,6.824072265625,-9.044175097173452,2.5186112991571425,5.428014060014486
1772556153215003100,6.834003173828125,-16.91246633982062,3.6925808444947004,3.4380557560667393
1772556153224934400,6.843934326171875,-25.97264798442125,3.1298224583268164,0.7046344890806824
1772556153234865200,6.853865234375,-32.81964153861999,2.398838818437606,-0.9448746662423014
1772556153244797200,6.863797119140625,-36.29967911810875,1.8788491682857273,-2.0513295952335
1772556153254728200,6.873728271484375,-37.447186772978306,1.1132897434473037,-3.5037983943045137
1772556153264659500,6.883659423828125,-36.5500929718256,1.458212895680964,-3.8265155599489806
1772556153274590200,6.893590087890625,-33.91655999298096,3.032911651626229,-1.7200350092492998
1772556153284521200,6.903521240234375,-29.75874356343746,3.3067440825924277,1.7809847141221165
1772556153294452200,6.9134521484375,-24.111532625746726,2.0042975026845933,4.7964060095041985
1772556153304383200,6.92338330078125,-19.60279380355477,0.8985252221953123,5.0783676786512135
1772556153314314200,6.933314208984375,-17.51216592489481,-0.06706731097027659,2.1390490874797106
1772556153324246500,6.94324658203125,-17.032303848600385,-0.9349314374420792,-1.709528520543128
1772556153334177300,6.95317724609375,-17.39947828786969,-0.5475863898687064,-4.464822815836966
1772556153344108300,6.9631083984375,-18.106349961417912,-0.12352379607707262,-5.633909557569027
1772556153354039300,6.973039306640625,-18.02294920915365,-0.5673413300439715,-5.067255917528271
1772556153363970300,6.98297021484375,-16.41680697493553,-0.17025281402617692,-3.5111095941007133
1772556153373901300,6.9929013671875,-13.544990140628814,0.5839394136235118,-2.556357969227433
1772556153383832300,7.002832275390625,-9.577987374842166,1.1801055638745426,-3.000352613326907
1772556153393763300,7.012763427734375,-4.554575859737396,2.133311128349602,-3.6572570176571606
1772556153403694300,7.0226943359375,0.8318985676646232,3.495856203128397,-3.914492826348543
1772556153413626400,7.03262646484375,5.657517227649689,4.483944864936173,-4.118907145434617
1772556153423557600,7.0425576171875,9.787128137928248,5.043577520298958,-3.7769551179662346
1772556153433488600,7.052488525390625,13.12885731692314,5.39145221581459,-2.384086216594279
1772556153443419400,7.06241943359375,15.486699377453327,5.889823762267827,-0.48554772071540353
1772556153453350700,7.0723505859375,17.012818226885795,6.8383303552716965,1.244001697462797
1772556153463281400,7.082281494140625,17.7156496851325,7.8172835244655605,2.793114468991756
1772556153473212400,7.09221240234375,17.85090337423086,8.827584602603316,4.192406681409478
1772556153483143700,7.102143798828125,17.505134126561877,9.316044411373138,5.422297435933351
1772556153493075700,7.11207568359375,16.832107439470292,8.847139782422781,6.222239022845029
1772556153503006500,7.12200634765625,16.18429702669978,8.16895059800148,6.485970623296499
1772556153512937500,7.1319375,15.933837580275535,7.7794029988825315,6.259293034476041
1772556153522868500,7.141868408203125,16.204818421202898,7.1292404700279235,5.871939730530977
1772556153532799500,7.151799560546875,16.599127535635233,6.168425599592924,5.6062979125440116
1772556153542730500,7.16173046875,16.764838322317598,5.2998991367548705,5.601856715226173
1772556153552661500,7.17166162109375,16.970615746450424,4.823796120733022,5.857514899337291
1772556153562592500,7.181592529296875,17.188763991856575,4.5219981167376035,6.004004268199205
1772556153572524500,7.191524658203125,17.058920637369155,4.071082441203296,5.485116003417969
1772556153582455300,7.201455322265625,16.44502418463826,3.531507654485106,4.4511739374518395
1772556153592386600,7.211386474609375,15.336616368013619,3.051000558285415,3.5126048010945317
1772556153602317600,7.221317626953125,13.906119454514979,2.889017267693579,2.8581173947781324
1772556153612248300,7.231248291015625,12.22951661362648,2.986362666419148,2.4179237503968176
1772556153622179600,7.2411796875,10.536907225310802,3.051168316067755,1.903614337838441
1772556153632110600,7.251110595703125,8.866585072126984,2.980285392332077,1.2604054275140166
1772556153642041300,7.261041259765625,7.536101607519388,2.859545089493692,0.662661798813194
1772556153651972600,7.27097265625,6.819549082434177,3.163883717882633,0.5129975993074476
1772556153661904600,7.280904541015625,6.383260190406442,3.586223871795833,1.3007168335057795
1772556153671835400,7.29083544921875,5.5388955244004725,3.6001541974708435,2.4442574844405054
1772556153681766400,7.300766357421875,4.473212750780582,3.6199312033474444,3.2609359788805246
1772556153691697700,7.31069775390625,3.1000171026498076,3.924055019941926,3.1955808786556124
1772556153701628400,7.32062841796875,1.2205687994271517,3.8419995448067783,2.0993410542085766
1772556153711559400,7.330559326171875,-0.3830851251065731,3.058635875469446,0.9116762340608984
1772556153721490400,7.340490478515625,-1.2878811711996794,2.5019495026916263,0.9640477148763835
1772556153731421400,7.35042138671875,-2.65351193703413,2.4569945086777207,2.222759782475978
1772556153741353500,7.360353515625,-5.837091119989752,2.2131702624842524,4.681129525029659
1772556153751284500,7.370284423828125,-11.328722788912057,1.901670364163816,6.441660356926918
1772556153761215500,7.380215576171875,-17.249744822520018,1.3554397728182375,5.2516860177278515
1772556153771146500,7.390146484375,-21.93233915940523,0.2744550198439509,3.3258176163747906
1772556153781077500,7.400077392578125,-24.399711269712448,-0.17235782348141074,1.8027593235567212
1772556153791008500,7.410008544921875,-24.918058267223834,-1.101212206032127,-0.22658720712326466
1772556153800939500,7.419939453125,-24.66110010643005,-2.6322847323492167,-1.6683382858902216
1772556153810870500,7.42987060546875,-23.95820084364414,-3.1007082997843622,-1.4914279136709867
1772556153820802600,7.439802490234375,-23.29582999060154,-3.140114427499473,-0.20904508415926246
1772556153830733600,7.449733642578125,-23.038259250867366,-3.5032147491976615,0.8053950300119816
1772556153840664300,7.459664306640625,-22.744892390608786,-3.39244580527544,0.7468215527512133
1772556153850595600,7.469595703125,-22.15106958861351,-3.2030317791834473,-0.716247623854503
1772556153860526600,7.479526611328125,-21.59186918718815,-3.39981253465116,-2.5442922683805227
1772556153870457300,7.489457275390625,-20.71249575164318,-3.419135951541364,-3.4400510215371845
1772556153880388600,7.499388671875,-19.052271214103698,-3.3078818544507023,-3.470149514941871
1772556153890319600,7.509319580078125,-17.07186896626949,-2.87795577545315,-2.8905139359921215
1772556153900250400,7.51925048828125,-15.054259562069177,-2.392823942062259,-2.5108076396688817
1772556153910182400,7.529182373046875,-12.319675607979297,-1.4530606274843214,-2.591217101162672
1772556153920113700,7.53911376953125,-8.44659265038371,-0.1809561404787004,-3.0746275175884366
1772556153930044400,7.54904443359375,-4.04846115181148,0.7564270009644329,-3.7746447951972484
1772556153939975400,7.558975341796875,-0.07529577174186707,1.4685053032450377,-4.4272617314666505
1772556153949906700,7.56890673828125,2.8997850376844405,1.9689716300204394,-4.402630271296203
1772556153959837400,7.57883740234375,4.947041392129659,2.1699805245772,-3.4592718548357486
1772556153969768400,7.5887685546875,6.494545559418201,2.213498763786256,-1.8817073341958224
1772556153979699700,7.59869970703125,8.016041425225138,2.5104075344353913,-0.1307645609855652
1772556153989631500,7.608631591796875,9.579281506305932,3.1554648491054773,1.5015525634527205
1772556153999562500,7.6185625,11.075975523811579,4.07835769290328,2.746659591808915
1772556154009493500,7.628493408203125,12.435166611987352,4.847471303091943,3.58051280067265
1772556154019424500,7.638424560546875,13.366138132822513,5.352905335277319,3.702620592471957
1772556154029355500,7.64835546875,13.761321692001818,5.282622423261404,2.9627053119778632
1772556154039286500,7.65828662109375,13.76484518995285,4.515971403793991,1.8697880560822784
1772556154049217500,7.668217529296875,13.60913557280302,3.637628772601485,0.8932542229898274
1772556154059148500,7.6781484375,13.483362828755379,2.980453442375362,0.2658082605950534
1772556154069079300,7.688079345703125,13.52703713530898,2.5093118481531738,0.2183784009002149
1772556154079011300,7.69801123046875,13.715001839375494,2.418202421207726,0.6881961991727352
1772556154088942600,7.707942626953125,13.965783941882847,2.596750769892335,1.384521052004397
1772556154098873600,7.71787353515625,14.150090707963704,2.7368977839902042,1.9790280368715523
1772556154108804400,7.727804443359375,14.215049794608353,2.7164287041962143,2.327308244448155
1772556154118735600,7.737735595703125,13.95382579306364,2.4841534414991733,2.6800480617821214
1772556154128666400,7.747666259765625,13.285750006377697,2.096180836611986,3.05019830199182
1772556154138597400,7.757597412109375,12.438522936677932,1.9200468555927275,3.065417206172645
1772556154148528600,7.767528564453125,11.302553743910789,2.034732680697739,2.771274393105507
1772556154158460700,7.777460693359375,9.753957105210423,2.427741818447411,2.1834480550460516
1772556154168391400,7.787391357421875,7.800031945413351,2.8101871843457222,1.2407057246573268
1772556154178322400,7.797322509765625,5.49400950396955,2.9331425328850744,0.13633943850845098
1772556154188253400,7.80725341796875,2.990352612838149,3.044829468435049,-0.5664117941088974
1772556154198184400,7.817184326171875,0.14508300919532774,3.5817771215200422,-0.3829150292366743
1772556154208115500,7.827115478515625,-2.837561513483524,4.035269954065979,0.3492264023855328
1772556154218046500,7.83704638671875,-5.785184407141804,3.6564752196297046,0.8554637137778103
1772556154227977500,7.8469775390625,-7.864234660732746,2.53691151047945,0.2720322496764362
1772556154237909500,7.856909423828125,-8.852125754141808,1.2063777769893407,-0.497791554608196
1772556154247840500,7.866840576171875,-9.423749583810567,-0.41806437629014254,-0.650426440487802
1772556154257771500,7.876771484375,-9.524868948116898,-1.7498963328972459,-0.6409501716122031
1772556154267702500,7.88670263671875,-9.148774704810977,-2.5350319803431627,-0.2813216176778078
1772556154277633500,7.896633544921875,-8.241681487691402,-3.5346509209468957,0.5725714857824147
1772556154287564500,7.906564453125,-6.739753076663613,-4.020163278087973,1.484479263576865
1772556154297495600,7.91649560546875,-6.144937171977758,-3.6866941245436666,0.8182374143198132
1772556154307426600,7.926426513671875,-7.3944643548637625,-3.758837569734454,-1.4489197282873094
1772556154317357600,7.936357666015625,-9.628627428755163,-4.232604544024169,-2.923790182650089
1772556154327289600,7.94628955078125,-11.955745265197754,-4.032291230516136,-2.8151930298089978
1772556154337220400,7.956220458984375,-14.478112702018022,-3.2175340595275164,-2.0030312821410594
1772556154347151600,7.966151611328125,-16.68753647145033,-2.7652152391970155,-0.8864937889441847
1772556154357082600,7.97608251953125,-17.115974649977684,-2.810603071670234,-0.0037809798434376716
1772556154367013400,7.986013427734375,-15.824531986904143,-3.3324314815565943,0.7268322192981839
1772556154376944600,7.995944580078125,-13.26740887852311,-4.184598053485155,0.9694780693620443
1772556154386875400,8.00587548828125,-9.687655371785164,-4.7275817718639965,0.6421455188766122
1772556154396806400,8.015806396484376,-5.720611104944348,-4.396548028773069,0.1732183858335018
1772556154406738000,8.025738037109376,-2.205076095616817,-3.621087972167134,-0.5258223018281162
1772556154416669200,8.035669189453126,0.4781424128949642,-2.7869015858262776,-1.2829600814104078
1772556154426600200,8.04560009765625,2.357483164089918,-1.7806909918725489,-1.7529942989125846
1772556154436531000,8.055531005859375,3.4045717118769883,-0.8366551145419477,-1.8948726668477058
1772556154446462200,8.065462158203125,3.842971312448382,-0.13952274471968412,-1.7290780012741684
1772556154456393200,8.075393310546875,3.9716941384732722,0.589369914239645,-1.2437113362140952
1772556154466324000,8.085323974609375,4.124802048692107,1.229533027127385,-0.5467039079457521
1772556154476255200,8.095255126953125,4.318803694835305,1.746201277771592,-0.156107530426234
1772556154486186000,8.10518603515625,4.5303556107163425,2.155745662997663,-0.028355302999168632
1772556154496118000,8.115117919921875,4.590829660901427,2.3963529929712415,0.23569340057745575
1772556154506049300,8.12504931640625,4.40449051221013,2.410716157105565,0.4877659812867641
1772556154515980000,8.13497998046875,4.240898032855987,2.3464053052365776,0.6308496333584189
1772556154525911000,8.1449111328125,4.2191368674248455,2.2358482504993678,0.8175672599732875
1772556154535842300,8.15484228515625,4.1733407464116805,2.1486635957822204,1.1888767532207072
1772556154545773000,8.16477294921875,4.071419418072701,2.050404881604016,1.614318380280584
1772556154555704000,8.1747041015625,3.702916945070028,1.9857748807832598,1.9512990490771829
1772556154565635300,8.18463525390625,3.1989152837753294,2.03181211707592,2.120653306828439
1772556154575567000,8.194567138671875,2.696241656213999,1.9553961091324685,2.117775705565512
1772556154585498000,8.204498046875,2.256943060976267,1.7651541077837347,2.2132257920637723
1772556154595429000,8.21442919921875,1.9920786571025848,1.6623051432058213,2.367111993178725
1772556154605360000,8.224360107421875,1.94411922057569,1.437264800198376,2.4787381384521723
1772556154615291100,8.234291015625,2.247789448183775,1.2368389662265777,2.526521633890271
1772556154625222100,8.24422216796875,2.534697926083207,1.1612915578112006,2.5972674872428176
1772556154635153200,8.254153076171875,2.792546313714981,1.0620622450351715,2.3852225271478296
