time,seconds_elapsed,z,y,x
1772556099497745200,0.0727451171875,1.3798930999428034,-0.8108259690195322,0.8406010026235133
1772556099507676200,0.08267626953125,1.2133850254029035,-0.8848080278143287,0.8834105821065604
1772556099517607200,0.092607177734375,1.0481541311919689,-0.9355109178304671,0.7779482201598584
1772556099527539200,0.102539306640625,0.9399550377577542,-0.871393396576494,0.5438155660931021
1772556099537470200,0.11247021484375,0.8533850078076124,-0.7417834124535322,0.3456388627549633
1772556099547401200,0.122401123046875,0.7294529231905936,-0.6734716543801128,0.2842529584219679
1772556099557332200,0.132332275390625,0.6451514226943255,-0.5892322593346238,0.2481463106436655
1772556099567263200,0.14226318359375,0.5936930381357669,-0.4558597078077495,0.21993480002935975
1772556099577194200,0.1521943359375,0.6408037488788366,-0.373205389996618,0.20787713635843247
1772556099587125200,0.162125244140625,0.8089601751476526,-0.3584245849721133,0.21139321818798779
1772556099597056300,0.17205615234375,1.0659165823757648,-0.3397615316867828,0.2295309324249625
1772556099606987300,0.1819873046875,1.4170201768100261,-0.3177148273125291,0.2809170189322904
1772556099616918300,0.191918212890625,1.7095283744126557,-0.22890549400299787,0.34538664155956356
1772556099626849300,0.201849365234375,1.8740210174769163,-0.10804214930683374,0.3757751674193889
1772556099636781300,0.21178125,1.9890069945722817,-0.028910160402953623,0.3680389471441507
1772556099646712300,0.22171240234375,2.0584680688112975,0.0648166094340384,0.37199915601201355
1772556099656643000,0.23164306640625,2.037324743017554,0.13563289767429232,0.40889088975340127
1772556099666574300,0.24157421875,2.0058482392579315,0.13617840272784232,0.4541485565083101
1772556099676505300,0.25150537109375,2.0553215874791144,0.05050941327065229,0.5436375426450744
1772556099686436000,0.26143603515625,1.7188608509033918,-0.15468436575531957,0.7421500538088381
1772556099696367400,0.271367431640625,1.4856377859622238,-0.45845147786661977,0.19409710587430745
1772556099706298000,0.281298095703125,1.7601865485042332,-0.6631437371112406,-0.13749288285989314
1772556099716229000,0.29122900390625,1.6854349666416644,-0.8376337503157556,0.4398093577714637
1772556099726160400,0.301160400390625,1.7618664644151925,-0.7956241621039807,1.0302158119846134
1772556099736091100,0.311091064453125,1.5551993979662655,-0.7793231617748737,1.2332983710102736
1772556099746023200,0.321023193359375,1.4894512067705392,-0.8696313553400338,1.1923690523158759
1772556099755954200,0.3309541015625,1.5482207911252974,-0.914039382995665,1.4073312880970537
1772556099765885200,0.34088525390625,1.7734709774911404,-1.0031300174646078,0.9825176567424088
1772556099775816200,0.350816162109375,1.9432775090545416,-1.1187865872979164,0.2576731589290313
1772556099785747200,0.360747314453125,2.413099252849817,-0.8541356800444424,0.3655226900069043
1772556099795678200,0.37067822265625,2.3178122479587793,-0.7324692022718489,-0.01822802286893129
1772556099805609200,0.380609130859375,1.106431548115611,-0.791628662727028,-0.9907863764591515
1772556099815540200,0.390540283203125,-1.4243471586972474,-0.5453174220234155,-2.0258169683143494
1772556099825471200,0.40047119140625,-3.6071728440612554,-0.09942425082623958,-2.2095361437655985
1772556099835402200,0.41040234375,-4.880707510000467,-0.6659465195722878,-1.6245483901329338
1772556099845334300,0.420334228515625,-5.192693730533123,-1.7209246515654026,-1.3009404131285844
1772556099855265000,0.43026513671875,-6.552980212730169,-1.9366104523807763,-1.3336723237767816
1772556099865196300,0.4401962890625,-9.002373598754405,-0.5198213078476488,-0.8816085741858929
1772556099875127300,0.450127197265625,-12.007835517919062,0.41820305410847064,0.4570493925163522
1772556099885058000,0.46005810546875,-14.384514380866289,0.19716566313207148,2.619901928377151
1772556099894989300,0.4699892578125,-14.62575007187128,1.2655888215012847,3.6897453288078306
1772556099904920000,0.479920166015625,-13.594080627012252,1.8675195266284048,3.417151499725878
1772556099914851000,0.48985107421875,-10.550996540939808,1.1388787966035305,2.751882879415154
1772556099924782300,0.4997822265625,-6.0421098347097635,-0.17117328987196087,1.8582434565000234
1772556099934713000,0.509713134765625,-2.8536931485950947,-0.2508506376989186,1.2172582135744392
1772556099944644000,0.51964404296875,-2.1205057150512934,0.19006532960757613,1.0240719024021179
1772556099954576100,0.529576171875,-1.3898597826838492,-0.41546237709820266,1.925625386377424
1772556099964507100,0.539507080078125,-0.8724562035024166,-1.653840389460325,3.380887177167833
1772556099974438100,0.549438232421875,-1.6412871973574161,-1.3135282381534577,3.700492348271608
1772556099984369200,0.559369140625,-3.5530461170762777,-0.5857897176653146,1.203726970219612
1772556099994300200,0.569300048828125,-4.631163424855471,0.6927322351671755,-2.973105125439167
1772556100004231200,0.579231201171875,-4.343168320763111,0.2174845208004117,-3.3753014859899877
1772556100014162200,0.589162109375,-4.860875266805291,0.22490751040801404,-3.930921983101964
1772556100024093200,0.59909326171875,-6.821889508080482,0.20340126958601176,-3.0235148777276275
1772556100034024200,0.609024169921875,-5.9485793180972335,0.3245961112588644,-1.7773031029999256
1772556100043955200,0.618955078125,-1.814247809037566,-0.12289061274006963,-1.1813105557501316
1772556100053887200,0.62888720703125,2.886119500425458,0.1798442337140441,-2.197488124705851
1772556100063818200,0.638818359375,6.367437182852625,0.48364890135675664,-3.020077304494381
1772556100073749200,0.648749267578125,8.423547874882816,0.1590549820549786,-2.443455666538328
1772556100083680300,0.65868017578125,9.593996260356903,0.044961277624219656,-1.181757422734797
1772556100093611300,0.668611328125,9.337868705168367,-0.19193170800134537,-0.20734671927616
1772556100103542000,0.6785419921875,8.9719276070863,-0.1409847800962627,0.11692045228928327
1772556100113473300,0.688473388671875,9.237866946715116,0.9630131111316382,-1.1584010970667005
1772556100123404300,0.698404296875,7.9616288670361035,1.2228405437514185,-1.9238161449983715
1772556100133335000,0.7083349609375,8.538320501488446,1.0936259886868298,-3.0207974354624745
1772556100143266300,0.718266357421875,10.80727782538533,1.7589964619368315,-3.4911703833997247
1772556100153197300,0.728197265625,9.457427981528639,0.8413314357899129,-3.7821447955638168
1772556100163129000,0.738129150390625,7.784380202773213,1.9022279980465768,-2.8128865064322945
1772556100173060000,0.74806005859375,6.9602493465006345,1.9022521095745264,-1.6742833118997513
1772556100182991400,0.757991455078125,6.621835722291469,1.7301161121502517,-0.8269174182511866
1772556100192922000,0.767922119140625,7.482315656796097,1.6940180860698222,0.00011635638866573571
1772556100202853000,0.77785302734375,8.191265890184045,2.0500680508650837,0.8861044973656534
1772556100212784400,0.787784423828125,8.463030574965476,2.64939047318995,1.3614257153600453
1772556100222715100,0.797715087890625,7.769958294188976,2.6265076102524993,2.044101543676108
1772556100232646100,0.807646240234375,7.824096127089858,0.6669269089117645,3.173955030041933
1772556100242577400,0.817577392578125,9.448845446622371,-0.6540142358466983,4.350385412535071
1772556100252508200,0.827508056640625,9.83805636113286,-0.2114445099838078,4.076414742141962
1772556100262440200,0.837440185546875,7.8612319717854255,1.0998718973390758,1.867475979747623
1772556100272371200,0.84737109375,6.221439396899938,0.6869976370379328,0.8630410171642899
1772556100282302200,0.85730224609375,6.779304750329255,-1.1758714334361255,0.6480383032422512
1772556100292233200,0.867233154296875,7.484630363479257,-2.253396912802011,0.5111386735677719
1772556100302164200,0.877164306640625,8.038241566595435,-2.3155215066730976,0.46177075848244126
1772556100312095200,0.88709521484375,9.117559482336043,-2.0901541236683725,-0.423610027718544
1772556100322026200,0.897026123046875,9.546338437125087,-2.5408386207953093,-2.5845316320493814
1772556100331957000,0.90695703125,8.997017624679208,-2.276432189822197,-4.270395345497131
1772556100341888300,0.91688818359375,5.691106193518638,-1.0610929616115987,-4.254221624809503
1772556100351819500,0.926819580078125,-2.547995799073577,0.951266705366969,-2.535227502915263
1772556100361751600,0.93675146484375,-12.410762823092936,1.2298150589391588,-1.9961774707235396
1772556100371682600,0.9466826171875,-18.277889600384235,0.9867844473414122,-1.5177441120579838
1772556100381613600,0.956613525390625,-19.392291104465723,1.0439525878489018,-0.17593549930509178
1772556100391544600,0.966544677734375,-17.37633940434456,0.7774635053828358,0.27503028071494773
1772556100401475600,0.9764755859375,-14.736141706913708,0.18624299484044313,0.14400083998180924
1772556100411406600,0.986406494140625,-13.19023679151535,-0.6880084215156733,-0.27311635511871424
1772556100421337600,0.996337646484375,-11.979015081626176,-1.7864374265700578,-0.05554660372026264
1772556100431268600,1.0062685546875,-9.067575846505164,-2.3579727011725304,-0.08588153622932732
1772556100441199600,1.01619970703125,-13.126985677832364,-1.8006506608396768,0.8541223091062158
1772556100451130600,1.026130615234375,-19.47866590410471,-0.23893121345490215,4.211735943518579
1772556100461062700,1.036062744140625,-17.926740413242577,0.4174180412106216,6.321858503982424
1772556100470993400,1.045993408203125,-15.871609379899501,-1.2668152945563196,6.04981850939095
1772556100480924700,1.055924560546875,-16.301705262506008,-1.986640703832358,6.369508143907785
1772556100490855700,1.065855712890625,-15.77696242647767,-2.338318883284181,5.548498050004244
1772556100500786400,1.075786376953125,-15.799273627007008,-2.8492037282213567,4.68010193554759
1772556100510717700,1.0857177734375,-15.89328345156908,-2.855650127881765,4.697824639242887
1772556100520648400,1.0956484375,-15.083851567256449,-3.098897743231058,5.16379146117568
1772556100530579500,1.105579345703125,-12.987618123674391,-3.385578842115402,5.485649671903253
1772556100540510700,1.1155107421875,-9.640101008927822,-3.3202295871093868,5.786104444596171
1772556100550441500,1.12544140625,-5.842922310361266,-3.391248704445362,4.854571490485966
1772556100560373500,1.13537353515625,-2.3556290606558323,-2.866661351239681,3.123392717540264
1772556100570304500,1.145304443359375,0.34153847823143,-2.0330279226064683,0.9017091859936713
1772556100580235500,1.155235595703125,2.118593159428239,-1.139929766961187,-1.30754171108976
1772556100590166500,1.16516650390625,2.8172569766014814,0.392461586869508,-2.6637273338392373
1772556100600097500,1.17509765625,2.6529531341075896,1.9133255845136938,-2.926477229776978
1772556100610028500,1.185028564453125,3.3448253914445636,2.948718287679553,-3.168954445275664
1772556100619959600,1.19495947265625,5.297789597254991,4.131579580003023,-3.381632734838128
1772556100629890600,1.204890625,7.674050527051091,4.9274604933470485,-3.2840728165790436
1772556100639821600,1.214821533203125,9.840131413841247,5.308624295002222,-2.7676377901688216
1772556100649752600,1.224752685546875,11.694452290070057,5.343890254172682,-2.181000808024406
1772556100659684600,1.2346845703125,13.055287053799628,5.223653516942262,-1.729105619933456
1772556100669615600,1.24461572265625,14.033465731489658,5.280401240080595,-1.6089670823805033
1772556100679546600,1.254546630859375,14.531485395765303,5.5638598697870965,-1.6949499600924551
1772556100689477600,1.2644775390625,14.455499888193607,5.9241474721521135,-1.738588172419369
1772556100699408600,1.27440869140625,13.869739981144665,6.100028939715028,-1.538954657869041
1772556100709339600,1.284339599609375,13.055251982486247,6.170393100273609,-1.5380878119066357
1772556100719270400,1.2942705078125,11.859956156003474,6.182367031183839,-1.2791649269111454
1772556100729201700,1.30420166015625,10.327667093503475,5.936572653961181,-1.0907212071560322
1772556100739132700,1.314132568359375,9.19750278762281,5.685174465382099,-1.2005996319793164
1772556100749063400,1.3240634765625,8.67591461623311,5.370720393431187,-1.2141991913300008
1772556100758995500,1.333995361328125,8.937794451338052,4.607212055903673,-1.1855606144100428
1772556100768926700,1.3439267578125,9.722599259394407,3.591192015597224,-1.2817244021356105
1772556100778857500,1.353857421875,10.32584806138277,2.5527988154411316,-1.4647360138393937
1772556100788788500,1.36378857421875,10.533369698834418,1.5799989081799983,-1.8291154155626892
1772556100798719700,1.3737197265625,9.959308412885665,0.9448457324087619,-1.8291960795834659
1772556100808650500,1.383650390625,8.477610888981818,0.170935243332386,-1.0772070610664783
1772556100818581500,1.39358154296875,6.888448431137204,-1.0096373535320162,-0.3615358488604426
1772556100828512800,1.4035126953125,6.507517853716015,-1.9644652585119007,-0.495878122202307
1772556100838443500,1.413443603515625,6.531332444545626,-2.542911627677083,-1.3075431723944841
1772556100848374500,1.42337451171875,6.087171796229481,-2.848072386103868,-1.9414684138059615
1772556100858306600,1.433306640625,5.373220978075266,-2.836134695550799,-1.2320869493938982
1772556100868237600,1.443237548828125,3.5720337261408566,-3.0399302982166407,-0.36103995510227976
1772556100878168600,1.45316845703125,0.8800935665130615,-3.088012192079425,0.5057821880359202
1772556100888099600,1.463099609375,-2.037218360033631,-2.735790407270193,1.5385022379264235
1772556100898030600,1.473030517578125,-4.37047367631793,-2.5985890912353993,1.7215242248937486
1772556100907961600,1.482961669921875,-6.520470274269581,-2.532642747119069,1.2709471336640417
1772556100917892600,1.492892578125,-9.495857373166084,-2.168872855596244,1.8241114697955547
1772556100927823600,1.50282373046875,-12.712780607318878,-1.705356057164073,3.7683909954994914
1772556100937754600,1.512754638671875,-15.41362245080471,-1.125432016661763,5.993823065924644
1772556100947685400,1.522685302734375,-16.921849085193873,-0.877554111163318,7.252889646050334
1772556100957617400,1.532617431640625,-16.486957785004375,-0.5224269603013992,6.675947836229205
1772556100967548700,1.542548583984375,-14.96266381291151,-0.1506499956727028,5.419649551773071
1772556100977479700,1.552479736328125,-13.47465111451149,-0.936520094873011,3.960443261140585
1772556100987410400,1.562410400390625,-12.902647345614433,-1.9634818004325032,1.834486879467964
1772556100997341700,1.572341796875,-13.57784260891676,-2.3216641010813412,-0.5099758403334766
1772556101007272400,1.5822724609375,-14.163924003005027,-2.944534864515066,-2.7471868305534124
1772556101017203500,1.592203369140625,-13.873325438416003,-3.5456533764764666,-3.9020416333153842
1772556101027134700,1.602134765625,-13.100650628614424,-3.8616654915243385,-3.1377243174925447
1772556101037065500,1.6120654296875,-12.015149055802821,-3.882690743896365,-1.5475249178156256
1772556101046997500,1.62199755859375,-10.686881513679026,-3.5259213787853714,-0.45957923978753384
1772556101056928500,1.631928466796875,-9.55289618820548,-2.8148618981584903,0.04949004362765699
1772556101066859500,1.641859619140625,-8.762081326079368,-1.956840462721884,0.32118597402181476
1772556101076790500,1.65179052734375,-7.92500740160346,-1.2622038552381099,0.11174114995524287
1772556101086721500,1.661721435546875,-5.848306926009059,-0.868064252153784,-0.3216547971099615
1772556101096652500,1.671652587890625,-2.526321727403998,-0.8112745895698666,-0.6975894659399986
1772556101106583600,1.68158349609375,0.9377057975262403,-0.6153048582240939,-0.8727070364583284
1772556101116514600,1.6915146484375,3.8018285701990124,-0.1582213077098131,-1.3112629235699773
1772556101126445600,1.701445556640625,5.7396682721138,0.4825352410264313,-1.9832225659519434
1772556101136376600,1.71137646484375,6.36968525404036,1.3038092465631663,-2.2904737207867205
1772556101146308600,1.72130859375,6.078002985867857,2.102154358063638,-2.267485643909126
1772556101156239600,1.731239501953125,6.130477269470691,2.744279418674111,-2.0410414254531264
1772556101166170600,1.741170654296875,6.978157343634963,3.0450311284869906,-1.734364855635911
1772556101176101600,1.7511015625,8.692989669674635,3.092473847663402,-1.7037237797871232
1772556101186032600,1.76103271484375,11.002302384835481,3.0359020656138656,-1.8845275061830877
1772556101195963600,1.770963623046875,13.05787765481472,2.7152748579859733,-1.874177961604297
1772556101205894400,1.780894287109375,14.108382733047007,2.2152423925831912,-1.3650706477336585
1772556101215825700,1.79082568359375,14.03023566352725,1.6058289304852484,-0.5544130940835923
1772556101225756700,1.800756591796875,13.221314651346207,0.8925472437642514,0.20583755682222543
1772556101235687400,1.8106875,12.265505626374482,0.4578825919374823,0.7652633645012974
1772556101245619500,1.820619384765625,11.280281121826171,0.2979547725707292,0.739280416656658
1772556101255550700,1.83055078125,10.092775803089141,0.5752244845092296,0.26175577033385633
1772556101265481500,1.8404814453125,8.688841902345418,1.2059393855720757,-0.3334680575657636
1772556101275412500,1.85041259765625,7.244570145994424,1.821454379415512,-0.704926896155998
1772556101285343700,1.86034375,6.116528239095211,2.3006594531059266,-0.7407264507465064
1772556101295274500,1.8702744140625,5.204951154559851,2.795748909148574,-0.48019189277067775
1772556101305205500,1.88020556640625,4.929750065588951,3.2573949452728033,-0.6907577202238142
1772556101315136800,1.89013671875,5.265200163817405,3.76029039889127,-1.4801049940153956
1772556101325067500,1.900067626953125,5.78412817608714,4.196882950040698,-2.05908736975342
1772556101334998500,1.90999853515625,6.2248857379615306,4.388723034235835,-2.0042684227205814
1772556101344930600,1.9199306640625,6.427545906856656,4.2244896266296506,-1.4377159049667416
1772556101354860800,1.92986083984375,6.287397431454062,3.7651726179748772,-0.29025632702261206
1772556101364791800,1.939791748046875,6.165900465029478,2.9744542019605635,1.0539344681590794
1772556101374722800,1.949722900390625,6.061279230082035,2.097942439457029,2.2847997668035327
1772556101384653800,1.95965380859375,6.190846105715632,1.3623023520641029,3.4713585984706876
1772556101394584800,1.969584716796875,6.730149382016062,0.10938231186941265,4.985165663340688
1772556101404515800,1.979515869140625,6.051078154063225,-1.384605661547929,5.427396220377087
1772556101414446800,1.98944677734375,3.9434693299859758,-2.2309644239805637,5.0373494395643466
1772556101424377900,1.9993779296875,0.48981648407578465,-2.7888801924228668,4.466528742972016
1772556101434309600,2.0093095703125,-4.163024519580603,-2.8724662381261585,3.5940237318918107
1772556101444241000,2.019240966796875,-8.819356872484088,-2.834555317404866,2.7581559683352705
1772556101454172000,2.029171875,-12.037858900260925,-3.184918907126784,2.2985072435081
1772556101464102700,2.0391025390625,-13.69485220079422,-3.421250459477305,1.8470603837065398
1772556101474034000,2.049033935546875,-14.736984587478636,-3.3656545367226003,1.5869348449230194
1772556101483965000,2.05896484375,-15.714861651873587,-3.4049224250108003,1.207881313420087
1772556101493895700,2.068895751953125,-16.308499744951725,-3.7039831129968164,0.6139427030254155
1772556101503827000,2.078826904296875,-16.748305705189704,-4.14785705332607,0.19981705442368983
1772556101513758000,2.088758056640625,-16.998738263607024,-4.5186248409122225,-0.5779191304206848
1772556101523689700,2.098689697265625,-17.18739153445959,-4.76226554723233,-1.42539608322829
1772556101533620700,2.108620849609375,-17.979166181528566,-4.820927871820331,-1.6951812846302985
1772556101543552000,2.118552001953125,-18.774948310673235,-4.460990105806291,-1.5036274700306356
1772556101553482800,2.128482666015625,-18.285579570364952,-4.328008453293145,-1.1779529889505356
1772556101563413800,2.138413818359375,-16.79407961437106,-4.420279325233399,-0.8776429584905505
1772556101573345000,2.148344970703125,-15.075468354314564,-4.665886655451357,-0.5153432856507599
1772556101583275800,2.15827587890625,-13.587735057377815,-4.87590916980803,0.3201775641642511
1772556101593206800,2.168206787109375,-11.92167582233548,-4.6316439018487925,0.86327394913733
1772556101603137800,2.1781376953125,-9.57883785419166,-3.7996874665170908,1.149795619676262
1772556101613069800,2.18806982421875,-6.5219058600306505,-3.0397312685132025,1.390056182038784
1772556101623000800,2.198000732421875,-2.8934453132688995,-2.3974589083865285,0.9061307287629693
1772556101632931800,2.207931884765625,0.7074035884678364,-1.743557631395012,-0.050723713608458634
1772556101642862800,2.21786279296875,3.6411645455121993,-1.256671940074116,-1.031074766901508
1772556101652793900,2.2277939453125,5.525255121582746,-0.6799892195805907,-1.771931054572761
1772556101662724600,2.237724609375,6.3710138722956176,-0.01054798976033926,-1.8106886552512644
1772556101672656000,2.24765576171875,6.479342729589343,0.6668100045338272,-1.4397896425008774
1772556101682587000,2.2575869140625,6.719276105824113,1.2549435088463128,-1.3014257124274968
1772556101692517600,2.267517578125,7.63455146035552,1.9629349802047014,-1.0677970623601227
1772556101702449000,2.277448974609375,9.211647048309445,2.6180498707696795,-0.9415143229637295
1772556101712381000,2.287380859375,11.154120255243777,3.324436683410406,-0.932339375122264
1772556101722311700,2.297311767578125,13.045121049094199,3.8949569357514378,-0.8983600216962396
1772556101732243000,2.307242919921875,14.636170928120611,4.256915101677179,-0.7664926871005445
1772556101742174000,2.317174072265625,15.584116964632273,4.536507411344349,-0.6231114403218031
1772556101752104700,2.327104736328125,15.712717625582217,4.757227553065121,-0.44517567057758567
1772556101762036000,2.337035888671875,15.138057789218426,5.056563258600234,0.014642054140940308
1772556101771967000,2.346967041015625,14.10438694140911,5.2888674551308155,0.510515207907185
1772556101781897700,2.356897705078125,13.099598489212989,5.352179359090328,0.7236906333368271
1772556101791829000,2.3668291015625,12.352205420184134,5.273848749697208,0.8223829896919429
1772556101801761000,2.376760986328125,11.407691696208715,5.526685446646809,0.6607065730921924
1772556101811691800,2.38669189453125,9.688725631365179,6.328595118761062,0.6798137168832122
1772556101821622800,2.396622802734375,7.795445786666869,7.228385903912782,1.0446682618375867
1772556101831554000,2.406553955078125,6.414770596435666,7.830951399812101,0.9687851186618208
1772556101841484800,2.41648486328125,5.853913659974932,7.80357531710863,0.7935096541680395
1772556101851415800,2.426415771484375,5.939591124999523,7.101142502790689,0.5797391854546964
1772556101861346800,2.436346923828125,5.921333583775162,6.043226856040954,-0.03798267078325152
1772556101871277800,2.44627783203125,5.520778268429637,4.816938217662274,-0.4737579142004251
1772556101881208800,2.456208740234375,4.859184829500317,3.420456971012056,-0.380581471722573
1772556101891139800,2.466139892578125,4.59408778591454,2.169071008516848,0.03161920016594231
1772556101901072000,2.47607177734375,5.07005636190176,0.9860542333707213,0.6012873657222837
1772556101911003000,2.4860029296875,6.091062958449125,-0.17288900774866342,1.4762909886851905
1772556101920933600,2.49593359375,7.681438883736729,-1.471959681482613,3.0075489545717833
1772556101930865000,2.505864990234375,9.501409746596217,-3.641562312658131,3.2634342254370448
1772556101940796000,2.5157958984375,9.509598313748835,-5.185435137706994,2.351205691255629
1772556101950726700,2.5257265625,6.549755989986657,-5.434200055173039,2.1553423428937792
1772556101960658000,2.535657958984375,1.1591641903936862,-4.7431028738617895,2.394903817076236
1772556101970589000,2.5455888671875,-5.307161821234226,-4.116839106988906,2.0756109267920255
1772556101980519700,2.555519775390625,-11.346142710268497,-3.714220429372787,0.8911446104247123
1772556101990451700,2.56545166015625,-16.265672995138168,-3.0999712176814676,-0.6889020093545317
1772556102000383000,2.575383056640625,-19.497614934724567,-2.2719534369729457,-1.6556857250660657
1772556102010313700,2.585313720703125,-21.701679807472228,-1.6598017820827662,-1.7406952277012169
1772556102020244700,2.59524462890625,-22.864410750436782,-1.5878449455052612,-1.0556982629612088
1772556102030176000,2.605176025390625,-22.60448555653095,-2.3853235033042726,-0.2597253970174119
1772556102040106800,2.615106689453125,-21.17588833917379,-3.523600534622371,0.1719145184270106
1772556102050037800,2.625037841796875,-18.937253672826287,-4.620716265121102,0.25747412922559304
1772556102059969000,2.634968994140625,-16.71599567321539,-5.827269983199239,-0.062027873764652755
1772556102069899800,2.644899658203125,-15.09461378428936,-6.496849160185456,-1.0966140645869076
1772556102079831800,2.654831787109375,-14.159678035998343,-6.519960571181774,-2.318010108618438
1772556102089762800,2.6647626953125,-14.242738596522807,-6.11098989419043,-3.38890184905827
1772556102099693800,2.67469384765625,-15.368749874377249,-5.145916781789064,-4.129154983204603
1772556102109624800,2.684624755859375,-16.058908898055552,-3.7611829638168213,-4.365133484333754
1772556102119555800,2.694555908203125,-15.123507870340346,-2.8146327655777332,-4.2530023121476175
1772556102129486800,2.70448681640625,-12.906479471123218,-2.2425269976109266,-4.303714262253046
1772556102139417900,2.71441796875,-10.08139983807206,-1.5719044490516185,-4.256626932385563
1772556102149348600,2.7243486328125,-6.6532520202964545,-0.8784799938365817,-3.733217683048546
1772556102159279900,2.73427978515625,-3.022898791655898,-0.41538127468600866,-3.0120410052940247
1772556102169212000,2.7442119140625,0.2908534161329269,-0.06813581698462366,-2.475841247966885
1772556102179143000,2.754142822265625,3.0628274819403885,0.48765346082299943,-2.072002965427935
1772556102189074000,2.764073974609375,5.126297304561734,1.0394292652055621,-1.7080490956403314
1772556102199005000,2.7740048828125,6.288717866402864,1.5733178229808806,-1.2200563929256052
1772556102208935700,2.783935791015625,6.704427496260404,2.141651378932595,-0.3554076483037323
1772556102218867000,2.793866943359375,6.83806381329,2.78345612154752,0.6892660934265703
1772556102228798000,2.8037978515625,7.226686114257574,3.392884196692705,1.6697637886486947
1772556102238728700,2.813728759765625,8.093959946686029,3.7065544247895477,2.1441873271510006
1772556102248660000,2.823659912109375,9.167672297504543,3.7889009918257592,2.0400408701084554
1772556102258592000,2.833592041015625,10.084642765516042,3.4711356033697722,1.6138289893284439
1772556102268522800,2.843522705078125,10.45729300584793,2.8254288848802447,1.1019543296363203
1772556102278453800,2.853453857421875,10.045791933596133,2.3543770147681236,1.2223312059897928
1772556102288385000,2.863385009765625,8.888316426941753,2.165897931438684,2.2029073732756075
1772556102298315800,2.873315673828125,7.515923911887407,2.124631270548701,3.3610236620515583
1772556102308246800,2.883246826171875,6.454948293045163,2.2291773944333193,4.1157144868731494
1772556102318178000,2.893177978515625,5.665975259393453,1.9478791576310992,4.348542707277834
1772556102328108800,2.90310888671875,5.1218666286379095,1.4874024575471878,4.732973109513521
1772556102338039800,2.913039794921875,4.694637825900316,1.1859735791251063,4.8026750067710875
1772556102347971800,2.922971923828125,4.208975538894534,1.2959008115261792,4.453909499895572
1772556102357903000,2.932903076171875,3.3972751251280306,2.0412290569797156,3.8277117839962242
1772556102367833900,2.942833740234375,2.34576759185493,3.3470731703713534,2.7615856505230068
1772556102377764900,2.952764892578125,1.4804823028951883,4.823161329960823,1.4341235795632004
1772556102387696000,2.962696044921875,1.1254466297090053,5.976711772125959,0.03054769847691059
1772556102397627000,2.972626953125,1.23094114035964,6.604142244690657,-0.8006677092291414
1772556102407558000,2.982557861328125,1.589853947240114,6.51588294647932,-1.053303476779163
1772556102417489200,2.9924892578125,2.2120354132354256,6.008711422976851,-0.8477176296956836
1772556102427420000,3.002419921875,2.991113075816631,5.632578601226211,-0.2706257438793778
1772556102437352000,3.01235205078125,3.6653169899940488,5.306920998215675,0.2218793947584927
1772556102447283000,3.022282958984375,4.189057955503464,4.915152215915918,0.6478121663361788
1772556102457214000,3.0322138671875,4.697368712168932,4.282121439126134,0.5472304160378874
1772556102467145000,3.04214501953125,5.119486455503106,2.8261323569744823,-0.5010517254479229
1772556102477076000,3.052075927734375,4.686514140677452,1.1613257523417473,-1.4365524141453205
1772556102487007000,3.062007080078125,2.4532851327657696,0.07226619478762149,-1.9851174397878348
1772556102496938000,3.07193798828125,-0.720365945893526,-0.0927484263241291,-1.6896046535417437
1772556102506868700,3.08186865234375,-3.2528584708869457,0.6496008033186197,0.49808893011957406
1772556102516800000,3.091800048828125,-5.18005344466865,0.7266717680394649,3.065033175291121
1772556102526732000,3.10173193359375,-6.002890169477462,-0.47335634766221046,3.345896820068359
1772556102536663000,3.1116630859375,-5.527740508657693,-0.8217138582587241,1.923149205522239
1772556102546593800,3.12159375,-5.47791410921514,-0.6496347055882216,-0.5090196355871855
1772556102556525000,3.131525146484375,-6.229441501569748,-0.9377139808326959,-2.4153544844307
1772556102566455800,3.141455810546875,-6.27762948615551,-1.131418689855933,-2.3715756945893167
1772556102576386800,3.15138671875,-5.271371545928717,-1.7440590050458906,-1.9120007656507192
1772556102586318000,3.161318115234375,-4.172918137085437,-3.011958295446634,-1.4639324423715472
1772556102596248800,3.171248779296875,-4.070331038314104,-4.50313208822608,-1.6476375892974435
1772556102606179800,3.181179931640625,-4.961588972920179,-5.184415731531382,-2.574308636459708
1772556102616111900,3.19111181640625,-5.825016066792607,-5.162609557914734,-3.3332848835155366
1772556102626043000,3.20104296875,-6.314626214641332,-5.24751136239171,-3.2728669474318624
1772556102635974000,3.210973876953125,-7.064746662807464,-5.270495347616076,-2.326055467908084
1772556102645905000,3.22090478515625,-7.949165691304207,-4.521526407572627,-0.8983541764773428
1772556102655836000,3.2308359375,-8.315112050083279,-3.0328491077840325,0.4190840747267008
1772556102665767000,3.240766845703125,-7.2920631340533495,-1.4646084419369696,0.5847713344030082
1772556102675698000,3.250697998046875,-4.8090217454493045,-0.03770020058006048,-0.09389058209657669
1772556102685629000,3.26062890625,-1.8336545202970504,1.3313982413649559,-0.749849814531207
1772556102695561000,3.27056103515625,0.7039753675848245,2.0636334887504577,-1.428250742007047
1772556102705492000,3.280491943359375,2.417555063214898,2.120042189192772,-1.52116414963454
1772556102715423000,3.290423095703125,3.3693227038413283,1.996401488737762,-0.5590101395502686
1772556102725354000,3.30035400390625,3.914369492229819,2.110466259334981,0.6426832790151238
1772556102735285000,3.310284912109375,4.370389505165815,2.6059441301733255,1.6683184121459722
1772556102745216000,3.320216064453125,4.846897010335326,3.212205850242078,2.162687152698636
1772556102755147000,3.33014697265625,5.389054507023096,3.8608521293148397,2.101339096157998
1772556102765078000,3.340078125,6.330487800639867,4.448490689717233,1.2635348115809262
1772556102775009000,3.350009033203125,7.103146243828535,4.5645343591719865,0.3091483667582273
1772556102784941000,3.359941162109375,7.528890360966324,4.027636682708561,-0.12724793116673827
1772556102794872000,3.3698720703125,8.232744147998094,3.5915400983825325,0.3330740167468786
1772556102804802800,3.379802734375,9.27579248048365,3.8508746329188344,1.7633493964493274
1772556102814734000,3.389734130859375,9.850642286461591,4.425377525155246,3.0793294116690753
1772556102824665000,3.3996650390625,10.0046357473433,5.209902054965496,3.4528605264887213
1772556102834595800,3.409595947265625,9.973914445865153,5.872280506792664,2.775005980849266
1772556102844527000,3.419527099609375,9.606118659827112,6.055116031277179,1.7114783394366502
1772556102854457900,3.429457763671875,9.128371968251466,5.8493222405314445,0.6342229091838002
1772556102864388900,3.439388916015625,9.102490508019924,5.9860728901892895,-0.2597743872582912
1772556102874321000,3.44932080078125,9.700787825080752,6.763138043904304,-1.8117580380484462
1772556102884252200,3.459252197265625,10.129710572254657,7.424465525373816,-4.007945309288799
1772556102894183000,3.469182861328125,9.885228446674347,7.295273328271508,-5.893232693928479
1772556102904114000,3.479114013671875,8.518075001317262,6.203889711683988,-5.765742624568939
1772556102914045000,3.489044921875,6.188395789954066,4.567088427568972,-3.7723651598274706
1772556102923976000,3.498975830078125,4.1470355078101155,3.1621453497827052,-0.7691236931912601
1772556102933907000,3.508906982421875,2.865769955357909,2.1606863342702387,3.097912823846936
1772556102943838000,3.518837890625,2.4575059653311966,0.6979074458479881,5.945826804518699
1772556102953769000,3.52876904296875,3.521966503679752,-0.667776511478424,7.582267730888724
1772556102963701000,3.538700927734375,5.7203305344372986,-1.6419611510962246,9.125195676302909
1772556102973631700,3.5486318359375,7.0331070774406195,-2.9863802020758388,9.05954743835032
1772556102983563000,3.55856298828125,6.66651949814856,-4.122975125525891,8.8482211479187
1772556102993494000,3.568493896484375,5.029415139433741,-4.785704875008761,9.394030737373232
1772556103003424800,3.5784248046875,2.0025924523323773,-5.581617060273885,8.887988510161637
1772556103013356000,3.58835595703125,-1.5187351689219475,-5.431560938841105,6.905226547458767
1772556103023287000,3.598287109375,-4.943453012248874,-4.080525976853073,3.964594243340194
1772556103033217800,3.6082177734375,-9.448915004727244,-2.364143206501007,0.4892268476195633
1772556103043149800,3.61814990234375,-15.212376240360737,-1.1337477173253894,-1.6395537976935506
1772556103053081000,3.6280810546875,-20.257590421950816,-0.7663689876556397,-1.0321528444617987
1772556103063011800,3.63801171875,-22.988048820543288,-1.2481874587148427,1.2024572425447404
1772556103072942800,3.64794287109375,-22.40627184565067,-2.676307706210017,2.7751711082831023
1772556103082874000,3.6578740234375,-19.156042554223536,-4.454833629003167,2.739525794406235
1772556103092804900,3.667804931640625,-15.51640244179964,-5.638265414690971,1.5490218783751128
1772556103102736000,3.67773583984375,-13.563316070914267,-6.211771404844522,0.577878981073387
1772556103112667000,3.6876669921875,-13.862812227708101,-5.931369240099191,-0.04289827154665254
1772556103122599000,3.697598876953125,-15.794969207811354,-4.8861742509737605,-0.8769592870753258
1772556103132530000,3.707530029296875,-17.477241911029815,-4.086417080718278,-1.590004315496236
1772556103142461200,3.717461181640625,-17.708025181603432,-3.815229903563857,-2.1957572092600164
1772556103152392000,3.727391845703125,-15.709063194727896,-3.2974750267267225,-2.8359274825409053
1772556103162323000,3.737322998046875,-12.315385217308997,-2.7914754696130752,-3.206172999818623
1772556103172254000,3.74725390625,-8.521030343991518,-2.5565418013617394,-3.1553172573283312
1772556103182185000,3.75718505859375,-4.533707843753695,-2.2154615882918236,-2.892849977724254
1772556103192116000,3.767115966796875,-0.8340858485758305,-1.8609636752441525,-2.9262065961420536
1772556103202047000,3.777046875,2.054367647755146,-1.3946090230375527,-3.1144410570606587
1772556103211979000,3.78697900390625,4.154270135238766,-0.7555830974861979,-3.0148335586220023
1772556103221910000,3.796909912109375,5.738614379146695,-0.0029009821385145187,-2.8188641195371744
1772556103231840800,3.8068408203125,6.709478349909186,0.8483648415580392,-2.5634555262729526
1772556103241772000,3.81677197265625,7.115252861207723,1.6229747110754251,-2.1503030335523188
1772556103251703000,3.826703125,7.6570777649402615,2.393497895801067,-2.0380065878018736
1772556103261633800,3.8366337890625,8.45362444871664,3.1853193046212196,-1.9994196675151585
1772556103271565000,3.84656494140625,9.305900033977627,3.6185993702217933,-1.6592077617123722
1772556103281496000,3.85649609375,10.113028317523002,3.741134447522461,-1.0600802774377167
1772556103291427800,3.866427734375,10.649698907232285,3.737707103422284,-0.12341828987598419
1772556103301358800,3.87635888671875,11.060080035543441,3.3962308767721057,0.8052529911927878
1772556103311290000,3.8862900390625,11.460122140669823,2.8406290843605992,1.265906363017857
1772556103321220900,3.896220947265625,11.551295865023135,2.4774144886329768,1.4382333529695868
1772556103331152000,3.90615185546875,11.273965947329998,2.1467568853780628,1.5111112499147652
1772556103341083100,3.916083251953125,10.578303065538405,1.8076298522025345,1.4113136357314884
1772556103351014000,3.926013916015625,9.475003970229626,1.458725229117274,1.2515072507873177
1772556103360945400,3.9359453125,8.289827386701107,1.334115391369164,1.0495195743262766
1772556103370877200,3.945877197265625,7.258971011790633,1.6675068035021423,0.7724301873907446
1772556103380808400,3.955808349609375,6.580604717236757,2.28293558036685,-0.011032777602598071
1772556103390739500,3.965739501953125,5.939999705800414,2.6578344764083623,-1.2389195718929171
1772556103400670200,3.975670166015625,5.187025037246943,2.7815120017424224,-2.349463523763418
1772556103410601500,3.9856015625,4.16148196631372,2.4298759078666565,-2.758769131797552
1772556103420532500,3.995532470703125,2.897126047608256,1.7853168981075285,-2.1092335026696323
1772556103430463200,4.005463134765625,1.5564228022813795,1.3003309029281138,-0.2769756243627518
1772556103440394500,4.01539453125,0.813344089320302,0.9159399559199809,2.0385770811662076
1772556103450325500,4.025325439453125,1.637159888294339,0.4246118982374668,3.4067852962732315
1772556103460257300,4.03525732421875,4.2787586846947665,0.17275749032348395,4.240208297026157
1772556103470188300,4.045188232421875,6.794709824731946,-0.36963761451244354,3.851793209068477
1772556103480119600,4.05511962890625,7.965912827965616,-1.2437319406107068,2.9116917485773564
1772556103490050300,4.06505029296875,6.438499262547492,-2.4884181132063268,2.948624764177203
1772556103499981300,4.074981201171875,2.6850170823663473,-4.09694110508114,4.01060108449459
1772556103509912600,4.08491259765625,-1.9394272633671759,-5.554577077656984,4.893541272610426
1772556103519843300,4.09484326171875,-5.812718310755491,-6.080006142383813,4.482671191738546
1772556103529774300,4.1047744140625,-7.510396088376641,-5.310319408482313,2.672046541634202
1772556103539706400,4.114706298828125,-8.978971095857023,-3.554343463410437,0.7888160164590925
1772556103549637400,4.124637451171875,-12.234992414689064,-1.855399026854336,-0.32002566153816875
1772556103559568400,4.134568359375,-16.284009446817635,-1.3328124920770525,-0.8189990463420749
1772556103569499400,4.14449951171875,-19.624934323692322,-1.9641241899892687,-1.3627917430162428
1772556103579430400,4.154430419921875,-22.047487633585927,-2.6648823490932583,-1.9029601117134094
1772556103589361400,4.164361328125,-23.19336564142704,-2.546045834049582,-2.416689678557217
1772556103599292200,4.174292236328125,-23.39046174645424,-2.2157810295045373,-2.061669933592528
1772556103609223400,4.184223388671875,-21.754740366530417,-3.2228803889915345,-1.1682902575921266
1772556103619154400,4.194154541015625,-18.199480665057898,-5.050924375930428,-0.39502376550771295
1772556103629086200,4.204086181640625,-14.66623873412609,-6.025611704373359,-0.05823173288470134
1772556103639017200,4.214017333984375,-11.808967142522334,-6.174691674250364,-0.3505238948501646
1772556103648948500,4.223948486328125,-9.381700248110294,-5.495872375231981,-1.2410463547885418
1772556103658879200,4.233879150390625,-6.408917194232345,-4.4836119797199965,-2.579439569607377
1772556103668810200,4.243810302734375,-2.609909526672959,-3.623154549308121,-3.8011362040206786
1772556103678741500,4.253741455078125,1.2534645223349332,-2.6233362867400047,-4.364854082870483
1772556103688672300,4.26367236328125,4.551289093151689,-1.6636819845169781,-4.695806577418744
1772556103698603300,4.273603271484375,7.0410431311368935,-0.8023655991882085,-5.008638308864832
1772556103708535600,4.28353564453125,8.11281311571598,-0.014862638089060782,-4.664568850851059
1772556103718466300,4.29346630859375,7.96402306869626,0.8536044957771897,-3.3194764306545257
1772556103728397300,4.303397216796875,7.467915960043668,1.628938880176842,-1.6160219693280755
1772556103738328600,4.31332861328125,7.200984686768055,2.396375789324939,-0.22233495650626717
1772556103748259300,4.32325927734375,7.4083689615756265,3.1577687421336766,0.7229550856038928
1772556103758190300,4.3331904296875,7.864688249719142,3.8760836007162927,1.3869979635119438
1772556103768121600,4.34312158203125,8.650708278784155,4.488735021822154,2.0926026858642697
1772556103778052400,4.35305224609375,9.731573423966765,4.78551110600233,2.7504055003389714
1772556103787984400,4.362984375,10.77578027883768,4.740447975438833,3.3729970084398984
1772556103797915400,4.372915283203125,11.445723028439282,4.554590472784638,3.7361914381623267
1772556103807846400,4.382846435546875,11.499223147958517,4.340152772334218,3.957072323402762
1772556103817777400,4.39277734375,10.778798749876021,4.080201274943351,4.117160594028234
1772556103827708400,4.40270849609375,9.646756375163793,4.073720096230507,4.032805317518115
1772556103837639400,4.412639404296875,8.375503098160028,4.43628178100735,3.7503076417982575
1772556103847570400,4.4225703125,7.090072827243804,4.712712119512259,3.0850398982703684
1772556103857501200,4.432501220703125,6.2706502947926515,4.666470300558209,2.1789023744404314
1772556103867433200,4.44243310546875,5.947247192710638,4.43708257599622,0.997063337836787
1772556103877364500,4.452364501953125,5.8167912592828275,4.001552685642242,-0.27165201818719503
1772556103887295500,4.46229541015625,5.387680880582332,3.2862644814044235,-1.1637614550560713
1772556103897226200,4.472226318359375,4.63125694835782,3.069173051574826,-1.6016099976159632
1772556103907157500,4.482157470703125,3.766655550009012,3.283318783341348,-1.7725674527801571
1772556103917088300,4.492088134765625,3.4748207216233014,3.668300974240899,-1.9129820317730306
1772556103927019300,4.502019287109375,3.7727778322815895,3.9649288821220394,-1.2734357356093824
1772556103936950500,4.511950439453125,4.415743143108487,3.8210827212452885,-0.27580329264774917
1772556103946882600,4.521882568359375,5.141981780427694,2.9225922050371764,0.8261870581500231
1772556103956813300,4.531813232421875,5.755439841741323,1.4586679459720848,1.4913438886493444
1772556103966744300,4.541744384765625,6.042021571904421,0.6875742678821086,2.1112346133589743
1772556103976675300,4.55167529296875,6.104439157372712,0.709575087288022,2.798796314020455
1772556103986606300,4.5616064453125,5.326777206808329,0.013020809614658355,1.8669687608778476
1772556103996537300,4.571537353515625,3.680359660825133,-0.34605624791681766,1.5308838718771933
1772556104006468400,4.58146826171875,1.954324972769618,0.006871639335155486,2.155558908253908
1772556104016399400,4.5913994140625,0.915119287186861,0.037734395110607145,2.6053268750578162
1772556104026330400,4.601330322265625,-0.4335638509780168,-0.8184545642018318,2.4892452116802333
1772556104036262400,4.611262451171875,-3.341712227860093,-1.9079905070960521,1.8822386645935474
1772556104046193400,4.621193359375,-8.182926516383885,-3.7085634265244005,0.35979974578283724
1772556104056124400,4.63112451171875,-12.761238641017675,-4.043314144311845,0.19376005593966691
1772556104066055400,4.641055419921875,-14.639591550219059,-2.4168176888510584,0.5270582002986223
1772556104075986400,4.650986328125,-14.326721532589197,-1.887223905660212,-1.0927646956823767
1772556104085917400,4.66091748046875,-12.666196550798416,-2.277455687651038,-2.884257505945861
1772556104095848400,4.670848388671875,-11.734472165769338,-3.5953155252680182,-4.287476244157553
1772556104105780500,4.680780517578125,-12.713127813321352,-5.421838586249947,-4.683665473248064
1772556104115711500,4.69071142578125,-14.684948110771177,-6.807907744479179,-4.231025750400126
1772556104125642200,4.700642333984375,-16.43851611791849,-7.714139376333356,-3.8707480849072335
1772556104135573500,4.710573486328125,-17.82222556127906,-8.213800962597132,-3.653255673061311
1772556104145504500,4.72050439453125,-18.46471565580964,-7.87157508662343,-2.486258304823935
1772556104155435300,4.730435302734375,-17.588656459379195,-7.057072474917769,-0.43098439241144804
1772556104165366500,4.740366455078125,-14.854379963803291,-6.384264983534813,1.2756092802561818
1772556104175297300,4.75029736328125,-10.934292093926668,-5.895464398503303,2.0389682724408806
1772556104185229300,4.760229248046875,-6.922371743527054,-5.2656338790595525,1.913899146617949
1772556104195160300,4.770160400390625,-3.169493958979845,-4.450766233433783,1.2486835716687141
1772556104205091600,4.780091552734375,0.2584685653567314,-3.354907224997878,0.4789648717263713
1772556104215022300,4.790022216796875,3.010781068360805,-2.0756553504556416,-0.007211173487827181
1772556104224953300,4.799953369140625,5.012659819465875,-0.7249497665524482,-0.3092810532271862
1772556104234884400,4.80988427734375,6.242134978926181,0.6310030703544617,-0.35916795068532226
1772556104244815400,4.8198154296875,6.899064517697692,1.9208941200718284,-0.0986170260965824
1772556104254746400,4.829746337890625,7.101216737070679,2.973851267631352,0.3782300862908363
1772556104264678400,4.839678466796875,7.36287503837943,3.8515164379537103,0.6852122149258851
1772556104274609400,4.849609375,8.103948841258884,4.666059089408814,1.0126124238200485
1772556104284540400,4.85954052734375,9.227219880494475,5.154441449028253,1.317554132668674
1772556104294471200,4.86947119140625,10.315057787299155,5.3633296986579895,1.6487990342922507
1772556104304402400,4.87940234375,10.895946288919449,5.4539492962598795,2.1730010414421557
1772556104314333400,4.88933349609375,10.833849021446705,5.404156214565038,2.7541534546956417
1772556104324264200,4.89926416015625,10.397075560772418,5.3869543198734515,3.1711861498504876
1772556104334195500,4.909195556640625,9.836939924323557,5.417372839012741,3.2649840852275487
1772556104344127500,4.91912744140625,9.333223509711027,5.327021536958218,2.977963379125297
1772556104354058200,4.929058349609375,8.83624897057414,5.193429059070349,2.533105688455701
1772556104363989800,4.93898974609375,8.274998650881647,5.151903454983234,2.211298038871586
1772556104373920800,4.948920654296875,7.696323733657598,5.15207764250636,2.04558067631796
1772556104383851800,4.958851806640625,7.141483865529298,5.244706826364994,1.90803624593392
1772556104393782800,4.96878271484375,6.559801583182812,5.3087353541612625,1.5986511478103695
1772556104403713800,4.9787138671875,5.810782958778739,4.911665542843938,0.9375560137920081
1772556104413644800,4.988644775390625,5.158157839202881,4.308885819672048,0.01849763359054923
1772556104423576800,4.998576904296875,4.720384846097231,3.8460292387142774,-0.5601406048849225
1772556104433507600,5.008507568359375,4.5992543748974795,3.292785407605767,-0.7673498153865337
1772556104443438800,5.01843896484375,4.758611408638954,2.639024561998248,-1.1584940360471605
1772556104453369900,5.028369873046875,5.056816356578469,2.3798899339482187,-1.6807836337044835
1772556104463300600,5.038300537109375,5.636186854851245,2.750624111525714,-1.6498907750517129
1772556104473232000,5.04823193359375,6.310163974535465,2.730699221611023,-1.706124411188066
1772556104483162600,5.05816259765625,6.780058783566951,2.3871359595537185,-1.384679457436502
1772556104493093600,5.06809375,6.421785443633794,1.876210928736627,-0.8188105380326509
1772556104503025700,5.078025634765625,5.309008325883746,1.3089119765296577,-0.3767550453022122
1772556104512957000,5.08795703125,3.692597795629501,0.851328659799695,-0.11144465122669935
1772556104522887700,5.0978876953125,1.460254922902584,0.39155601633191106,-0.5611876297198236
1772556104532818700,5.107818603515625,-1.366430391779542,-0.1533086934879422,-0.7656487105570733
1772556104542749700,5.117749755859375,-4.2097669815331695,-0.5407067133575677,0.25472557943612334
1772556104552680700,5.1276806640625,-6.887710764512419,-1.0808952480599283,1.459742735596746
1772556104562611700,5.13761181640625,-9.13780264441967,-1.6511296691969035,2.514412093901634
1772556104572542700,5.147542724609375,-10.875527770268917,-2.393222001469135,2.8138132658883928
1772556104582474800,5.157474853515625,-12.463226000779866,-3.4374846781805157,2.811483069375157
1772556104592405800,5.16740576171875,-14.666299524402618,-4.912504331755638,3.4216473498404025
1772556104602336800,5.177336669921875,-17.796340593916177,-6.385909828132391,4.124937073248624
1772556104612267800,5.187267822265625,-21.398427513015267,-7.191546411815286,4.370277861484885
1772556104622198800,5.19719873046875,-24.623852033531666,-7.480418883264065,3.791422911518812
1772556104632129800,5.2071298828125,-26.531976980662343,-7.91374191122353,2.6452868372634053
1772556104642060800,5.217060791015625,-26.88422857608795,-8.119716319233179,1.876983082152903
1772556104651991800,5.22699169921875,-25.03722357583046,-7.991152483162283,1.1618712573952972
1772556104661923600,5.236923583984375,-21.291343102824687,-7.754394814354181,0.18354560898263006
1772556104671854800,5.246854736328125,-16.617174064457416,-7.0533414716959,-0.12216701117325574
1772556104681785900,5.256785888671875,-11.67861291590333,-6.146550452393293,0.051890200104564424
1772556104691716600,5.266716552734375,-6.911684345296025,-5.056899943208694,0.10885971276741474
1772556104701648000,5.27664794921875,-2.9465444507718086,-3.5799136657357216,-0.20444248573463408
1772556104711579000,5.286578857421875,0.23285130901932716,-1.9918371034316718,-0.9371241251807659
1772556104721509600,5.296509521484375,2.6747072852760554,-0.724193833618611,-1.7960789690099654
1772556104731441700,5.306441650390625,4.127932163411379,0.47420419666320085,-2.453363166438043
1772556104741373000,5.316373046875,4.970451493811607,1.9841192225307225,-2.9288658784791823
1772556104751303700,5.3263037109375,5.869907932442426,3.562480592636764,-3.1133620296522975
1772556104761234700,5.336234619140625,7.021287460309266,4.680537112094462,-2.959292873185873
1772556104771166000,5.346166015625,8.365759118258953,5.415665450572967,-2.5004195166453718
1772556104781096700,5.3560966796875,9.512578206342457,6.008960429301857,-1.8730062874764204
1772556104791027700,5.36602783203125,10.26514195600748,6.532609624874591,-0.9218879045389592
1772556104800958700,5.375958740234375,10.828293725407123,6.759954737693071,0.47555517288073895
1772556104810890800,5.385890869140625,11.45507304058671,6.699682932081818,1.798728606735915
1772556104820821800,5.39582177734375,12.214003402674198,6.633834203121066,2.748215296818316
1772556104830752800,5.405752685546875,12.686269032490253,6.390508261838555,3.357061480422318
1772556104840683800,5.415683837890625,12.736100692629813,5.900119530832767,3.4761031626492738
1772556104850614800,5.42561474609375,12.19408289667368,5.553102913451195,3.3806185893595218
1772556104860545500,5.435545654296875,11.300793163979053,5.57034455563128,3.8700668246448036
1772556104870476800,5.445476806640625,10.235455258274078,4.647192476375401,3.081623660086095
1772556104880407800,5.45540771484375,9.439556224751472,4.254569123072922,2.947433508566022
1772556104890339800,5.46533984375,8.671151347354053,4.1281951982617375,2.8567157112866637
1772556104900270600,5.4752705078125,8.021574509432911,4.063924678403139,3.080008626104891
1772556104910201900,5.485201904296875,7.746550530594587,3.6815006475538015,3.5837162728890775
1772556104920132600,5.495132568359375,8.046807734888791,2.9543887345314026,3.556073940464854
1772556104930063600,5.505063720703125,8.241150157293676,2.1871771585717794,2.561392164002359
1772556104939995000,5.514994873046875,7.473793327644467,1.8555293752357362,0.7272185882672667
1772556104949925600,5.524925537109375,5.953925939822197,2.2007678770288823,-1.0241092387378214
1772556104959856600,5.534856689453125,4.331713445290923,2.8625810961887237,-2.1058874071121214
1772556104969788700,5.54478857421875,3.294329714438319,3.2140532316744324,-1.9781468701228497
1772556104979719700,5.5547197265625,3.6477567833840845,3.0664009565129873,0.06824848357886075
1772556104989650700,5.564650634765625,5.3571384428024285,2.2145655162349343,2.5224329032719135
1772556104999581700,5.574581787109375,7.446739316502213,0.8600406663045287,3.6489991846606133
1772556105009512700,5.5845126953125,8.238028810402751,-1.1094932737737893,3.357213748374581
1772556105019443700,5.594443603515625,6.986326037043333,-2.862013817694783,2.5601634989902378
1772556105029374700,5.604374755859375,3.8189404485195872,-3.4763755498498674,2.842379142898321
1772556105039306800,5.614306640625,-1.0172054506987334,-3.596979074566066,4.481088598722219
1772556105049237800,5.62423779296875,-6.409421636623144,-3.3576942253679034,6.727433693316579
1772556105059168800,5.634168701171875,-10.802296529841422,-3.2247190025955437,6.97335082013607
1772556105069099800,5.644099853515625,-13.610599215614794,-2.808309407775104,5.30929941778481
1772556105079030800,5.65403076171875,-15.13082842248678,-2.5402809869125482,1.9304991298936307
1772556105088961800,5.6639619140625,-16.09002416728735,-3.5860768645405767,-2.0747005339488385
1772556105098892800,5.673892822265625,-17.408982613795995,-5.200407081389427,-4.860135262092948
1772556105108823800,5.68382373046875,-19.99023478578329,-6.624135815927386,-5.9782654313087455
1772556105118755800,5.693755859375,-23.20531794502735,-7.417906605249643,-6.223340262085199
1772556105128686600,5.7036865234375,-25.840807903158662,-7.188194763299823,-6.6791276353091
1772556105138617900,5.713617919921875,-27.144053232228753,-6.332796077582239,-7.382876208400726
1772556105148548900,5.723548828125,-27.341962991726398,-5.391188011920452,-8.043774066281317
1772556105158479600,5.733479736328125,-26.48504221100807,-4.823625148080289,-8.237994908133148
1772556105168411000,5.743410888671875,-24.141434427535533,-4.390720930054783,-8.002343154740332
1772556105178342000,5.753341796875,-20.327363630878924,-3.790473647969961,-7.636600794100761
1772556105188272600,5.763272705078125,-15.767171684825419,-3.155943864794075,-7.016569784137606
1772556105198204700,5.77320458984375,-10.80810200124979,-2.432959114704281,-5.444226359146833
1772556105208136000,5.783135986328125,-5.797666287574172,-1.304230540715158,-3.4889962542310355
1772556105218066700,5.793066650390625,-1.3972043002277612,0.29601503667980433,-2.1261633024215696
1772556105227997700,5.802997802734375,2.2482617418706417,2.307594513066113,-2.0350271335996686
1772556105237929000,5.812928955078125,4.960302440240979,4.278288436834514,-2.4914421372026205
1772556105247859700,5.822859619140625,6.555239389833807,5.774411084192991,-2.4824562821924685
1772556105257790700,5.832790771484375,7.397143803206085,6.972035645884275,-1.94264140310809
1772556105267721700,5.8427216796875,8.461673315137624,7.662046201002597,-1.3809133829012512
1772556105277653800,5.85265380859375,9.69939023324251,8.056402661707997,-0.8557844701647758
1772556105287584800,5.862584716796875,11.123985813742875,8.711002296227216,0.16759440847188234
1772556105297515800,5.872515869140625,12.504363482332229,8.794390189009905,1.5625211191564798
1772556105307446800,5.88244677734375,13.519294558358192,8.299248710519075,3.0150054080575703
1772556105317377800,5.892377685546875,14.23298175714016,7.843224021407962,4.1448669315993785
1772556105327308500,5.90230859375,14.825227519077062,7.3098185709744685,4.742974863567948
1772556105337239800,5.91223974609375,15.156367352890967,6.589045213323831,5.205635045170784
1772556105347171800,5.922171875,14.717512994289397,6.12301877015829,5.697391557398438
1772556105357102800,5.932102783203125,13.388670282626151,5.886163486194611,6.127485101917386
1772556105367033600,5.94203369140625,11.729067676377296,5.6033881625771516,6.5011880661726
1772556105376964900,5.95196484375,10.738073940777777,5.086744461852311,6.559365529853105
1772556105386896000,5.961895751953125,10.407418091088532,4.488407397302985,6.030657297325134
1772556105396826600,5.97182666015625,10.010853891205787,4.320148387442529,5.478662881755828
1772556105406758000,5.9817578125,9.37702699560225,4.702357606497407,5.136126040136814
1772556105416689000,5.99168896484375,8.981057254481316,4.754679622147977,4.417208539485931
1772556105426620700,6.00162060546875,9.014396629503368,4.624472987306118,3.097901425670087
1772556105436552000,6.011552001953125,9.338697557207942,4.291728933165968,1.7246709984868764
1772556105446483000,6.02148291015625,9.618305941227078,3.9167634016290305,0.8526321436136961
1772556105456413700,6.03141357421875,9.683999771887063,4.132375698816776,-0.12609949178397656
1772556105466345000,6.041344970703125,9.253755420720577,4.415717131884396,-1.0629594861358405
1772556105476276000,6.05127587890625,8.479439273452758,4.380961460323632,-1.758743656219542
1772556105486206700,6.061206787109375,8.06829359050989,4.665568675543367,-1.6656494851976633
1772556105496138800,6.071138671875,8.76767227795422,5.038527251172066,-0.6123351947635411
1772556105506070000,6.081070068359375,9.475383909457921,4.418546510091423,0.17295827359259128
1772556105516000800,6.091000732421875,9.128236943694949,3.645811202274263,1.476493525519967
1772556105525931800,6.100931884765625,7.490283859196305,3.157570881474018,3.052481736753881
1772556105535863000,6.110863037109375,4.552531786689162,2.9067373410403725,3.9835979267567394
1772556105545793800,6.120793701171875,0.19646248329877852,2.845956124602258,4.119662347716093
1772556105555724800,6.130724853515625,-5.083924728256464,2.6119606139838694,3.8900428602248427
1772556105565656000,6.140656005859375,-10.180872604215145,1.4001853618651627,3.4717511049196124
1772556105575587800,6.150587890625,-14.808417838573455,-0.37784956254065033,3.16741364557445
1772556105585518800,6.160518798828125,-17.87658375893235,-1.3106468374982476,3.363821768337488
1772556105595449900,6.170449951171875,-18.579238691568374,-1.9968639916829765,3.0863074339881535
1772556105605380900,6.180380859375,-17.334375408840177,-4.147693679457903,1.2732203392930328
1772556105615312000,6.190311767578125,-16.25089628176689,-7.19711398281455,-0.9574066694267094
1772556105625243000,6.200242919921875,-17.237033809506894,-9.74053531357944,-2.269699812827259
1772556105635174000,6.210173828125,-20.191160678231714,-10.459952580446004,-2.251520451405644
1772556105645106000,6.22010595703125,-24.408147089624403,-9.980228451317549,-1.5399419153407214
1772556105655037000,6.230036865234375,-28.84708581488132,-8.949076892852784,-0.4770760623050853
1772556105664967700,6.2399677734375,-31.518673506832123,-7.450944366976619,0.6011028760008513
1772556105674899000,6.24989892578125,-30.709302412796017,-6.123095927047729,0.9647236413765699
1772556105684830000,6.259829833984375,-26.42504220807552,-4.630368182824552,-0.0789836847406812
1772556105694760700,6.2697607421875,-20.090003320002555,-3.057106473945081,-2.228133730599284
1772556105704692000,6.27969189453125,-13.001978657460212,-1.9667508852310478,-4.459183640906215
1772556105714622700,6.289622802734375,-6.7304153394758695,-0.9718275550976395,-5.953626080092787
1772556105724554800,6.2995546875,-2.225347899273038,0.27933190516531464,-5.989280161798
1772556105734485800,6.30948583984375,0.7898346189171075,1.7221208756126463,-5.214223425295948
1772556105744417000,6.3194169921875,2.7774662334829565,3.2246804241508245,-4.43862980543822
1772556105754347800,6.32934765625,4.134323910275102,4.396509742589295,-4.0374586962819095
1772556105764278800,6.33927880859375,5.4919227608233685,5.063133284640312,-3.7813732266694307
1772556105774209800,6.349209716796875,7.091093402463197,5.176725177028775,-2.9318858108222483
1772556105784140800,6.359140869140625,8.780817006209492,4.787355857086181,-1.70323541174829
1772556105794072800,6.36907275390625,10.280982499217986,4.334233611418306,-0.17712810662314293
1772556105804003800,6.37900390625,11.409369274032116,3.800160344725847,1.2298697117358446
1772556105813934800,6.388934814453125,12.396736635828017,3.3268750164732337,2.2673817451432345
1772556105823865900,6.398865966796875,13.441658360970019,2.9491616475328803,2.801265042221546
1772556105833796900,6.408796875,14.055228650486468,2.7851033042326567,2.546424896495044
1772556105843728000,6.418727783203125,13.906757752418518,2.893632944795489,1.9811583268985151
1772556105853659000,6.428658935546875,12.979570426297187,3.036347179032862,1.4018779911272228
1772556105863590000,6.43858984375,11.592865892773865,3.1131156536757945,0.9794422678850591
1772556105873522000,6.44852197265625,10.07666404172182,2.9771044242084024,0.833902016441524
1772556105883453000,6.458452880859375,8.554766609376669,2.5769004065185785,1.0263178546980023
1772556105893383700,6.4683837890625,7.145831539344787,1.9817551237478852,1.7079745690993964
1772556105903315000,6.47831494140625,6.269729672816395,1.3581059232875703,2.8097558071911335
1772556105913246000,6.488245849609375,6.2395379481703035,1.018598950883746,3.5247076190814375
1772556105923176700,6.4981767578125,6.777855720564722,1.1375319120392202,3.555715920807421
1772556105933108000,6.50810791015625,7.142429621946811,1.4607821616470813,2.770546663352847
1772556105943040000,6.5180400390625,6.886055983042716,1.7546362209007142,1.476510184393823
1772556105952970800,6.527970703125,6.117190502396226,1.9146774375140665,0.18986644603461025
1772556105962901800,6.53790185546875,5.156365695089102,2.0057611454963684,-0.7868158556178212
1772556105972833000,6.5478330078125,4.648289916223288,1.8329954718664287,-1.6776513270281255
1772556105982763800,6.557763671875,6.135850194680691,1.466905612963438,-2.042731570497155
1772556105992694800,6.56769482421875,5.798148518133163,0.5901213171288371,-1.9240889705903828
1772556106002626000,6.5776259765625,4.193102262458205,-0.378417133295536,0.44024683587327595
1772556106012556800,6.587556884765625,2.9086253467440604,-0.8683362009629607,2.882676081973314
1772556106022488800,6.59748876953125,1.4039146115213632,-1.0872019469887018,3.5196418601244686
1772556106032419800,6.607419921875,-0.14560089558959005,-1.9485604178935287,2.5381758313268423
1772556106042350800,6.617350830078125,-1.3642881190538405,-2.920065901429951,0.9040173168055713
1772556106052281900,6.62728173828125,-3.815990366542339,-3.198565447424352,-0.7996363203547895
1772556106062212900,6.637212890625,-8.19886467474997,-2.8652169976502657,-2.1592352586790917
1772556106072144000,6.647143798828125,-12.694590286111831,-1.169446514955163,-2.1260824922703203
1772556106082075000,6.657074951171875,-15.760229902863502,1.7227119733735918,-0.9713079882029444
1772556106092007000,6.6670068359375,-16.49575717753172,3.7059494446337222,-0.07762348403707146
1772556106101937700,6.676937744140625,-15.937043098318576,2.9459307027876376,-0.49926827609725294
1772556106111869000,6.686868896484375,-15.0491800668478,1.740186547526717,-0.6062415540635585
1772556106121800000,6.696800048828125,-14.15487326606512,0.09531944585591554,-0.5919133881773799
1772556106131730700,6.706730712890625,-13.237220661008358,-2.2904393801257013,-0.8648407600626349
1772556106141662000,6.716661865234375,-12.553575549268722,-4.261265698102116,-0.6754910313785075
1772556106151592700,6.7265927734375,-11.698034240210056,-5.15840216935277,-0.13654990292135624
1772556106161524700,6.736524658203125,-10.597676459050177,-5.694716200709343,-0.05797196770366281
1772556106171455700,6.746455810546875,-9.448801022958754,-5.903880344671011,-0.4357749146236107
1772556106181387000,6.756386962890625,-8.473232235506176,-5.638623142087459,-0.8471262396737933
1772556106191317800,6.76631787109375,-7.801483313265442,-5.000103704753518,-0.9307202494878322
1772556106201248800,6.776248779296875,-7.298954647132754,-4.127830748863518,-0.7656783750429749
1772556106211179800,6.7861796875,-6.593827186903357,-3.422666171494126,-0.7168092032600194
1772556106221110800,6.79611083984375,-5.290391888219117,-2.6989482848241924,-0.9188933258328587
1772556106231041800,6.806041748046875,-3.5379940938949583,-1.7131436423003672,-1.3010114325381814
1772556106240973800,6.815973876953125,-1.5556021335482597,-0.7799635055050254,-1.3709814792126416
1772556106250904800,6.82590478515625,0.2122492504954338,0.07418664145618677,-1.069296068746224
1772556106260835800,6.8358359375,1.7224229272991418,0.9514180965363979,-0.7975288266815245
1772556106270766800,6.845766845703125,3.347919265806675,1.704423452489078,-0.7185209025487304
1772556106280697900,6.85569775390625,4.830446226271986,2.130358708284795,-0.6510363160144538
1772556106290628900,6.86562890625,6.035374388974905,2.6044661665752527,-0.07417648538835346
1772556106300560000,6.875559814453125,6.821664467152953,2.8766511225953697,0.6843867238871753
1772556106310492000,6.885491943359375,7.099693473026156,2.5243501350700854,0.18084705408103763
1772556106320423000,6.8954228515625,7.504778833016752,2.3937755436986685,0.04508475787341595
1772556106330353700,6.905353759765625,8.088788097006082,2.6821014871805904,0.5530987235493958
1772556106340285000,6.915284912109375,8.694466756489872,3.0830867183759807,1.1891391304839403
1772556106350216000,6.9252158203125,9.145572109377383,3.3060435331076383,1.7221218985259532
1772556106360146700,6.935146728515625,9.24283888990879,3.2289141161978243,1.7370993951663374
1772556106370078000,6.945077880859375,8.9447175285995,3.0184181391105054,1.0862433310896158
1772556106380009700,6.955009765625,8.819007912915945,3.2176921726986762,1.2327274392545222
1772556106389940700,6.964940673828125,8.590878371721505,3.274786517317593,1.4305134262420236
1772556106399871700,6.974871826171875,8.262139753830432,3.2426030343323946,1.452064748314768
1772556106409802800,6.984802734375,7.924647920641303,3.0737825911968946,1.2390844070658087
1772556106419733800,6.994733642578125,7.8800430552393195,2.7413436574831604,0.9981124815635383
1772556106429664800,7.004664794921875,7.81558841098547,2.21420925014317,1.0781057634718716
1772556106439595800,7.014595703125,6.783751208344102,2.194811598972976,1.5314263081908226
1772556106449527800,7.02452783203125,6.1847325912714,2.5762869507953523,2.3150993357382714
1772556106459458800,7.034458740234375,5.643776287066936,2.9833050324141976,2.5654282876506445
1772556106469389600,7.0443896484375,4.828490416029095,3.3084961869567633,2.8327117353647946
1772556106479320800,7.05432080078125,3.440508702176809,3.9813212139964103,2.9380326430141923
1772556106489251800,7.064251953125,2.2550749290168284,4.6103909782007335,1.8173602419696748
1772556106499182600,7.0741826171875,1.2238462136626242,5.038472306114435,-0.0440279422968626
1772556106509113900,7.08411376953125,0.7747516160756349,4.66236578784883,-1.8322513755008578
1772556106519044600,7.094044677734375,0.8475637543082237,3.8001933702126145,-2.8991511236950753
1772556106528976600,7.1039765625,1.4055717310786247,2.642612357357144,-3.0902903661444783
1772556106538907600,7.11390771484375,2.1384441073238847,0.5816331825077533,-2.8265461984723803
1772556106548839000,7.1238388671875,2.6513562203049656,-2.019342803864181,-2.541028298148513
1772556106558769700,7.133769775390625,2.34595346981585,-4.138357403574884,-2.250767587211728
1772556106568700700,7.14370068359375,0.9483335745245218,-4.904646603992581,-2.4731848882392047
1772556106578631700,7.153631591796875,-0.613131898099184,-3.9850490023478864,-2.105947466736287
1772556106588562700,7.163562744140625,-1.795980330941081,-3.209593621917069,-1.256312897503376
1772556106598494700,7.17349462890625,-4.166782995331287,-4.144252599093318,-1.5301660789966582
1772556106608425700,7.18342578125,-8.097745310443639,-4.343624247837067,-0.22611133323982358
1772556106618356700,7.193356689453125,-12.553159369683264,-3.5688580187141894,1.8266275442697106
1772556106628287700,7.203287841796875,-16.372939776158333,-3.5287680003881454,2.189075101147592
1772556106638218800,7.21321875,-18.900729238027335,-3.0228496918171643,2.2005245697923
1772556106648149800,7.223149658203125,-19.256339496231078,-2.35771200440973,1.993400553356111
1772556106658080800,7.233080810546875,-17.32415329003334,-2.5676690523147583,1.2955939375340937
1772556106668012800,7.2430126953125,-13.879936380988358,-3.230554284620285,1.401044901303947
1772556106677943800,7.25294384765625,-10.388391903579235,-3.9119256062090395,1.7888941720724105
1772556106687874800,7.262874755859375,-7.997855780193209,-4.2768905527353285,1.5947330975838006
1772556106697805600,7.2728056640625,-7.040464454466104,-4.030592609904706,0.7120807134333997
1772556106707736800,7.28273681640625,-6.602491554874181,-3.4087712093934415,-0.4087637562423944
1772556106717667800,7.292667724609375,-5.540509973859787,-2.843063325770199,-0.9423610029209405
1772556106727598600,7.3025986328125,-3.4416122795045374,-2.165608885364234,-0.6897936974972486
1772556106737529900,7.31252978515625,-0.8634691794484853,-1.2379048418924212,-0.06293189166598022
1772556106747462000,7.3224619140625,1.4873977813720702,-0.2896341034710407,0.2756845616389066
1772556106757392600,7.332392578125,3.271576030838489,0.35641689841151236,0.06029942427054047
1772556106767323600,7.34232373046875,4.398626004090905,0.8931403873518109,-0.36605771019905803
1772556106777255000,7.3522548828125,4.973065475702286,1.504367620873451,-0.6717141431882977
1772556106787185700,7.362185546875,5.229207643938064,2.1522510988801717,-0.7150606790922581
1772556106797116700,7.37211669921875,5.472958532634377,2.7559613809004424,-0.5456085139244794
1772556106807048000,7.3820478515625,5.840211882358789,3.1925626998782155,-0.3715142220392823
1772556106816979700,7.391979736328125,6.395948991587757,3.448372275158763,-0.16296820997595787
1772556106826910700,7.40191064453125,7.082637124285101,3.41061099204123,0.06541399080529808
1772556106836841700,7.411841796875,7.729966475540399,3.056664867657423,0.3520364913702011
1772556106846772700,7.421772705078125,8.240336502823233,2.607065535418689,0.7604007269009947
1772556106856703700,7.431703857421875,8.40327081052959,2.2195929890081283,1.1931757655888795
1772556106866634800,7.441634765625,8.278050439667702,2.0831702561303973,1.5598071840226648
1772556106876565800,7.451565673828125,8.05647280433476,2.2844392629280685,1.7285449173107743
1772556106886497800,7.461497802734375,7.717728340736031,2.681442146489024,1.6633033604629337
1772556106896428800,7.4714287109375,7.24500736836791,3.1072707270398734,1.3673995290726422
1772556106906359600,7.481359619140625,6.851537627369165,3.4635482169806955,0.97589232031852
1772556106916290800,7.491290771484375,6.4477136656165115,3.604892039647698,0.5786123733818531
1772556106926221800,7.501221923828125,6.020978199353814,3.750995331801474,0.46779710609987374
1772556106936152600,7.511152587890625,5.637365250980854,3.9154055572792887,0.8662241772450506
1772556106946083800,7.521083740234375,5.298472318822145,3.9062081053450703,1.5839308408014476
1772556106956015900,7.531015869140625,4.980343357750773,3.941663741868734,2.1680349434673785
1772556106965946600,7.540946533203125,4.7163954842001194,4.040722666513919,2.516428109899163
1772556106975878000,7.5508779296875,4.418022193956375,3.884054141204059,2.5160592765867706
1772556106985809000,7.560808837890625,4.3681531244158744,3.240602508164942,2.064758547257632
1772556106995739600,7.57073974609375,4.765486555105447,2.5817916856914755,1.8940166345402598
1772556107005671000,7.5806708984375,4.690481875264644,1.4976096710458398,1.5272954919964075
1772556107015601700,7.5906015625,3.7711195436805482,-0.21860008082687854,0.5517131144098937
1772556107025532700,7.60053271484375,2.110685162782669,-1.8374404685765504,-0.49213820502161976
1772556107035464700,7.610464599609375,0.2406879939943552,-2.8974294144690034,-1.111906326264888
1772556107045396000,7.62039599609375,-1.488966638123989,-3.318121508914232,-1.2430696773096919
1772556107055326700,7.63032666015625,-2.6011732625097035,-3.2503783445090053,-0.924713775614649
1772556107065257700,7.6402578125,-3.1543753003031014,-2.245890921086073,0.2930026300560683
1772556107075188700,7.650188720703125,-3.479994909390807,-1.1331921292692422,1.3389651694878935
1772556107085119700,7.66011962890625,-3.0567057841897007,-0.855713158494234,1.7405768620185553
1772556107095050800,7.67005078125,-3.234854612162709,-1.1587696381181478,1.398547823791206
1772556107104982800,7.679982666015625,-4.332828128534556,-1.9754110154181717,0.32977037209160626
1772556107114913800,7.689913818359375,-5.3393970344066615,-2.838898899567127,-1.124239007484913
1772556107124844800,7.6998447265625,-6.709532710444927,-3.1673493481665846,-2.149749052931368
1772556107134775600,7.709775634765625,-8.487935299119354,-3.1583237456679343,-2.503201548579335
1772556107144706800,7.719706787109375,-9.869334127449989,-3.097294984209537,-2.4526857055678963
1772556107154637800,7.729637939453125,-10.467356134700774,-3.341862742246687,-1.8397442154742776
1772556107164568600,7.739568603515625,-10.010694901251792,-4.014763757131994,-1.0990053436376155
1772556107174500600,7.74950048828125,-8.603884568288922,-4.819149463970959,-0.909508315437287
1772556107184431900,7.759431884765625,-6.862474031925201,-5.299274282854795,-1.160595099979639
1772556107194362600,7.769362548828125,-5.388793810260296,-5.164297072610259,-1.584449750109017
1772556107204293600,7.779293701171875,-4.538452992454171,-4.4948684100106355,-1.9076732578404247
1772556107214225000,7.789224853515625,-4.180766512498259,-3.4164924512952566,-1.8955591878071427
1772556107224155600,7.79915576171875,-3.9703602595210072,-2.33437233761549,-1.7152343309693037
1772556107234086700,7.809086669921875,-3.627592531755566,-1.3732909251987933,-1.5518008415691553
1772556107244018700,7.819018798828125,-3.0807635361254215,-0.5502691992118954,-1.384921741759777
1772556107253949700,7.82894970703125,-2.301370816245675,0.11774345910996198,-1.2201751239344476
1772556107263880700,7.838880615234375,-1.3177771277695893,0.5588756995156408,-0.8221836677275598
1772556107273811700,7.848811767578125,-0.2531131758034229,0.8007797913014888,-0.11407459787148981
1772556107283742700,7.85874267578125,0.8932406328558922,0.9750018012195825,0.5508373179560527
1772556107293673700,7.868673828125,1.9881904174923897,1.1661848828107118,0.8681520765677094
1772556107303604700,7.878604736328125,2.902915152403712,1.3660130431503057,0.7489503814734518
1772556107313536800,7.888536865234375,3.5991473585158587,1.429131470364332,0.32773773375283927
1772556107323467800,7.8984677734375,3.9948400362610816,1.426392108528316,-0.0007531929874792694
1772556107333398800,7.908398681640625,4.034462437075376,1.4521213008075953,-0.04016501979101449
1772556107343329800,7.918329833984375,3.85558295674026,1.4036474850177765,0.2611939717326313
1772556107353260800,7.9282607421875,3.595034077978134,1.277717504581809,0.7620437448676675
1772556107363191800,7.93819189453125,3.2621541224986315,1.1674784297525882,1.1360831014703958
1772556107373122800,7.948122802734375,2.9062083487302064,0.6278133344024419,1.1498388012308627
1772556107383054800,7.958054931640625,2.69911107417047,0.01834229689836502,0.9773565476521849
1772556107392985900,7.96798583984375,2.4208120191842317,-0.16912907069325447,1.0909162913367152
1772556107402916900,7.977916748046875,2.048171715724468,-0.15143734665811062,0.862509029179439
1772556107412847900,7.987847900390625,1.6666946103364229,-0.023155250138044356,0.46486317153982815
1772556107422779000,7.99777880859375,1.2402864763319492,0.23504005123525856,0.38415085464194415
