time,seconds_elapsed,z,y,x
1772556210104735200,0.0687353515625,3.1993156812697645,1.2375909536376595,0.10671645366102456
1772556210114666000,0.078666015625,2.7311025417149066,1.3145797930330037,-0.04201777151823043
1772556210124597000,0.088596923828125,2.2934078745424746,1.2612658437356352,0.003116378454864025
1772556210134528300,0.0985283203125,1.8722768041580915,1.1332982199922204,0.26197745026051994
1772556210144459000,0.108458984375,1.1355290477842093,1.1227084369167686,0.6946490285739302
1772556210154390000,0.11839013671875,0.8545920455098152,1.2868345847561955,1.1942387186452745
1772556210164321300,0.1283212890625,1.4568331317603587,1.549741424821317,1.831629736471176
1772556210174252000,0.138251953125,1.6653040327608584,1.715984710945189,2.313634962274134
1772556210184183000,0.14818310546875,1.875196490997076,1.308508656425774,2.008786630797386
1772556210194114300,0.1581142578125,2.0749001481741667,0.8687059110581874,1.4941452098056673
1772556210204045000,0.168045166015625,2.0384920332312584,0.4685448557272553,1.0936179515108466
1772556210213976000,0.17797607421875,1.7849995027214287,0.050449499776959415,0.5762330770298838
1772556210223907000,0.187906982421875,1.3879296914041042,-0.26636867095679045,0.05957242517024278
1772556210233838000,0.197838134765625,1.0414543412923811,-0.2946419947609305,-0.15395079078376292
1772556210243769000,0.20776904296875,0.9145283355563878,-0.1238099195420742,-0.010818915656208992
1772556210253700000,0.2177001953125,0.6488362486869096,-0.13853899437934158,-0.04814414544403553
1772556210263631000,0.227631103515625,-2.5935505125463005,-0.45021483378857374,-3.617542846906185
1772556210273562000,0.23756201171875,-4.4747260779529805,-0.33580548753738404,-3.9139603269070387
1772556210283493000,0.2474931640625,-4.8163224238514895,0.15649170743823052,-1.8560434622377155
1772556210293424000,0.257424072265625,-5.9810325579345225,0.5067623581796884,-2.7453172372892496
1772556210303355000,0.26735498046875,-6.428419767081738,1.098065286308527,-2.5733625877812503
1772556210313286100,0.2772861328125,-6.9481760468691585,1.6155235182866454,-1.9280255793869494
1772556210323217200,0.287217041015625,-5.770016064104437,0.7438070272356271,-1.903391488867998
1772556210333148000,0.29714794921875,-3.9222482627809043,-0.8002753489106893,-1.5996999262109397
1772556210343079200,0.3070791015625,-3.8103900623172517,-1.9059362049147486,-1.6143123889312148
1772556210353011200,0.31701123046875,-3.7549440694272516,-2.5950556564122436,-1.7646376826941965
1772556210362942000,0.32694189453125,-3.329076618170738,-1.8497808947116134,-0.43857787974774837
1772556210372873000,0.336873046875,-3.172255824908614,-1.7483727765917776,-0.09259235897958278
1772556210382804200,0.34680419921875,-1.5715122348636388,-1.8994827909916638,-0.4789234802700579
1772556210392735000,0.35673486328125,-0.6967080069303512,-1.6851771924883125,-1.128929211127758
1772556210402666000,0.366666015625,-1.2934884896874428,-1.8236670870289204,-2.331987342175096
1772556210412597200,0.37659716796875,-4.305233434644341,-4.186048544554412,-4.779384732076525
1772556210422528000,0.386528076171875,-6.5272098116576664,-5.367533580088615,-5.602171772524714
1772556210432459000,0.396458984375,-7.371576231229305,-4.689590771643817,-4.526431715270877
1772556210442390300,0.406390380859375,-8.424858957481383,-4.383461460445821,-2.619413852599263
1772556210452321000,0.416321044921875,-8.792094771549106,-3.94942063960582,-0.6555104657538234
1772556210462252000,0.426251953125,-7.895757926243543,-3.155416626049578,0.4998350431345403
1772556210472183000,0.43618310546875,-6.856787218460441,-3.244983499728143,1.2999617773547767
1772556210482114000,0.446114013671875,-6.090470837774872,-3.427875722835958,1.7057155381262301
1772556210492045000,0.456045166015625,-5.688778627353907,-3.2906197540044784,1.276222735979408
1772556210501976000,0.46597607421875,-5.74449817648828,-2.7905820279046893,0.7171595510676503
1772556210511907000,0.475906982421875,-5.321139493182301,-1.4930400250427425,0.630237638939917
1772556210521838000,0.485838134765625,-3.8943390961140394,-0.3307470351040363,0.29811354332901535
1772556210531769000,0.49576904296875,-2.2557927218973637,0.4899376262374222,-0.1845092298503965
1772556210541700000,0.5057001953125,-0.6537339576005935,1.2886391499601304,-0.27830080855190753
1772556210551630800,0.515630859375,0.38890754764974117,2.077025177504122,-0.44093459894172843
1772556210561562000,0.52556201171875,-0.19963643715977666,3.2836668661266564,-2.7973659889563915
1772556210571493000,0.5354931640625,0.5847609591394662,3.740067987334728,-1.4718538830205796
1772556210581423900,0.545423828125,1.3388392050206661,3.607878361982107,0.4803129983996972
1772556210591355100,0.555355224609375,1.4892138908833263,3.636897827978432,1.6538981109969317
1772556210601286100,0.5652861328125,1.9715753827780484,3.948249257738888,2.0997939125426113
1772556210611217000,0.575216796875,3.5113363885939117,4.190886632235348,0.9410608070425689
1772556210621148200,0.585148193359375,5.305827357760071,4.39222022870183,-0.39806580008473247
1772556210631080200,0.595080078125,7.1393299023658034,4.397563927817345,-1.2643898209750652
1772556210641011000,0.605010986328125,8.771210388952493,4.216849633270502,-2.008119399060309
1772556210650942200,0.614942138671875,9.788159234541654,3.926257498422265,-1.7749996483631432
1772556210660873200,0.624873291015625,10.461652370101213,3.41542219171524,-1.352678491411358
1772556210670804000,0.634803955078125,11.077552563869952,2.5591616284713146,-1.703402146617323
1772556210680735200,0.6447353515625,11.457490623122453,2.5279642339140174,-1.444403127645701
1772556210690666200,0.654666259765625,11.572798087257146,2.7165686971887943,-1.0886252577900886
1772556210700597000,0.664596923828125,11.39831947222948,2.514969727784395,-1.489962663424015
1772556210710528300,0.6745283203125,10.94555232360959,2.3342744301989673,-2.0194988712087274
1772556210720459000,0.684458984375,10.598638582080602,2.259141155542433,-2.260017646116018
1772556210730390000,0.69439013671875,10.31626424047947,2.5379759248405693,-1.8272829394385217
1772556210740321300,0.7043212890625,9.766097040337323,2.446584904474765,-1.442282043838501
1772556210750252000,0.714251953125,8.8104750623703,2.0018334506586193,-0.8860228104315697
1772556210760183000,0.72418310546875,7.924543291223049,1.5625025605864822,0.8380221651114523
1772556210770114300,0.7341142578125,7.636028547170758,0.9163599348977207,2.649625158728659
1772556210780045000,0.744045166015625,7.391509596711397,0.106357557220757,3.625201837226748
1772556210789976000,0.75397607421875,6.458958697730303,-0.40426673708409067,4.333527508975565
1772556210799907300,0.7639072265625,5.4664516349583865,-0.6889801891572773,4.3116970777004955
1772556210809838000,0.773838134765625,4.652700133880972,-1.239963381857425,3.511535710558295
1772556210819769000,0.78376904296875,3.5154777261823416,-1.8012400050349533,2.4440689761310814
1772556210829700000,0.7937001953125,1.7955220657795667,-2.2508149334847927,1.4892138908833263
1772556210839631000,0.803631103515625,0.11525836429595947,-2.7001711046174166,0.9351703607644886
1772556210849562000,0.81356201171875,-1.8015777125567196,-3.199788559478521,0.7725730299275368
1772556210859493000,0.8234931640625,-4.526259281313419,-3.3722692786872384,0.9945273896183818
1772556210869424000,0.833424072265625,-7.838371905201673,-3.422315750621259,1.1399107699997721
1772556210879355100,0.843355224609375,-11.07242981402874,-3.119664344666898,1.111462381889671
1772556210889286100,0.8532861328125,-13.617515278613567,-2.054044699411094,1.0380514009810984
1772556210899218200,0.86321826171875,-15.726891112363338,-1.7872364679932593,0.16434110576435923
1772556210909149200,0.873149169921875,-16.800017187726496,-2.3466180712044236,-1.09238534097597
1772556210919080000,0.883079833984375,-16.40802044188976,-3.4487697500437497,-1.6149625234030187
1772556210929011200,0.89301123046875,-15.68093366330862,-4.914463649129868,-0.7874998923592269
1772556210938942200,0.902942138671875,-15.382590183681248,-6.426224302864075,0.5348442510649561
1772556210948873000,0.912873046875,-15.1207220390141,-7.673489970558881,1.232742929084599
1772556210958804200,0.92280419921875,-14.271812715315818,-8.232504494023322,1.2837808962740003
1772556210968735000,0.93273486328125,-12.991150973975657,-8.097723098611832,1.232639322579652
1772556210978666000,0.942666015625,-11.623515882581472,-7.572855759420991,1.2321022930935024
1772556210988597200,0.95259716796875,-10.31609589817524,-6.84658672696352,1.5246106368266046
1772556210998528000,0.962528076171875,-8.998919658908248,-6.250013164955377,2.042058931932598
1772556211008459000,0.972458984375,-7.452790871626139,-5.928689791756868,2.57638398142904
1772556211018390300,0.982390380859375,-5.84601092402637,-5.531837422582507,2.705823431290686
1772556211028321000,0.992321044921875,-4.2214556657612325,-4.7053076884746545,2.496220603650808
1772556211038252000,1.002251953125,-2.5897721630513666,-3.639738312101364,2.1374881217733024
1772556211048183300,1.012183349609375,-1.0838327628165483,-2.32776957834959,1.6702710075184701
1772556211058114000,1.022114013671875,0.32932840047776696,-0.7828428603336215,1.3336530345544217
1772556211068045000,1.032045166015625,1.6272154173851012,0.9588771803706884,1.234981063400209
1772556211077976000,1.04197607421875,2.8390859465718266,2.771040584349632,1.1316839897286146
1772556211087907000,1.051906982421875,4.046774806159735,4.465847774970531,0.940516032641381
1772556211097838000,1.061838134765625,5.237416669356823,5.851795937168598,0.585779415467009
1772556211107769000,1.07176904296875,6.483782757863402,6.93983550402522,0.22041757857762276
1772556211117700000,1.0817001953125,7.788863485667109,8.006968476453423,0.21164083627350627
1772556211127631000,1.091631103515625,8.930535273990035,8.705508959507942,0.42387576598264276
1772556211137562000,1.10156201171875,9.759905199959874,8.519379069653153,0.9835746915146708
1772556211147493000,1.1114931640625,10.87363625743389,9.084804044681787,0.7281868487775325
1772556211157425200,1.121425048828125,11.787550260484219,9.334591875454782,0.25638503708094357
1772556211167356000,1.13135595703125,12.22554420286417,9.034423518487811,0.5257648725524544
1772556211177287200,1.141287109375,12.66285074750185,8.238498766002058,1.0264921883516014
1772556211187218200,1.15121826171875,13.211938920235633,7.481755100303888,1.2027139937847853
1772556211197149000,1.16114892578125,13.82801096343994,7.191414894390106,1.1760776235327124
1772556211207080200,1.171080078125,14.188076447486877,7.0857988031864165,1.0675145190916955
1772556211217011000,1.181010986328125,14.244682716327905,6.617429596287011,0.9517477668821811
1772556211226942000,1.19094189453125,14.004213918042183,6.0112827347695825,1.1228627506956457
1772556211236873200,1.200873291015625,13.344029176867007,5.569849465590715,1.547161199069768
1772556211246804000,1.210803955078125,12.134071203303336,5.361054154941439,1.9766516631290316
1772556211256735000,1.22073486328125,9.723083243519067,5.137466348829865,2.3412024758964773
1772556211266666200,1.230666259765625,4.587022669833898,3.4172307024419304,1.549631534706056
1772556211276597000,1.240596923828125,3.6274943320780992,3.2456314422428605,2.1972011244580147
1772556211286528000,1.250528076171875,1.8403367745399475,2.9431559773772955,2.5252877081811427
1772556211296459300,1.260459228515625,0.902041778948903,1.8298466524466872,2.601096105620265
1772556211306390000,1.27039013671875,0.062218263503909105,1.4952175152122973,2.8783593878179787
1772556211316321000,1.280321044921875,-1.4943296264618635,1.0676315696001053,2.7617650987431404
1772556211326252000,1.290251953125,-2.8952304431200027,0.1768544042482972,2.414009937953949
1772556211336183000,1.30018310546875,-3.580369592809677,-1.0643480178847908,2.1125641083970663
1772556211346114000,1.310114013671875,-3.6628070529997347,-2.7402733979031444,1.65081446576789
1772556211356045000,1.320045166015625,-3.407954924574494,-4.327373077999055,1.0415066560015083
1772556211365976000,1.32997607421875,-3.379351345902681,-5.482954441469907,0.40979390300773083
1772556211375907000,1.339906982421875,-4.087337702694535,-6.045464405834674,-0.250133392807655
1772556211385838000,1.349838134765625,-5.40400365435183,-5.887379291725158,-1.090554106960818
1772556211395770000,1.35977001953125,-6.799649619221687,-5.3001475585579865,-1.7882142269842325
1772556211405701000,1.369701171875,-8.11995597320795,-5.398854601025581,-2.095309168343991
1772556211415632100,1.379632080078125,-9.8896404178977,-6.3204842930197715,-1.8090867730125784
1772556211425563100,1.389563232421875,-12.757896344852448,-7.324335172104835,-0.9930810632675886
1772556211435494100,1.399494140625,-16.348181766998767,-8.595016202178597,-0.34502401879224925
1772556211445425200,1.409425048828125,-19.691756866121292,-9.858473710739611,-0.03188544075354002
1772556211455356200,1.419356201171875,-22.61439670969248,-10.193076252228021,0.04617583191259764
1772556211465286100,1.4292861328125,-25.720026976048945,-9.294995778125523,0.12173423664602451
1772556211475217400,1.439217529296875,-28.395839592218397,-7.772078939604759,0.2970550289857201
1772556211485148200,1.449148193359375,-29.192367571294305,-6.482601439124346,0.4528150428822264
1772556211495079200,1.4590791015625,-27.860836058938503,-5.4212540643602605,0.7527295346859842
1772556211505010400,1.469010498046875,-25.039881981384752,-4.193395107924938,1.3976410842098295
1772556211514941200,1.478941162109375,-21.293267348885536,-2.6693673855528233,2.4047161860384048
1772556211524872200,1.4888720703125,-16.764284195566177,-1.097343401774764,2.9826775481656194
1772556211534803500,1.498803466796875,-11.78224981598854,0.523807308743894,3.2007600348591803
1772556211544734200,1.508734130859375,-7.179575988036394,2.205731344655156,3.0161800047948955
1772556211554665200,1.518665283203125,-2.99946998527348,4.0674636661842465,1.8387744936592876
1772556211564596500,1.528596435546875,0.7913456080019473,6.028336745423078,0.3163885471448302
1772556211574527200,1.53852734375,4.119773991397023,7.732019900938868,-0.09266363411750644
1772556211584458200,1.548458251953125,7.115068152290582,8.4622414704144,-0.4441227274585515
1772556211594389200,1.55838916015625,10.59067856298685,10.620278751480578,-1.5485589370384811
1772556211604320300,1.5683203125,13.401400000339745,13.110890283077955,-1.1118812648888676
1772556211614251300,1.578251220703125,15.181832633537054,14.334176524770259,-0.8499204735022038
1772556211624182300,1.588182373046875,16.401193226218222,15.142196204197406,-0.6294303411450237
1772556211634114300,1.5981142578125,17.707983096027373,15.28835005749464,-0.10378960642889141
1772556211644045300,1.60804541015625,19.407840555775163,14.519341368985176,0.4892537356264889
1772556211653976300,1.617976318359375,21.37563583549261,13.50027421606779,0.9575807108193636
1772556211663907300,1.6279072265625,23.214443500769136,12.704106302475928,1.5123749862402676
1772556211673838300,1.63783837890625,24.734894825959206,11.697929026269913,2.006221602614969
1772556211683769300,1.647769287109375,25.999699657475947,10.823107847201824,2.3444174924202263
1772556211693700400,1.657700439453125,26.36306885924339,10.46624554311037,2.4754548789978026
1772556211703631400,1.66763134765625,25.586155096697805,10.380630621927976,2.4558500148177145
1772556211713562400,1.677562255859375,23.917574234223366,10.517278980255126,2.4404899486005305
1772556211723493400,1.687493408203125,21.37039618127346,10.579864908027648,2.646829098269343
1772556211733424000,1.697424072265625,17.94275631301999,10.576789153844118,3.263937498784065
1772556211743355400,1.70735546875,13.817952510762213,10.609642791175842,4.13619145771265
1772556211753286400,1.717286376953125,6.871123786848783,9.634632806649803,4.095649311704934
1772556211763217200,1.727217041015625,2.1577917818725108,7.6605428107023235,3.9447438799664374
1772556211773148400,1.7371484375,0.2558668584257364,7.79542591292262,5.314672927516699
1772556211783079400,1.747079345703125,-0.7023778692603111,6.922184112000465,5.480736180898547
1772556211793010200,1.75701025390625,-1.7664263196766374,5.834822590535879,5.18911821013391
1772556211802941400,1.76694140625,-4.041408895212411,4.986066411572694,4.195086129751801
1772556211812872400,1.77687255859375,-7.13349988103807,3.5511227477982636,2.4767531021147966
1772556211822803200,1.78680322265625,-10.188076251983642,1.4638161225154995,0.5134748979629948
1772556211832734500,1.796734375,-11.316809063756466,-0.43853082573562857,-1.0985364840168506
1772556211842665200,1.806665283203125,-9.775029703855514,-2.112964213630557,-1.596798797941953
1772556211852596200,1.81659619140625,-7.083518583294749,-4.266775985956191,-0.3699093441259116
1772556211862527500,1.826527587890625,-4.940651983353495,-5.67299361372292,1.8682285516805945
1772556211872458200,1.836458251953125,-5.094231602737307,-5.503769265961647,4.023703727173805
1772556211882390300,1.846390380859375,-8.576756907388567,-4.688390455943345,4.695439789932966
1772556211892321300,1.8563212890625,-13.102787640643118,-3.2324241701453924,3.557419802115857
1772556211902252300,1.866252197265625,-16.242341219389438,-1.5607891807973384,1.3410495745465159
1772556211912183300,1.876183349609375,-17.265829695880413,-0.47284459874778983,-1.101857518198341
1772556211922114300,1.8861142578125,-16.900213591969013,0.19644911236055193,-2.5563655680119988
1772556211932045300,1.89604541015625,-17.14112311975956,-0.5991404898867011,-3.240353209578991
1772556211941976300,1.905976318359375,-18.30298663223982,-2.411458499905467,-3.023721213954687
1772556211951907300,1.9159072265625,-20.103335095262526,-4.349838884568214,-1.300875385068357
1772556211961838300,1.92583837890625,-22.40207731657028,-5.590796392029524,0.6115946785945445
1772556211971769300,1.935769287109375,-24.69297525411844,-5.825621046948433,1.2983521502010524
1772556211981700000,1.9457001953125,-26.39889771299362,-5.663707314461469,0.7915702836032956
1772556211991631400,1.95563134765625,-26.744719567632675,-4.802809446805715,-0.11258439584635198
1772556212001562400,1.965562255859375,-25.784593263983727,-3.462153547751903,-0.6754035722907632
1772556212011493000,1.9754931640625,-24.48159577219486,-1.895250560249388,-0.7595651528596877
1772556212021424400,1.98542431640625,-22.831116383600232,0.15813611364439129,-0.7052665764391421
1772556212031355400,1.99535546875,-20.234426988506318,1.9550906964451074,-1.1950617254659532
1772556212041286100,2.0052861328125,-16.42838518452644,3.424020216451585,-1.8742828832834957
1772556212051217400,2.015217529296875,-12.180809573602676,4.792201835812628,-1.9167846389263867
1772556212061148400,2.0251484375,-8.097126301762462,6.021221944981813,-1.1850431664071976
1772556212071079200,2.0350791015625,-4.244990855127573,7.173560673269629,0.4908988724850118
1772556212081010400,2.045010498046875,-0.8938350916177034,8.550738084512949,2.1986215126499533
1772556212090941200,2.054941162109375,1.9204747256159782,10.576646530503034,3.1862516170352695
1772556212100873200,2.064873291015625,4.406137110373377,12.787234667539595,2.9870512332051993
1772556212110804200,2.07480419921875,7.5825377800017595,14.713053092271089,1.6819037237755954
1772556212120735500,2.084735595703125,12.046246789377927,16.20024161480665,-0.18963614441007376
1772556212130666200,2.094666259765625,16.999278361833095,16.596992861694098,-1.744755024486035
1772556212140597200,2.10459716796875,21.214822173202037,15.95130309433937,-1.488831759697944
1772556212150528300,2.1145283203125,25.86498606660366,15.892038419944047,-1.747901505818218
1772556212160459300,2.124459228515625,29.273365938591954,14.871983425033092,-1.9849987818442283
1772556212170390300,2.134390380859375,30.012564010727402,13.111042258769274,-1.132517298747599
1772556212180321300,2.1443212890625,29.565206027674673,11.558003838229178,-0.08700286840945481
1772556212190252300,2.154252197265625,29.06581390600204,10.675897178328036,0.7048213168896734
1772556212200183300,2.164183349609375,28.251327076387405,9.91260043772459,1.3152259819820522
1772556212210114300,2.1741142578125,27.120179020166397,9.367586967083811,2.074683290553093
1772556212220045300,2.18404541015625,25.812528734135626,9.22286519241631,2.982973023980856
1772556212229976300,2.193976318359375,24.184032044768333,9.05950710633993,3.6534985419064756
1772556212239907300,2.2039072265625,22.034529952335355,8.831896036061645,4.000211792427301
1772556212249838300,2.21383837890625,19.422848739814757,8.767329748126864,4.546468541127443
1772556212259769000,2.22376904296875,16.695847203677893,9.059785338759422,4.977426008999347
1772556212269700400,2.233700439453125,13.9784423479259,9.528152792093158,4.5833314141005275
1772556212279631400,2.24363134765625,11.478941407430172,9.916752881228923,3.881607040312886
1772556212289562000,2.25356201171875,9.052653587183356,10.51343048813343,3.4438910380914804
1772556212299493400,2.263493408203125,6.436389138525724,11.40344806728959,3.2575495513126254
1772556212309424400,2.27342431640625,2.5757395460456607,11.426325085008143,2.906300703188777
1772556212319355100,2.283355224609375,-2.4862065746366975,9.622483519172668,2.8347999398156998
1772556212329287200,2.293287109375,-7.107139697378873,7.655842085665464,3.559908404061198
1772556212339218400,2.303218505859375,-10.857585286343097,5.140673620438576,4.209785393972695
1772556212349149200,2.313149169921875,-12.786341518092154,3.0192455298453567,4.959560681962967
1772556212359080200,2.323080078125,-13.031578845953941,2.0684205768965183,5.9866088967621325
1772556212369011500,2.333011474609375,-12.741987997102736,1.409420223200321,6.90361794321835
1772556212378942200,2.342942138671875,-12.634695497119425,0.8559075120225548,7.397623111155629
1772556212388873200,2.352873291015625,-13.270437870955467,0.37810353730171914,8.153709189727902
1772556212398804200,2.36280419921875,-14.806306545507907,0.9289388459637761,9.531734742233157
1772556212408735200,2.3727353515625,-17.511293818235398,2.0390438218951226,10.596644193392992
1772556212418666200,2.382666259765625,-20.294833818674086,3.1069200139060613,10.77029629446864
1772556212428597200,2.39259716796875,-22.146849340569972,3.8285654782161114,10.26680199817419
1772556212438528300,2.4025283203125,-22.91876427191496,4.083821219006181,9.25399039852023
1772556212448459300,2.412459228515625,-23.584485604429243,4.066491314020753,7.385960145890713
1772556212458390300,2.422390380859375,-24.340747039568424,4.275869100733101,5.3380216544002295
1772556212468322300,2.432322265625,-25.17683779822588,4.859351418238878,3.7300206405729055
1772556212478253300,2.44225341796875,-25.663237167334554,5.867430728673934,2.5152172728046773
1772556212488184300,2.452184326171875,-25.607642121362684,7.515925080931186,1.4866839340142906
1772556212498115300,2.462115234375,-25.058472115564346,9.49905353885889,0.9474518963191658
1772556212508046300,2.47204638671875,-25.001689321112632,10.887490595263243,0.2503128410277888
1772556212517977300,2.481977294921875,-25.180768123412133,12.145268304622173,-0.5294490409579128
1772556212527908400,2.491908447265625,-24.455325020384787,12.841952930676936,-1.393820356877893
1772556212537839400,2.50183935546875,-22.403260388875005,12.896015360254049,-2.7384488128244877
1772556212547771100,2.511771240234375,-19.269177935016153,12.80339669778943,-3.856522575677931
1772556212557702400,2.521702392578125,-15.234347249150275,12.651350863844156,-4.528427857524156
1772556212567633400,2.53163330078125,-11.125143167084454,12.908462169373035,-4.8412967061102385
1772556212577564200,2.541564208984375,-7.13370446369946,13.335821320492029,-5.421993484550714
1772556212587495400,2.551495361328125,-2.791272055995464,13.374024502158164,-6.744779964914917
1772556212597426400,2.561426513671875,1.4520423903524875,12.594638212019204,-8.43538327410519
1772556212607357200,2.571357177734375,5.810480760961771,11.752747827172279,-9.236806624007224
1772556212617288400,2.581288330078125,11.146091262567042,11.10765661023259,-8.724044148629904
1772556212627219200,2.59121923828125,16.869270172172783,10.794456922256947,-7.960111448210477
1772556212637150200,2.601150146484375,21.772315770709515,10.537353800034522,-7.702703205561638
1772556212647081500,2.61108154296875,25.423176365327834,10.40201593978405,-7.46699767615497
1772556212657012200,2.62101220703125,28.210737876367567,10.023293686062097,-7.016587904316187
1772556212666943200,2.630943115234375,29.585047038698196,9.537875144684314,-6.216371592116356
1772556212676874500,2.64087451171875,29.448028093492983,9.418499408197402,-5.037612474414706
1772556212686805200,2.65080517578125,28.45447181392908,9.177236829185485,-3.493279338377714
1772556212696736300,2.660736328125,27.245883959674835,8.886476936554908,-1.8045006142660975
1772556212706667300,2.670667236328125,26.067342868638036,8.691146087634563,-0.3935872298985719
1772556212716598300,2.680598388671875,24.558350510573387,8.690037834131717,0.7875663817241787
1772556212726529300,2.690529296875,22.499145359659195,8.808115932023524,1.9210452189803122
1772556212736460300,2.700460205078125,19.970470931649206,9.033058659875392,3.139491327165067
1772556212746391300,2.710391357421875,17.217669768345356,9.360990637558698,4.463648511360585
1772556212756323300,2.7203232421875,14.222467377388476,9.530789570337534,5.792040848907828
1772556212766254000,2.730254150390625,11.041520296502112,9.470858540987967,7.300642746350169
1772556212776185300,2.740185302734375,7.846161828425526,8.88533594982624,8.983338058894873
1772556212786116400,2.750116455078125,5.296727520981431,7.83269035243392,10.587125838941335
1772556212796047000,2.760047119140625,2.935887447679043,6.186492586681246,11.242291875171661
1772556212805978400,2.769978271484375,0.1733008034199476,4.0318122148275375,10.415993027210234
1772556212815909400,2.779909423828125,-2.2801403966903684,1.9426973710790276,9.089196726682781
1772556212825840000,2.789840087890625,-3.7357103766471145,0.01864387366082519,8.40472217838168
1772556212835771400,2.799771484375,-3.99435839022398,-1.4634890825182199,8.436116264554858
1772556212845702400,2.809702392578125,-3.142971862757206,-2.388927226884663,9.120844495356083
1772556212855633200,2.819633056640625,-1.5527385608106852,-3.0423870437189935,9.924916313940287
1772556212865564400,2.829564453125,-0.06586451105177402,-3.491153724525869,10.08861868340969
1772556212875495200,2.8394951171875,0.34216683926284314,-3.956155500818789,9.19332228706777
1772556212885426200,2.84942626953125,-0.10071604420244692,-4.061008790956437,8.41604319834113
1772556212895357400,2.859357421875,-1.1991729601770638,-3.4420614845767616,8.202122215241193
1772556212905288200,2.8692880859375,-3.0086937406927343,-2.7838465821698306,7.990690126347541
1772556212915219200,2.87921923828125,-5.5129953594684595,-2.1849021993771194,8.305517707785963
1772556212925150500,2.889150390625,-8.792224535408616,-1.0530696680232883,9.653779405668377
1772556212935081200,2.899081298828125,-12.388933268600702,1.0660682658061384,11.213117218613624
1772556212945012200,2.90901220703125,-16.386377934402226,3.269369752965867,11.02589602639079
1772556212954944300,2.9189443359375,-20.7679972741127,5.367615997675061,9.185102155733109
1772556212964875300,2.928875244140625,-24.68219667047262,7.36108464783132,6.880799377688765
1772556212974806300,2.93880615234375,-28.180211805200575,8.639932033225893,4.835690848927199
1772556212984737300,2.9487373046875,-30.372575718760487,9.830641116440296,3.5414927496656774
1772556212994668300,2.958668212890625,-31.545451623642442,10.825737026661633,2.549900171390176
1772556213004599300,2.968599365234375,-32.41266700388193,11.161452497828007,1.2876289500042795
1772556213014530300,2.9785302734375,-32.40794640510082,10.515268224954605,-0.8563359665676951
1772556213024461300,2.98846142578125,-30.733440828752517,9.736777422350645,-2.7821044146776197
1772556213034392300,2.998392333984375,-27.285547277021408,9.154142369323969,-3.9024958068236706
1772556213044323300,3.0083232421875,-22.507627941322326,8.648452024289965,-4.415228763845563
1772556213054254300,3.01825439453125,-17.254557775759697,8.090888868677615,-4.591453053496778
1772556213064185300,3.028185302734375,-12.507768906861543,7.445521757405996,-5.108164851021766
1772556213074116400,3.038116455078125,-8.650075241577625,7.091731115844845,-5.667222629106044
1772556213084047400,3.04804736328125,-5.340782935807108,7.319671856468916,-5.407094606104493
1772556213093978400,3.057978271484375,-2.0924287906020878,8.182290556567906,-4.6175241910815235
1772556213103909400,3.067909423828125,2.0140017350971697,8.782115229326486,-4.556487246316671
1772556213113840400,3.07784033203125,6.698869277611374,9.233093740963936,-4.880473408983647
1772556213123771100,3.087771240234375,10.579121396183966,10.061102899974584,-5.075322904127836
1772556213133702400,3.097702392578125,12.897566681349277,10.576797337150573,-5.248929412496089
1772556213143633400,3.10763330078125,14.237341121393442,10.872156248009205,-5.460166855600476
1772556213153564200,3.117564208984375,15.596395431447029,11.162200685846805,-5.339114710333943
1772556213163496200,3.12749609375,17.318488103878497,11.32366550552249,-5.228209865072369
1772556213173427500,3.137427490234375,19.16916857777834,11.090903043830394,-5.035417594718933
1772556213183358200,3.147358154296875,20.471022744750975,10.471907222133874,-4.743590365117788
1772556213193289200,3.157289306640625,21.175168208205697,9.771779177626966,-4.632550203038752
1772556213203220500,3.167220458984375,21.506680966985225,8.988604601120949,-4.567104501920938
1772556213213151200,3.177151123046875,21.628146953749656,8.185756186851858,-4.3311467513188715
1772556213223082200,3.187082275390625,21.280739875745773,7.401351776289939,-3.738201024419069
1772556213233013500,3.197013427734375,20.70158389700651,6.49286915063858,-2.6160943527877327
1772556213242944300,3.2069443359375,20.17576904783249,5.589803873860836,-0.7311743401557207
1772556213252875300,3.216875244140625,19.5388506159544,4.998035666307807,1.7607571879990398
1772556213262806500,3.226806640625,18.25572686841488,4.613685928092897,4.198411767043173
1772556213272737300,3.2367373046875,15.844143865346908,4.2163600961878895,6.253225697261095
1772556213282668300,3.246668212890625,12.371734296518564,3.6529359395876524,7.52089819316864
1772556213292599300,3.256599365234375,8.51250509223044,2.910965187868476,7.974612267249822
1772556213302530300,3.2665302734375,5.02065315630734,2.0380346448525786,8.161645243424177
1772556213312461300,3.27646142578125,2.1014351038783787,1.0915306238427758,8.314392503637075
1772556213322392300,3.286392333984375,-0.21511808393001555,0.29872298046424983,8.516655782169103
1772556213332323300,3.2963232421875,-1.6416168677031993,0.2107499518483877,8.470826927930116
1772556213342254300,3.30625439453125,-2.548739310917258,0.5035908885367214,7.690534628862142
1772556213352186000,3.31618603515625,-3.2934429947316644,0.9858172097444534,6.713894412785768
1772556213362117400,3.326117431640625,-4.252674979889393,1.192997851738706,5.6882391136497255
1772556213372048400,3.33604833984375,-5.229007737451791,1.1937580955214797,4.642354388694465
1772556213381979100,3.345979248046875,-5.53198179948926,1.1518437843777238,3.4204043640419837
1772556213391910400,3.355910400390625,-4.970204825574159,0.5369203266866505,2.127771176009625
1772556213401841400,3.36584130859375,-3.797784263244271,-0.42330242307409643,1.1033673382394016
1772556213411772200,3.375772216796875,-2.790778719520569,-1.2320564081251622,0.58656304012537
1772556213421703400,3.385703369140625,-2.7241648514062167,-1.8566859979249535,0.42369580630585546
1772556213431634200,3.39563427734375,-3.631047640645504,-3.335026466485858,-0.08269947212710976
1772556213441565200,3.405565185546875,-5.325462617078423,-4.6090965544760225,-1.0897703361719846
1772556213451496400,3.415496337890625,-7.586991836801171,-3.599026654745638,-1.6625626250982284
1772556213461427200,3.42542724609375,-10.443262142407894,-1.231083909831196,-1.963340346135199
1772556213471357700,3.435357666015625,-13.92445239906311,0.26627821619436143,-2.835639605510235
1772556213481289000,3.4452890625,-17.31439645065069,0.7657964484646916,-4.367263482099771
1772556213491219700,3.4552197265625,-19.984929665112496,0.7900812871545553,-6.80919252359271
1772556213501150700,3.465150634765625,-22.371107008767126,0.29609482391774655,-9.631534256112575
1772556213511082000,3.47508203125,-24.394270539963244,-0.48650282948315143,-11.696942353320122
1772556213521012700,3.4850126953125,-25.08117962193489,-1.479584623403102,-12.360407431340217
1772556213530943700,3.49494384765625,-24.46166357575655,-2.3960379356727004,-11.71274197999835
1772556213540876000,3.5048759765625,-22.798062839782236,-2.967235941144824,-10.421005886936188
1772556213550806800,3.514806884765625,-20.56228531643152,-3.4253619864493605,-9.194026051422954
1772556213560737800,3.52473779296875,-18.54578650382161,-3.308443872247636,-8.243416348659991
1772556213570669000,3.5346689453125,-16.742315524864196,-2.6511598209500313,-7.6340721524059765
1772556213580599800,3.544599853515625,-14.923402646625041,-1.5645958796039223,-6.903925401732325
1772556213590530800,3.55453076171875,-12.906089010500907,-0.151444068659842,-5.7073021260380745
1772556213600462000,3.564462158203125,-10.36782959254384,1.2958926282197236,-4.008099330806732
1772556213610392800,3.574392822265625,-7.220879473805427,2.649816589647531,-1.905314273624122
1772556213620323800,3.58432373046875,-3.568480417573452,4.130203323213756,0.15746902803778648
1772556213630254800,3.5942548828125,0.48293198525905606,5.79105008430481,2.04551126434356
1772556213640185900,3.604185791015625,4.612256479811668,7.854884648585319,3.4898218914002177
1772556213650116900,3.614116943359375,8.198001335918903,9.970229619872569,3.8766844892188903
1772556213660048000,3.6240478515625,10.965518422317505,11.572356188708543,3.2140771970719095
1772556213669979000,3.633978759765625,13.099901271551847,12.439431283694505,2.1654332365363835
1772556213679910000,3.643909912109375,14.613390941035746,12.78634853235483,1.4450857030823825
1772556213689841000,3.6538408203125,15.657690734887122,13.044141390407084,1.5877511297419666
1772556213699772000,3.66377197265625,16.263717184895278,12.7674602920115,2.3490376995667814
1772556213709702700,3.67370263671875,16.541850235664842,12.839009278440475,3.144461809054017
1772556213719634000,3.683634033203125,17.62109508616924,12.813192115616797,3.811946936370432
1772556213729566000,3.69356591796875,18.456966064596177,11.698506533896923,4.507573285543918
1772556213739497000,3.7034970703125,19.142184709262846,11.429122606772184,5.582427207612991
1772556213749427700,3.713427734375,19.558960507047175,10.923379070246218,6.224501122558117
1772556213759359000,3.72335888671875,19.485259311020375,10.590337202203273,6.08782762978971
1772556213769289700,3.733289794921875,18.447852199292182,10.66930844758749,5.591344673562049
1772556213779220700,3.743220703125,16.30106462651491,10.436589240515232,4.79024807139635
1772556213789152000,3.753152099609375,14.139147289144992,10.073170938909053,3.808064249718189
1772556213799082800,3.763082763671875,12.596240971040725,9.614013212469219,3.5325086482211945
1772556213809013800,3.773013671875,11.378242314362526,8.786408542606233,4.368961810450256
1772556213818945000,3.782945068359375,10.091461797881125,7.4064154894202945,5.6003013024777175
1772556213828875800,3.792875732421875,8.551843999928236,5.820962407487631,6.297635916873812
1772556213838806800,3.802806884765625,7.041816453596949,4.773182370305061,5.904484155783057
1772556213848738000,3.812738037109375,5.662385125946998,4.012397904783487,4.844635495144129
1772556213858668800,3.822668701171875,4.556578431731462,2.744335532775521,3.6237019540578124
1772556213868599800,3.832599853515625,3.7314585644215343,0.5742495019972325,2.44151636903882
1772556213878530800,3.84253076171875,2.927618801027536,-2.1222733092457053,1.1785865376137197
1772556213888461800,3.8524619140625,2.1313801602870224,-4.0659643675372,0.5917063943631947
1772556213898392800,3.862392822265625,1.075807861793041,-4.505328136965632,1.1201835946142673
1772556213908324900,3.872324951171875,-1.7740502386838197,-4.600371396228671,2.6331828502327204
1772556213918255900,3.882255859375,-7.4627213140100235,-5.665524008494615,3.4412335093200204
1772556213928187000,3.892186767578125,-14.242574930393696,-7.230397243735194,3.0147254220724102
1772556213938117600,3.90211767578125,-18.841925166881083,-8.19351396137178,2.2229104429930446
1772556213948049000,3.912048828125,-22.66595387845039,-7.630881831932068,1.2478655332840978
1772556213957980000,3.92197998046875,-28.833127432155607,-6.03448825379014,-0.5774916257236152
1772556213967910700,3.93191064453125,-35.887953589451314,-5.115408246278762,-2.7160782833233474
1772556213977842000,3.941842041015625,-40.80599685063362,-5.188896676337719,-4.158016043768823
1772556213987773000,3.95177294921875,-42.005613462924956,-6.283232712990046,-5.082148950755596
1772556213997703700,3.96170361328125,-39.46727338094711,-7.814684740144014,-5.160753700914979
1772556214007635000,3.971635009765625,-34.75464747841358,-9.13964973359108,-4.950369659769534
1772556214017565700,3.981565673828125,-28.166685968673228,-9.955915847837923,-4.954402860808372
1772556214027496700,3.99149658203125,-21.006987232017515,-9.787776957225798,-5.212201564079523
1772556214037428000,4.001427978515625,-15.003056613576412,-8.780143052470683,-5.639010095578432
1772556214047358700,4.011358642578125,-10.487110636484623,-7.142166587096452,-5.423784459620713
1772556214057289700,4.021289794921875,-7.622355995649099,-5.0453503751903765,-4.590429847928881
1772556214067221000,4.031220947265625,-5.8534735149919985,-2.4246353768646713,-3.317933292865753
1772556214077151700,4.04115185546875,-3.6673745070457455,0.44972646574974057,-2.060078426617384
1772556214087083800,4.051083740234375,-0.763815211519599,3.5037691682100296,-0.8513532097190618
1772556214097014800,4.061014892578125,2.428373978871107,6.223309866946935,0.3074197893999517
1772556214106945800,4.07094580078125,5.808356608414649,8.352202302071452,1.1291475300535558
1772556214116876800,4.080876708984375,9.413679440695047,10.364574974662064,1.8500468521714208
1772556214126807800,4.090807861328125,12.531005990064143,12.178181563186644,2.102997092498094
1772556214136738800,4.10073876953125,15.035008918154238,13.593522993129492,2.3301420065693557
1772556214146669800,4.110669921875,17.35277966505885,14.502187989610432,2.57512579806149
1772556214156600800,4.120600830078125,19.411061271387336,14.869890836668013,3.100992085161805
1772556214166531800,4.13053173828125,20.850587879037857,14.823110380792617,3.73790116468966
1772556214176462800,4.140462890625,21.799280934524536,14.405954643779992,4.230337183614075
1772556214186393900,4.150393798828125,22.402825504589078,13.960653008735179,4.472365778562426
1772556214196324900,4.160324951171875,22.58013203651905,13.580343193560838,4.8716538504511115
1772556214206255900,4.170255859375,22.45946099952459,12.948279800498485,5.2674382981330155
1772556214216187000,4.180186767578125,22.04265948277712,12.117253339493274,5.467175273057818
1772556214226118000,4.190117919921875,21.571597968053815,11.554385647732019,5.790107250496745
1772556214236049000,4.200048828125,20.94232040631771,10.679960774505139,5.5062499768614765
1772556214245980000,4.20997998046875,20.05200238291025,10.007242714971303,5.136056482031941
1772556214255911000,4.219910888671875,19.31899673567414,9.664421795713901,4.840536243131757
1772556214265843000,4.229843017578125,18.302111018449068,9.61515069206655,4.738684472897648
1772556214275773700,4.239773681640625,16.520938380539416,9.559342295604944,4.593325569370388
1772556214285705000,4.249705078125,14.265751223319768,9.414452178633212,3.877435015325248
1772556214295636000,4.259635986328125,11.648766059172154,9.376739995354413,3.1139678865909572
1772556214305566700,4.269566650390625,8.704181510296463,9.895140768879651,2.457403966261446
1772556214315498000,4.279498046875,5.337864418011903,10.691712002575397,0.9643887833990156
1772556214325428700,4.2894287109375,1.4482698860764502,11.605779150360823,-0.01188345788149163
1772556214335359700,4.29935986328125,-2.8786873045980927,12.540718405783176,-0.016919150493759662
1772556214345291000,4.309291015625,-7.571250662311911,12.308670229840278,0.037750396397337314
1772556214355221800,4.3192216796875,-11.335382831323146,10.611814874517917,-0.6136852211330086
1772556214365152800,4.32915283203125,-12.561742489111422,8.140845616501569,-1.9460995807379482
1772556214375084000,4.339083984375,-11.404087534236908,5.187142526146769,-4.06079777855426
1772556214385014800,4.349014892578125,-8.824933795833587,2.7854282984033225,-5.9995367673963305
1772556214394945800,4.35894580078125,-6.797658153143525,1.5232624370880423,-6.754837833070755
1772556214404877000,4.368876953125,-7.5404995502173895,1.6973358323156833,-4.942113288077712
1772556214414807800,4.378807861328125,-12.744043176066874,2.4824419614061712,0.007289280225336551
1772556214424738800,4.38873876953125,-22.881261347472666,2.634608499121666,7.595936190757155
1772556214434670800,4.3986708984375,-34.13176224806308,2.353425120870769,16.385296568906305
1772556214444601900,4.408601806640625,-41.028016969037054,2.0532760531261562,21.354611752164363
1772556214454532900,4.418532958984375,-41.67241728110313,0.8409281156860291,20.74847424299717
1772556214464463400,4.42846337890625,-38.78092076381445,-0.6314969913512468,18.45600394156575
1772556214474394600,4.43839453125,-36.52065878754854,-1.5113431589744983,17.425189067709447
1772556214484325600,4.44832568359375,-34.946826585304734,-2.5448455183491108,17.374090164113042
1772556214494256400,4.45825634765625,-33.71653660233021,-3.4116473493516444,16.47527786860466
1772556214504187600,4.468187744140625,-31.294217101192473,-2.70478999658972,14.387283845579624
1772556214514118400,4.478118408203125,-27.5055917114377,-1.3360327692978082,10.881859311378001
1772556214524049400,4.48804931640625,-24.38434302018881,0.2360166411824524,6.7167603236109015
1772556214533980700,4.497980712890625,-22.731081307399272,2.179297657368332,3.1137247254848477
1772556214543911400,4.507911376953125,-21.25278803898096,4.505794585433602,0.658632543297112
1772556214553842400,4.517842529296875,-19.01487116551399,7.054826157295704,-1.2818582576483488
1772556214563773700,4.527773681640625,-16.334443164503572,9.870180515146254,-2.398949293074757
1772556214573704400,4.537704345703125,-13.080578146922587,12.96619188928604,-2.3837734973832965
1772556214583635500,4.547635498046875,-8.658770589208602,15.942082846051454,-1.7736751217611133
1772556214593566700,4.557566650390625,-3.8505215816974636,18.24473785688877,-0.6157725488010793
1772556214603497500,4.56749755859375,0.4014911348909139,20.331293956065178,1.2241641935706138
1772556214613429500,4.577429443359375,4.095087878429889,22.527001334834097,3.247690128338337
1772556214623360500,4.587360595703125,8.362644785630703,24.94478962228298,4.470780555197596
1772556214633291500,4.59729150390625,13.726423397099971,26.844705543994902,4.179021130135655
1772556214643222500,4.607222412109375,19.566938061797618,27.476770106101036,3.412293246039748
1772556214653153500,4.617153564453125,24.718016171872616,27.176875305378434,2.511499421325326
1772556214663084500,4.62708447265625,28.80138555545807,26.37381938583851,1.5398907696753739
1772556214673015600,4.637015625,31.616819408285615,24.90014384034872,1.5822589620664715
1772556214682946600,4.646946533203125,32.60886060711145,22.943718680429456,2.1841186477839947
1772556214692877600,4.656877685546875,33.31249402939081,23.099187474560736,3.0732860398516055
1772556214702808600,4.66680859375,34.623235267174245,21.439033079648016,2.528288351301849
1772556214712739600,4.676739501953125,35.14150510779619,19.36061001804471,1.9825430592551827
1772556214722670600,4.686670654296875,34.89425001037121,18.50484775971174,3.0365383176907894
1772556214732601600,4.6966015625,33.39934930602312,18.593105888879297,4.724727259215713
1772556214742532600,4.70653271484375,29.680043536210057,19.02484778512716,6.512015749657154
1772556214752463600,4.716463623046875,23.806042781496046,18.51624359847307,6.829667740866541
1772556214762394600,4.72639453125,20.578717395794392,18.129442083191872,7.21997931009531
1772556214772325600,4.73632568359375,18.278560631513596,17.822357663226125,7.124986904236674
1772556214782257700,4.746257568359375,16.424041017842292,17.311010899865625,6.320398952823877
1772556214792188700,4.756188720703125,13.921266754764318,16.85752478932142,5.602262957939505
1772556214802119400,4.766119384765625,12.129981888163089,16.865426356226205,4.514222806560993
1772556214812050700,4.77605078125,10.796643034124374,18.312464070159194,3.952838923616707
1772556214821981700,4.785981689453125,6.966254139873385,20.75602392772436,5.475970573931932
1772556214831912400,4.795912353515625,1.6313415574043988,22.286961575615404,7.766590279060602
1772556214841843700,4.80584375,-8.090331819316745,21.434894664669034,9.3309976503551
1772556214851774500,4.8157744140625,-22.709372164416312,17.372889556151627,12.260338452869654
1772556214861705500,4.82570556640625,-36.62295011824369,10.686853456628322,15.791238789111375
1772556214871636700,4.83563671875,-41.99483955545425,6.335045902335644,18.03371376427412
1772556214881567500,4.8455673828125,-39.27555955348014,4.864060326582193,17.938703238236904
1772556214891498500,4.85549853515625,-35.85268587671518,2.761061042127013,15.432444055652617
1772556214901429800,4.8654296875,-35.291537848353386,0.9503688797444104,14.374820669847725
1772556214911360500,4.875360595703125,-37.142555006861684,0.2632730430290103,15.209192934149502
1772556214921291500,4.88529150390625,-39.172536401379105,0.7163774607792496,15.94869261958003
1772556214931222500,4.895222412109375,-39.29782749938965,2.027745013767481,15.79233067600131
1772556214941153500,4.905153564453125,-36.894039680242535,3.2903461977601047,15.64404331780672
1772556214951084500,4.91508447265625,-32.62470816458463,4.4720282171711325,15.532784252279995
1772556214961016600,4.9250166015625,-29.388056147611138,4.532300022782385,14.366709844106435
1772556214970947600,4.934947509765625,-27.060277216911313,4.762812659721076,12.932800491815804
1772556214980878600,4.944878662109375,-23.832453818559646,5.804564814916253,11.631432647055387
1772556214990809300,4.954809326171875,-19.865453390860555,6.3361296059191226,9.760915838307142
1772556215000740600,4.96474072265625,-16.79299707983136,6.250773627933859,7.203806173929571
1772556215010671600,4.974671630859375,-14.8697669180274,5.76566488315761,4.297967243033647
1772556215020602400,4.984602294921875,-12.719125007909536,5.167485639518499,0.9850308816723525
1772556215030533600,4.99453369140625,-10.101697945213317,5.090296016854047,-1.977052060623467
1772556215040464600,5.004464599609375,-7.379820912483334,5.90999853529036,-3.3153678262919186
1772556215050395400,5.0143955078125,-4.657242453485727,7.054108948937058,-3.003064210373163
1772556215060326700,5.02432666015625,-2.0947154402345416,8.318976324295997,-1.5909277139514684
1772556215070257700,5.034257568359375,0.19772738866806028,9.690788409113884,-0.25755283875130114
1772556215080188400,5.0441884765625,3.3383974042236804,11.619011556899547,0.20716632120795547
1772556215090119700,5.05411962890625,8.100742154172062,14.389791444486379,0.7698154017824679
1772556215100050400,5.064050537109375,13.377957165431976,17.510495361334083,1.7628144127897918
1772556215109981400,5.0739814453125,18.844423413437603,19.985154121518136,2.0059671894624826
1772556215119913500,5.08391357421875,24.213040697109697,20.978023003339768,1.1538470870241522
1772556215129844700,5.0938447265625,28.168970280218122,20.43622966378927,0.22618659043312073
1772556215139775500,5.103775390625,30.05818477517366,19.14292354493141,-0.5092059519395232
1772556215149706500,5.11370654296875,30.558671121823785,17.93693330595493,-0.5358057895734906
1772556215159637500,5.123637451171875,30.57318830747604,16.70972726047039,-0.14163316100239753
1772556215169568500,5.133568603515625,30.699763015556332,15.000190118229389,-0.03747779000103473
1772556215179499500,5.14349951171875,31.36196085011959,13.701784630405902,-0.5910889931172132
1772556215189430500,5.153430419921875,31.514974652314184,12.926796282964943,-0.3464110527038574
1772556215199361500,5.163361572265625,31.09240507355928,12.504113306963443,1.3154720656976102
1772556215209292500,5.17329248046875,29.244319876849648,12.58804363605976,3.7761806264624
1772556215219223600,5.1832236328125,25.33285604293346,12.751225781047344,5.219519778138399
1772556215229154600,5.193154541015625,21.4576349042654,12.26778526174426,4.922355279162526
1772556215239085300,5.203085205078125,18.97874771273136,12.625330287402868,5.448008215773105
1772556215249016600,5.2130166015625,16.62445954529047,12.631263184583187,5.457592036676407
1772556215258947600,5.222947509765625,14.8724931281209,12.406012998217344,5.40137389037013
1772556215268878300,5.23287841796875,13.91012810563445,12.347750194340943,5.529149790933728
1772556215278810600,5.242810546875,12.937014894640445,12.857535115212201,5.372974894359707
1772556215288741600,5.25274169921875,10.71318967489004,14.287537523192167,5.361603605517745
1772556215298672400,5.26267236328125,8.224924414157867,16.392271084094048,5.986875438743829
1772556215308603600,5.272603759765625,4.209425620749593,17.56341329705119,6.642040305930376
1772556215318534700,5.28253466796875,-3.2149376132935283,15.83832202732563,6.985363329491019
1772556215328465400,5.29246533203125,-12.021520344400406,12.517187892591952,8.543900931969285
1772556215338396700,5.302396728515625,-20.73092455778122,8.117351343667506,10.891189449781178
1772556215348327700,5.31232763671875,-26.603627673900125,4.227436201475561,13.133989419114588
1772556215358258400,5.322258544921875,-27.171745541274547,3.8769825953826307,14.74192145935893
1772556215368189700,5.332189697265625,-24.898635773873327,6.3024617295950645,14.565411046242714
1772556215378120700,5.34212060546875,-23.491630795121193,7.349669519847631,12.823209651762246
1772556215388051500,5.352051513671875,-25.005762269639966,6.072227909597754,10.599178680306672
1772556215397982700,5.361982666015625,-28.64206826920509,6.483903753894567,9.939909300410747
1772556215407913500,5.37191357421875,-32.41713041303158,8.26522135323286,9.674510059008002
1772556215417844500,5.381844482421875,-34.606022266566754,9.268534472179413,9.357888579890131
1772556215427775700,5.391775634765625,-34.70331242797374,9.77328315244913,9.792454301387071
1772556215437706500,5.40170654296875,-32.2300249561429,10.851005907952786,12.18770108668208
1772556215447638500,5.411638427734375,-28.698037409186362,10.545504373264313,13.80768129211664
1772556215457569500,5.421569580078125,-26.89407893897295,9.072943511018156,13.338830439180136
1772556215467500800,5.431500732421875,-26.07858205553293,8.30367880192101,11.704449952471256
1772556215477432000,5.44143212890625,-25.566260309660432,7.837723085904121,8.628311153537034
1772556215487362800,5.45136279296875,-24.990221001636982,7.744578938260674,4.646697094073891
1772556215497293800,5.4612939453125,-23.947494740712642,7.94287389768362,0.8981569003395735
1772556215507225000,5.47122509765625,-22.069895864748954,7.996446497917175,-1.9802688307128846
1772556215517155800,5.48115576171875,-19.40469699705243,8.0607778080523,-3.358413771814108
1772556215527086800,5.4910869140625,-15.6636996199131,8.682973302572965,-3.2122131567656993
1772556215537017900,5.501017822265625,-11.279636978703737,10.072951158678531,-1.8971023255959152
1772556215546948900,5.510948974609375,-6.602551760628819,11.824275770813227,0.047060405327938495
1772556215556880000,5.5208798828125,-2.1087147394925356,13.678220214945076,2.2742861177042126
1772556215566811000,5.530810791015625,2.276523959758878,15.567491993045806,5.027018599686026
1772556215576742000,5.540741943359375,6.31116058435738,16.80762064846754,7.163752395960688
1772556215586673000,5.5506728515625,10.371305159699917,18.00254939520359,7.749621024081111
1772556215596604000,5.56060400390625,15.044599753320217,20.207639519345758,6.1765504538595675
1772556215606536000,5.570535888671875,20.872339107596872,22.181742959296702,1.5299484907232224
1772556215616467000,5.580467041015625,27.871362129127977,21.42537864830494,-5.163665204447508
1772556215626398000,5.59039794921875,34.07614382121563,18.09374650043249,-9.119057027417421
1772556215636329000,5.600328857421875,36.92165950857401,15.101001439499854,-8.36294815249145
1772556215646260000,5.610260009765625,36.26302258136272,14.392486090397833,-5.068952784574032
1772556215656191000,5.62019091796875,37.11147948511839,16.938142048346997,-0.7930249393910169
1772556215666122000,5.6301220703125,36.87056294306517,15.758997730720042,0.8806291346944868
1772556215676052700,5.640052734375,35.37511746431589,15.147529381918906,2.703210910704732
1772556215685984000,5.64998388671875,33.317125780844684,14.427010291290282,3.798592072495818
1772556215695915000,5.6599150390625,30.75232790005207,13.56659406967163,3.6338194434463977
1772556215705845800,5.669845703125,27.871647375810145,12.914617184871435,3.203852740177512
1772556215715777000,5.679777099609375,25.11627665427923,12.145770993447304,2.7170105957373973
1772556215725708000,5.6897080078125,20.08794580295086,11.010477507984637,1.6392304109580813
1772556215735638800,5.699638671875,17.596787158864736,10.529516530537604,1.2000149639591573
1772556215745570000,5.709570068359375,15.165266114139555,11.028017840850353,1.457302502837777
1772556215755501000,5.7195009765625,12.317629781365394,10.659905828469991,1.1533099844727666
1772556215765432800,5.729432861328125,8.537911920687556,10.309404291582107,1.202970087437704
1772556215775363800,5.73936376953125,4.778142038539052,10.047637853723764,0.8526260061338543
1772556215785295000,5.749295166015625,1.3765367752522228,10.237336249715089,0.6973933588460087
1772556215795225900,5.759225830078125,-3.9731028362274166,9.542951132774352,1.0267549309410153
1772556215805156900,5.769156982421875,-10.788997487807274,8.44478472417891,2.1995101320527493
1772556215815088000,5.779088134765625,-18.409823205149173,7.0104527625620365,3.4945930513247845
1772556215825019000,5.789018798828125,-24.872977601003644,5.613772193947434,4.810387188583612
1772556215834950000,5.798949951171875,-27.615802144694328,4.79977870080769,5.765152257460356
1772556215844881000,5.808880859375,-26.46169406864643,3.589543663868308,6.445271533161401
1772556215854812000,5.81881201171875,-24.098906952929497,1.1505077134683728,6.465954840227961
1772556215864743000,5.828742919921875,-24.213604176211355,-0.5534563048154115,5.523703800487518
1772556215874674000,5.838673828125,-28.910172093391417,0.26953268794566393,4.773721299487352
1772556215884605000,5.84860498046875,-35.878673719930646,1.6346934981808066,4.485555515003204
1772556215894536000,5.858535888671875,-41.567151903033256,2.6024858064129948,5.489511023506521
1772556215904467000,5.868467041015625,-44.82460354692936,2.80968683360815,6.920283831337094
1772556215914398000,5.87839794921875,-45.02825097329616,2.3652086437754334,7.259846041059493
1772556215924330000,5.888330078125,-41.17317947320938,2.3061367154732344,5.973345510563254
1772556215934260700,5.8982607421875,-35.01979595992565,2.266527466401458,3.1387600902810693
1772556215944192000,5.90819189453125,-29.666959598231315,2.4673633424788712,-0.4113924242455512
1772556215954123000,5.918123046875,-25.686197187161444,2.947351090979576,-3.3483445054814216
1772556215964053800,5.9280537109375,-21.97388931341171,3.233439192406833,-4.826313364250957
1772556215973985000,5.937985107421875,-18.36995647418499,3.944321270640194,-4.75270598398745
1772556215983916000,5.947916015625,-14.466554366171358,5.091002119296789,-4.060720621664822
1772556215993846800,5.9578466796875,-10.089086300921439,6.637396864038705,-3.0578803809270263
1772556216003778000,5.967778076171875,-5.561847360920906,8.595962543117999,-2.031874953179061
1772556216013708800,5.977708740234375,-1.0333072751939296,10.471272431361674,-1.5468245144613086
1772556216023639800,5.987639892578125,3.3533184945017096,12.163051798593997,-1.303417470766604
1772556216033571000,5.997571044921875,7.27518272640109,13.809088820827007,-0.5418205198183655
1772556216043501800,6.007501708984375,10.74243330503106,15.219266584396362,1.0108255404032767
1772556216053432800,6.017432861328125,13.954293410575389,16.562323699373007,3.3450632918536662
1772556216063364000,6.027364013671875,16.68411935648322,17.696729880607126,5.865550321754813
1772556216073296000,6.0372958984375,18.96248631376028,18.336840971046684,7.789426964768767
1772556216083227000,6.047226806640625,21.09718597385883,18.50046618362665,8.730017962342501
1772556216093158000,6.057157958984375,23.088998088979718,18.195526958996055,8.99809256043434
1772556216103089000,6.0670888671875,24.70521280440092,17.432985420674086,8.891104011833667
1772556216113020000,6.07702001953125,26.039669264292716,16.64400245015025,8.576613699525595
1772556216122951000,6.086950927734375,27.468102815520762,15.825575942999123,7.787337883535027
1772556216132882000,6.0968818359375,29.02557308102846,14.801292516738176,6.744301241487264
1772556216142813000,6.10681298828125,30.72888389610052,13.935022892916201,5.545303053355217
1772556216152744000,6.116743896484375,31.768745999765393,13.411160346853732,4.617074109226465
1772556216162675000,6.126675048828125,31.59773359954357,13.197161037820576,4.266659081578254
1772556216172606000,6.13660595703125,30.077389826381204,13.40342361512184,4.548371159878373
1772556216182537000,6.146536865234375,27.335425698912143,13.958233088111877,5.272350035572051
1772556216192468000,6.156468017578125,24.164855050611493,14.258954402786493,6.158111126327515
1772556216202399000,6.16639892578125,21.232818433141706,14.193740464597939,6.779400611919164
1772556216212330000,6.176330078125,18.727003487193585,14.065729001712798,7.052630693078041
1772556216222261000,6.186260986328125,16.55329049808979,13.98737734953165,6.884712751740217
1772556216232192000,6.19619189453125,14.757286201751231,13.496652518439292,5.989798048192262
1772556216242123800,6.206123779296875,13.62437288942337,13.09258305749297,4.649706797283888
1772556216252055000,6.216054931640625,12.626989160525799,12.609029140943289,3.5156340857878323
1772556216261986000,6.225986083984375,11.411922465646267,11.635800194615125,2.97862856503576
1772556216271916800,6.235916748046875,10.673654952359199,11.992574820423126,3.687900285463035
1772556216281848000,6.24584814453125,10.305719465589522,13.671749557626246,5.0763072389900685
1772556216291779000,6.255779052734375,8.062803760921955,16.067068823635577,6.873437909010052
1772556216301709800,6.265709716796875,1.6635691717922687,18.0582555003345,8.787503352105617
1772556216311641000,6.27564111328125,-8.699107860293983,19.614279658687114,11.839327209472655
1772556216321571800,6.28557177734375,-25.384967338442802,19.519044676244256,14.744856928288936
1772556216331502800,6.2955029296875,-44.414619893503186,18.878637817728517,14.54874515812397
1772556216341434000,6.30543408203125,-56.06748929634094,17.543222741937637,10.750554652166366
1772556216351364900,6.31536474609375,-57.309448674321175,18.385867160022258,8.309287873974442
1772556216361296000,6.3252958984375,-52.78631073989868,21.928469624495506,7.966988932764529
1772556216371227100,6.33522705078125,-45.703065128326415,23.088750251698492,8.330091008028388
1772556216381158000,6.345157958984375,-40.2730064107418,20.6008941562891,8.851506745460629
1772556216391090000,6.35508984375,-37.8748066208601,16.916528766953945,8.911979626601934
1772556216401021000,6.36502099609375,-35.925430794930456,13.849002313542366,8.568575354498625
1772556216410952000,6.374951904296875,-33.847932446956634,11.443338179129361,8.110635187155008
1772556216420883000,6.384883056640625,-31.921264127397535,10.082198294973372,7.746965541136264
1772556216430814000,6.39481396484375,-29.25168719074726,9.949654449355602,7.486736395847797
1772556216440745000,6.404744873046875,-25.9226175868392,9.765645204916597,6.343358388128876
1772556216450676000,6.414676025390625,-22.500690835535526,9.418403546607493,4.862715341714024
1772556216460606700,6.424606689453125,-19.13800187062025,9.0550314222306,3.2209406531006097
1772556216470537500,6.434537353515625,-15.598095221102236,9.116721277946233,1.8721882490918038
1772556216480468500,6.444468505859375,-11.640199306356907,9.726987849742173,1.087329226630181
1772556216490399500,6.4543994140625,-7.241641691327095,10.609838021486997,0.7419134685739874
1772556216500330500,6.46433056640625,-2.6518723531335593,12.29697511587143,1.6276768974170088
1772556216510261500,6.474261474609375,1.892723964381218,14.111945978486537,4.078397732652723
1772556216520192500,6.484192626953125,6.1265112884491675,15.322428852707146,6.731699534067511
1772556216530123500,6.49412353515625,10.183732085299491,16.43158018117547,8.820772584500908
1772556216540054500,6.504054443359375,13.900520903855561,17.96248743392825,9.82468250029683
1772556216549986300,6.513986328125,17.060002002865076,20.027994899857042,9.879994637674093
1772556216559917600,6.52391748046875,20.286514903140066,21.701144385421276,9.369016707625985
1772556216569848600,6.5338486328125,24.11075404258966,22.16272729318142,7.868303517606854
1772556216579779300,6.543779296875,27.519365385246275,21.90872681314945,7.494512875068187
1772556216589710600,6.553710693359375,29.007020356249807,20.737452498245236,8.722331499493121
1772556216599641600,6.5636416015625,29.80514524912834,19.010375023138522,8.503242758366465
1772556216609572400,6.573572265625,32.01245421836376,16.889740128749608,6.611736353081464
1772556216619503600,6.583503662109375,35.410410896015165,15.449973867124319,4.306517336975038
1772556216629434600,6.5934345703125,37.093258768773076,13.998537041449547,2.1840122648000717
1772556216639365400,6.603365478515625,37.05054892333746,12.454045499980449,0.361277782446146
1772556216649296600,6.613296630859375,35.82883504552841,11.446055036872625,-0.46789428286403417
1772556216659227400,6.623227294921875,33.35469884791374,10.967648420083522,0.40418928793370723
1772556216669158400,6.633158447265625,29.676433529019356,10.97891800211668,2.3011983822882174
1772556216679089700,6.643089599609375,25.84423320143223,11.199947940438985,4.151800237993895
1772556216689021400,6.653021484375,22.09812125775814,11.254954957389831,5.124038711979985
1772556216698952400,6.662952392578125,18.634518095719812,11.226809059357642,5.530925568434596
1772556216708883500,6.672883544921875,15.7162551520586,10.876148532515764,5.319895046079158
1772556216718814500,6.682814453125,13.462343421602249,10.143216535037755,4.972006906560063
1772556216728745500,6.692745361328125,11.819780797481537,9.058923168972134,4.5637499307960265
1772556216738676500,6.702676513671875,10.817229895079135,8.08744778831303,4.0712960839539765
1772556216748607500,6.712607421875,10.736201132643222,7.801305618610978,3.8187922722205516
1772556216758538500,6.72253857421875,10.300458768582343,8.485921621209382,3.608146949790418
1772556216768469500,6.732469482421875,7.423012403956055,9.376647056373953,4.781967149785161
1772556216778400500,6.742400390625,2.8856916304022073,10.429119050765037,8.23491740038395
1772556216788331500,6.75233154296875,-4.094909014731646,12.021263154768944,14.325040447634457
1772556216798262300,6.76226220703125,-15.61752122158408,12.463839748764038,20.844789421892166
1772556216808193500,6.772193603515625,-31.747331455814837,12.961730818223952,19.57314100809097
1772556216818124500,6.78212451171875,-47.97635960464477,15.847275733631848,12.198977682977914
1772556216828055300,6.79205517578125,-60.573984723520276,17.437087595295907,6.503339106726646
1772556216837986600,6.801986572265625,-65.11375581283569,18.49684565504193,5.740546223992109
1772556216847918600,6.811918701171875,-60.93178693881035,18.88443861296177,8.263810317391156
1772556216857849300,6.821849365234375,-53.97140315227508,16.85454255864024,9.676253103283047
1772556216867780400,6.8317802734375,-48.03189386034011,13.674542403215169,8.381070084637402
1772556216877711600,6.841711669921875,-43.91786045842171,9.721132109451293,5.794409916126727
1772556216887642400,6.851642333984375,-41.29879088921547,6.153006496664881,4.23457175244391
1772556216897573400,6.861573486328125,-37.06309977735281,4.925031804895401,4.249294689801335
1772556216907504600,6.871504638671875,-30.483810234367844,4.810870003664493,4.3074075638130305
1772556216917435400,6.881435302734375,-23.2731902887702,5.116926834148169,4.475179666939377
1772556216927366400,6.891366455078125,-16.533475206029415,5.959992692515254,4.502866423027217
1772556216937297700,6.901297607421875,-10.90705688099861,6.982820074748992,4.414053290325403
1772556216947228400,6.911228515625,-6.269329859843849,7.792192922350764,4.269433514727652
1772556216957159400,6.921159423828125,-2.2002532055050135,8.710627033174038,4.237218759821355
1772556216967090400,6.93109033203125,1.6655419331699608,9.55265185805559,4.074524690611661
1772556216977021400,6.941021484375,5.914108308696746,10.699611231392621,3.5174189233779907
1772556216986953500,6.950953369140625,10.386727185237406,12.552427548277377,3.3814763752326367
1772556216996884500,6.960884521484375,14.16307995339632,15.078473965871334,4.6364217837750905
1772556217006815500,6.9708154296875,16.96331039187312,17.111144161081313,6.252193431603908
1772556217016746500,6.98074658203125,19.21544049960971,18.28994945601225,7.219907413902878
1772556217026677200,6.99067724609375,21.202086610269546,19.192413844287394,7.555497212862968
1772556217036608500,7.0006083984375,22.626657640850542,19.043496371495724,7.002522554084658
1772556217046539500,7.01053955078125,23.832269109642503,18.204203601926565,5.836332410576939
1772556217056470300,7.02047021484375,24.973688384509085,17.524071466743944,5.30116813377738
1772556217066401500,7.030401611328125,26.145170789206027,16.82701976094246,4.719427106980979
1772556217076332500,7.04033251953125,27.320838370633123,16.395782891607283,4.699122862359881
1772556217086263300,7.05026318359375,28.54059760724306,15.59182213218212,4.939330963882804
1772556217096194600,7.060194580078125,29.1661155241847,14.414618427228927,4.945303024029731
1772556217106125300,7.070125244140625,29.10765164477825,13.374017487895488,4.8697392490014435
1772556217116056300,7.080056396484375,28.568306282901762,13.178235388076304,4.436393424688279
1772556217125987600,7.089987548828125,27.076943105030058,11.785450657856464,3.259423820751905
1772556217135919600,7.099919677734375,24.584368748927115,10.642724392044544,2.2611595096275208
1772556217145850400,7.109850341796875,22.242404641008374,9.83209073072672,1.5102999335318803
1772556217155781600,7.11978173828125,20.2286752931118,9.119182699623703,1.027526938226819
1772556217165712400,7.12971240234375,18.42418256989121,8.478329850906134,1.0840037354692815
1772556217175643400,7.139643310546875,17.1126639179945,8.327649460095166,1.6577157695889473
1772556217185574700,7.14957470703125,16.00433910347819,8.089142317271232,2.4155763104878365
1772556217195505400,7.15950537109375,14.371165069949626,7.10306148815453,3.2913340397536754
1772556217205436400,7.1694365234375,12.464940988004207,6.628424453032016,5.429765872117876
1772556217215367700,7.17936767578125,10.80069844699502,6.483418600726127,7.121039043393731
1772556217225298400,7.18929833984375,8.988427490988373,5.923492223113775,7.316134914514422
1772556217235229400,7.1992294921875,5.803597431188821,4.7232425736159085,6.388301691704988
1772556217245160700,7.20916064453125,0.4008925844758749,3.9705926069721578,4.690885195368528
1772556217255091500,7.219091552734375,-6.500849627998471,4.061037432529032,3.5055887848526237
1772556217265022500,7.2290224609375,-14.785418071258068,4.8325686252534386,4.562010685913265
1772556217274953500,7.238953369140625,-23.806288280689714,5.727026817205548,7.815312516653537
1772556217284885500,7.248885498046875,-32.35010913316011,8.591140237528085,12.28227789747715
1772556217294816500,7.25881640625,-40.81787901160717,12.673243546700476,15.510952359700202
1772556217304747500,7.26874755859375,-49.28997201395035,15.578993045747279,14.172892906880378
1772556217314678500,7.278678466796875,-54.606044286870954,18.4917918787837,9.601282910233735
1772556217324609500,7.288609619140625,-54.294311748838425,20.66536925880909,4.926442840737104
1772556217334540300,7.298540283203125,-49.881994488525386,19.66805567253828,2.8371155232816934
1772556217344471600,7.308471435546875,-44.1230556987524,15.076200175720452,2.3568153478309513
1772556217354402600,7.318402587890625,-37.729861558830734,9.75455857823491,3.0458567656561732
1772556217364333300,7.328333251953125,-31.09671884510517,4.706610587766766,4.746664950257539
1772556217374264600,7.3382646484375,-25.626087294113635,0.9158283122390508,5.933780977416038
1772556217384195600,7.348195556640625,-22.12219654535055,-0.5832722549516707,5.932979013383388
1772556217394126300,7.358126220703125,-19.562619614076613,-0.2695847469264641,4.965874102893472
1772556217404057600,7.3680576171875,-16.711427050125597,1.2226758547089993,3.785772046150267
1772556217413988400,7.37798828125,-13.245032211542128,3.0852137935325503,2.513481535053253
1772556217423920400,7.38792041015625,-9.09710881498158,5.013448339495063,1.1898955748744309
1772556217433851400,7.397851318359375,-4.354295279455185,6.961422481933235,0.14694829161055384
1772556217443782700,7.40778271484375,0.4856050038605928,8.59810773845315,-0.23954021219871938
1772556217453713400,7.41771337890625,5.305472552973032,9.960973131227492,-0.04261511635687202
1772556217463644400,7.42764453125,10.103290182840823,11.571347303926943,0.21424948440194128
1772556217473575400,7.437575439453125,14.712482598906755,13.302923259496689,-0.03194762840270996
1772556217483506200,7.447506103515625,18.15725012757182,14.242925643527506,0.6579514291651547
1772556217493437200,7.457437255859375,19.80564043493271,14.698602542114257,1.9495310164913533
1772556217503368400,7.467368408203125,20.23673234283924,14.853583844989537,2.665681098255515
1772556217513299200,7.47729931640625,20.132577556359767,14.497313077050446,3.6389112136274573
1772556217523230200,7.487230224609375,20.72728181736469,13.609355353033543,4.850288990861177
1772556217533161500,7.497161376953125,21.529652677249906,12.4408201077044,5.549480631300806
1772556217543092200,7.50709228515625,21.52533656761646,11.204407842457293,5.990214227777719
1772556217553023200,7.517023193359375,20.922797375202176,10.185679712235927,6.0877826216042035
1772556217562954200,7.526954345703125,20.15344031164646,9.544909865626693,5.876665590009093
1772556217572886300,7.53688623046875,19.66644940638542,9.101746996176242,5.598014652845263
1772556217582817300,7.5468173828125,19.872388158559797,8.663155087903142,5.465471976271272
1772556217592748300,7.556748291015625,20.443346802318096,8.208269047433138,5.649491157582402
1772556217602679300,7.56667919921875,21.003110682845115,7.769362666383385,5.942843404793739
1772556217612610300,7.5766103515625,21.288198375058172,7.271431849434971,6.199863524907827
1772556217622541300,7.586541259765625,21.018626231884955,6.90503599332273,6.367008728307485
1772556217632472300,7.596472412109375,20.351513737273216,6.810972977268696,6.36015637819469
1772556217642403300,7.6064033203125,19.39360394062996,6.869541486093402,6.421213781225681
1772556217652334300,7.616334228515625,17.89786503189206,6.843158506080508,6.557705487686396
1772556217662265300,7.626265380859375,15.936524042880535,6.639086716821789,6.09243366228044
1772556217672196400,7.6361962890625,13.76587161039114,6.1739335493594405,4.958688575303555
1772556217682127400,7.64612744140625,11.54907000566721,5.665826206311583,3.6267394220575686
1772556217692058400,7.656058349609375,8.843677659270167,5.3374651895612475,1.9684514055386184
1772556217701989400,7.6659892578125,5.329063271918892,4.277057725995779,-0.6340794090598821
1772556217711921200,7.675921142578125,2.487559742811322,2.833011302833259,-2.1821127147890627
1772556217721852400,7.685852294921875,0.8869429940164089,1.2507643234655261,-1.2199268482618033
1772556217731783400,7.695783447265625,-0.683815792131424,-0.3454652962863445,1.1223835888765752
1772556217741714200,7.705714111328125,-4.1162148376107215,-1.2517051114469766,3.453349479049444
1772556217751645400,7.7156455078125,-11.361257277292012,-0.6501268730193376,5.665331700792908
1772556217761576400,7.725576416015625,-22.783508244729042,2.023851805721223,8.246094627958536
1772556217771507200,7.735507080078125,-34.69957148787975,4.55148169311434,8.122166050472854
1772556217781438500,7.7454384765625,-42.35770139222145,5.779647231280803,1.0339596016228199
1772556217791369200,7.755369140625,-48.6817232117176,9.2999449249655,-7.534960620790719
1772556217801300200,7.76530029296875,-50.63388136184215,9.768152803823352,-12.447138789331913
1772556217811231500,7.7752314453125,-47.90653495779037,8.008508691632747,-12.717110745477676
1772556217821162200,7.785162353515625,-44.755232489061356,4.83495347456336,-10.747511631208658
1772556217831093200,7.79509326171875,-39.024729520177836,1.5779958977945148,-7.6344363095432515
1772556217841024500,7.8050244140625,-31.2338102710247,-0.7932388744026422,-4.427221107195318
1772556217850955300,7.814955322265625,-23.639811770331857,-2.7639266606912014,-1.5798105460010468
1772556217860887300,7.82488720703125,-16.309392894399164,-3.4175200407773256,-0.09521730065569281
1772556217870818300,7.834818359375,-9.987989732968806,-2.659714591066539,-0.3053049892030656
1772556217880749300,7.844749267578125,-5.263434323188662,-1.2250384921871125,-1.1380404460832476
1772556217890680300,7.854680419921875,-2.065516233757138,-0.31657895515039564,-2.015077255374193
1772556217900611300,7.864611328125,-0.005437807139754295,0.05727145475149154,-2.8948914204239844
1772556217910542300,7.874542236328125,1.5941034213781355,1.0491694457143546,-3.3718735573679206
1772556217920473300,7.884473388671875,3.3507132804393764,2.659825357964635,-2.916059880658984
1772556217930404000,7.894404052734375,5.500925566968322,4.393249864010513,-1.5714401925407349
1772556217940335400,7.90433544921875,8.187918333321809,5.78235882832706,-0.12392448583245276
1772556217950266400,7.914266357421875,10.784231296318769,6.911180487427115,1.137913458702713
1772556217960197000,7.924197021484375,12.752906866002082,7.538777548730373,2.0342982348032295
1772556217970128400,7.93412841796875,13.885962801671027,7.778123480466007,3.0136434720546004
1772556217980059400,7.944059326171875,14.382265140634773,7.80072285028696,3.68004811065793
1772556217989991200,7.9539912109375,14.320255551445483,7.5965072686433786,3.4719542262762784
1772556217999922200,7.963922119140625,13.67611009092331,7.081964924111962,3.1036557514131067
1772556218009853400,7.973853515625,12.762357415914535,6.455078641426563,2.911352141359448
1772556218019784200,7.9837841796875,11.684882497692108,5.5768689889639615,2.1366895187415182
1772556218029715200,7.993715087890625,11.239055961990356,5.171254636663198,1.0295948305420577
1772556218039646500,8.003646484375,11.5709077434659,5.643997236341238,0.6512231438234448
1772556218049577200,8.0135771484375,11.57704054713249,5.740761912569403,0.7882197310663759
1772556218059508200,8.02350830078125,11.23977726200223,5.573233847332,1.3953554574906826
1772556218069439500,8.033439453125,10.694721121263504,5.5924125950545065,2.4035846977904436
1772556218079370200,8.043370361328124,10.069621721994876,6.163138014578819,3.4803032446876165
1772556218089301200,8.05330126953125,9.422743621638416,7.372423787969351,3.970147785814106
1772556218099232300,8.063232177734376,9.052170187580584,8.398312895861267,3.7056668283000587
1772556218109163300,8.073163330078126,8.638107740408183,8.639550924953818,2.9235066895335913
1772556218119094300,8.08309423828125,8.20796568057239,7.639805727621913,2.149891968533397
1772556218129026300,8.0930263671875,7.579325832217931,5.4065784732759,1.511497618883848
1772556218138957300,8.102957275390626,6.361583196127414,2.5189637658566233,0.9603469606623053
1772556218148888300,8.112888427734376,4.326480805334448,-0.3679594521671533,0.6293439049705862
1772556218158819000,8.122819091796876,1.570700333958864,-2.829831211492419,0.16197306145876644
1772556218168750300,8.132750244140626,-0.99035543769598,-4.20877855501771,-0.21450842759907243
1772556218178681300,8.142681396484376,-2.630210556423664,-4.280687022408843,0.09468816221505404
1772556218188612000,8.152612060546875,-3.93896675786972,-5.11843373157978,-0.5164829572051763
1772556218198543400,8.16254345703125,-4.941336458486318,-7.028117598590255,-2.1116557613804936
1772556218208474400,8.172474365234375,-3.8792584313601255,-6.564087297677993,-1.6897522453188896
1772556218218405000,8.182405029296875,-1.5425310550510882,-5.21929356816709,-0.27969927717298265
1772556218228336400,8.19233642578125,0.43727614949941634,-4.716285009562969,0.25594343079328535
1772556218238267100,8.20226708984375,1.1339560993790625,-4.627335390999913,-0.9383929030075668
1772556218248198100,8.2121982421875,0.9367968659877777,-4.389716136926412,-2.961940757346153
1772556218258129400,8.22212939453125,-0.2760410469263792,-4.124305789607763,-4.593196974554657
1772556218268061400,8.2320615234375,-2.353420736956596,-4.2366409599334,-5.722685573130845
1772556218277992200,8.2419921875,-4.836989948827028,-4.747651915468276,-6.256662685972452
1772556218287923500,8.25192333984375,-7.333754742357135,-4.65562420463413,-5.601379160842299
1772556218297854200,8.261854248046875,-9.34323169350624,-3.821078045070171,-3.812724350483715
1772556218307785200,8.27178515625,-10.218614013588429,-2.965424507808685,-2.1713839616343376
1772556218317716500,8.281716552734375,-9.793973473778367,-2.096130859990418,-1.2070445703350008
1772556218327647200,8.291647216796875,-8.574839675590395,-1.245139469321072,-0.5001800571799278
1772556218337578200,8.301578125,-6.932263022944331,-0.6921443522766232,-0.16474325682446359
1772556218347509500,8.311509521484375,-4.996401343104243,-0.17112725877314805,-0.1449827636912465
1772556218357440300,8.321440185546875,-3.039355420938134,0.27638503805845976,-0.22364377408251165
1772556218367371300,8.331371337890625,-1.0751555353641509,0.5600225314632058,-0.3411955100126564
1772556218377302500,8.341302490234375,0.5006704710453749,0.7083443764492869,-0.4072887152537703
1772556218387233300,8.3512333984375,1.356303550040722,0.6771063576206564,-0.3892133987285197
1772556218397164300,8.361164306640624,1.6185066257506608,0.6379354999661445,0.06190218329206109
1772556218407096300,8.371096435546875,1.506060980787873,0.8578446175649762,0.958505862840265
1772556218417027300,8.38102734375,1.1867343343645333,1.2843760856881736,1.7211014694370328
1772556218426958300,8.390958251953125,1.0005220269232988,1.5887506621733307,2.224054936853051
1772556218436889300,8.400889404296874,1.092227666196227,1.899129739770293,2.5767136517748237
1772556218446820400,8.4108203125,1.2994506129622458,2.2283771839663387,2.8160739042967555
1772556218456751400,8.42075146484375,1.5031301880329846,2.3218173919469116,2.8615988071531056
1772556218466682000,8.43068212890625,1.5679378835082054,2.1862857626900074,2.676016614308953
1772556218476613400,8.44061328125,1.613127855321765,1.841674452884495,2.346554358318448
1772556218486544400,8.45054443359375,1.8622417323559521,1.3434373464658855,2.034840817247331
1772556218496475100,8.46047509765625,2.345452534556389,0.8475655078738927,1.8427561106413601
1772556218506406400,8.470406494140626,2.9146774863898752,0.5034405202805996,1.7014993817359207
1772556218516337400,8.48033740234375,3.4731548342376946,0.527332267999649,1.7699515711933373
1772556218526268200,8.49026806640625,3.8507922153323886,0.5513742378443479,1.852685676242411
1772556218536200200,8.5002001953125,3.8144051431775092,0.13716507567763328,1.9302113989934324
1772556218546131500,8.51013134765625,3.2507886788755656,-0.5144143342375755,2.12353295391798
1772556218556062200,8.520062255859376,2.1610569211483,-0.9869675488233566,1.952213971965015
1772556218565993200,8.5299931640625,0.9430635251671076,-1.7362568068623543,0.7228785132363438
1772556218575924500,8.539924560546876,0.5345768323004245,-1.8382593837440013,-0.7417851660192012
1772556218585855200,8.549855224609376,-0.09570727612972259,-1.598243005400896,-1.2980807859137653
1772556218595786200,8.5597861328125,-0.603584902074933,-1.552650882527232,-1.0048919125705957
1772556218605717200,8.56971728515625,-0.398195600476861,-1.3560241485774516,-0.4756847906097769
1772556218615648300,8.579648193359375,0.1789788490563631,-0.9951777432858944,0.20992139206975696
1772556218625579300,8.589579345703125,0.48740708484649653,-0.783744485348463,0.8172647698953748
1772556218635510300,8.59951025390625,0.6998328609526157,-0.6504360850989818,1.2530179476112127
