time,seconds_elapsed,z,y,x
1772445409883954200,0.0989541015625,-0.04552552103996277,0.12121940404176712,-0.01579376682639122
1772445409893887000,0.108886962890625,-0.05191151052713394,0.1133531928062439,0.0025870120152831078
1772445409903819000,0.118819091796875,-0.05071388930082321,0.11085940897464752,0.018970513716340065
1772445409913752000,0.128751953125,-0.05173935368657112,0.09641845524311066,0.03909236192703247
1772445409923683800,0.138683837890625,-0.05051989108324051,0.08317509293556213,0.059870876371860504
1772445409933617000,0.148616943359375,-0.0463552251458168,0.08401982486248016,0.07027535140514374
1772445409943549000,0.158548828125,-0.03976736217737198,0.08635621517896652,0.07280375808477402
1772445409953482000,0.16848193359375,-0.0338977612555027,0.08959150314331055,0.06774242222309113
1772445409963414000,0.1784140625,-0.036753732711076736,0.1009722575545311,0.06353622674942017
1772445409973347000,0.18834716796875,-0.04310990124940872,0.08546707034111023,0.0534156858921051
1772445409983279000,0.198279052734375,-0.04206673800945282,0.05358157306909561,0.03652964532375336
1772445409993212000,0.2082119140625,-0.045048680156469345,0.03281158208847046,0.015538345091044903
1772445410003145000,0.21814501953125,-0.04208032041788101,0.02469506487250328,-0.00827937014400959
1772445410013077000,0.228076904296875,-0.038784127682447433,0.03421614319086075,-0.024337047711014748
1772445410023010000,0.238010009765625,-0.04286755248904228,0.05058685690164566,-0.025545326992869377
1772445410032942000,0.247942138671875,-0.04757709801197052,0.05544611066579819,-0.02276812121272087
1772445410042875100,0.257875244140625,-0.05057288706302643,0.048516832292079926,-0.01406730804592371
1772445410052807000,0.267806884765625,-0.0486142560839653,0.025908207520842552,-0.006697428412735462
1772445410062740000,0.277739990234375,-0.0488363653421402,0.003171205520629883,-0.0035407841205596924
1772445410072672000,0.287672119140625,-0.04406477510929108,-0.004765189252793789,-0.001856737770140171
1772445410082604800,0.297604736328125,-0.04614177346229553,0.0014490298926830292,-0.004038931801915169
1772445410092536800,0.307536865234375,-0.05229373648762703,0.0037184152752161026,-0.009985307231545448
1772445410102470000,0.317469970703125,-0.05631937086582184,0.0054028648883104324,-0.017977453768253326
1772445410112402000,0.32740185546875,-0.05743052065372467,0.003887549042701721,-0.01647702232003212
1772445410122335000,0.3373349609375,-0.05867714434862137,0.0025639571249485016,-0.009448673576116562
1772445410132268000,0.34726806640625,-0.055416785180568695,0.015569636598229408,0.00290113128721714
1772445410142200000,0.357199951171875,-0.05894973501563072,0.040586039423942566,0.014474696479737759
1772445410152132900,0.3671328125,-0.060632966458797455,0.06128488481044769,0.02501702308654785
1772445410162065200,0.377065185546875,-0.06987013667821884,0.056916773319244385,0.030395809561014175
1772445410171998000,0.386998046875,-0.07647798210382462,0.04494700953364372,0.01983530819416046
1772445410181930000,0.396929931640625,-0.08132068067789078,0.03784755617380142,0.013435998931527138
1772445410191863000,0.406863037109375,-0.08449585735797882,0.043669238686561584,0.009895027615129948
1772445410201794800,0.416794921875,-0.08512942492961884,0.05350269377231598,0.013693493790924549
1772445410211728000,0.426727783203125,-0.08162587881088257,0.06734538078308105,0.019733265042304993
1772445410221660000,0.436659912109375,-0.08208899945020676,0.0727958008646965,0.030657287687063217
1772445410231593000,0.446593017578125,-0.0832221731543541,0.06212679669260979,0.04269801452755928
1772445410241525000,0.45652490234375,-0.08415188640356064,0.04488682374358177,0.05250430479645729
1772445410251458000,0.4664580078125,-0.0840202048420906,0.034335069358348846,0.06151704117655754
1772445410261390800,0.476390869140625,-0.09111060202121735,0.0415615513920784,0.06128720939159393
1772445410271323000,0.486322998046875,-0.09712906926870346,0.06692783534526825,0.056767649948596954
1772445410281256000,0.496255859375,-0.10433824360370636,0.09550222754478455,0.0494074709713459
1772445410291188000,0.50618798828125,-0.11105714738368988,0.10953729599714279,0.03760163113474846
1772445410301121000,0.51612109375,-0.11604444682598114,0.1098179891705513,0.03900458291172981
1772445410311053000,0.526052978515625,-0.12255200743675232,0.1036493256688118,0.0333140566945076
1772445410320986000,0.535986083984375,-0.12982909381389618,0.10017549991607666,0.03324028477072716
1772445410330918100,0.545918212890625,-0.12918846309185028,0.09884538501501083,0.037309397011995316
1772445410340851000,0.555850830078125,-0.13104388117790222,0.08663692325353622,0.0482906773686409
1772445410350783000,0.565782958984375,-0.12790590524673462,0.07655912637710571,0.06037307530641556
1772445410360715800,0.5757158203125,-0.13184764981269836,0.06564362347126007,0.06843845546245575
1772445410370647800,0.585647705078125,-0.13190913200378418,0.059543319046497345,0.058824848383665085
1772445410380580900,0.595580810546875,-0.13228437304496765,0.06725449860095978,0.04286558926105499
1772445410390514000,0.605513916015625,-0.13391372561454773,0.08489008992910385,0.013900432735681534
1772445410400446000,0.615446044921875,-0.13778436183929443,0.0877402052283287,-0.009183580987155437
1772445410410379000,0.62537890625,-0.14522041380405426,0.07541801035404205,-0.035112082958221436
1772445410420311000,0.63531103515625,-0.1438124030828476,0.06192350387573242,-0.05589059740304947
1772445410430244000,0.645244140625,-0.14150890707969666,0.049023836851119995,-0.07189616560935974
1772445410440176000,0.655176025390625,-0.13619749248027802,0.04152997210621834,-0.08538614213466644
1772445410450109000,0.66510888671875,-0.13013388216495514,0.03926074877381325,-0.09214866161346436
1772445410460041000,0.675041015625,-0.12454231083393097,0.03321750462055206,-0.09792505949735641
1772445410469974000,0.68497412109375,-0.12123625725507736,0.025953732430934906,-0.10353154689073563
1772445410479906000,0.694906005859375,-0.11778320372104645,0.019976802170276642,-0.11668196320533752
1772445410489839000,0.704839111328125,-0.11983197927474976,0.012432228773832321,-0.1293245106935501
1772445410499771000,0.71477099609375,-0.12238434702157974,0.014565421268343925,-0.14799939095973969
1772445410509704000,0.724703857421875,-0.1274692565202713,0.012012118473649025,-0.16436977684497833
1772445410519637000,0.734636962890625,-0.1335977166891098,0.01649421639740467,-0.16111992299556732
1772445410529569000,0.744569091796875,-0.13888275623321533,0.017305919900536537,-0.1387752890586853
1772445410539501800,0.754501708984375,-0.14055176079273224,0.018089955672621727,-0.09890111535787582
1772445410549433900,0.764433837890625,-0.14103247225284576,0.013008104637265205,-0.0532730370759964
1772445410559367000,0.774366943359375,-0.14179706573486328,0.014030225574970245,-0.010505595244467258
1772445410569299000,0.784298828125,-0.14807455241680145,0.01130685955286026,0.014659296721220016
1772445410579232000,0.79423193359375,-0.1603354811668396,0.015183888375759125,0.014529867097735405
1772445410589164000,0.8041640625,-0.17219053208827972,0.022627783939242363,-0.0052338456735014915
1772445410599097000,0.81409716796875,-0.17828412353992462,0.022152939811348915,-0.029916822910308838
1772445410609029000,0.824029052734375,-0.18412694334983826,0.014382947236299515,-0.049197107553482056
1772445410618962200,0.833962158203125,-0.18660928308963776,-0.004706325009465218,-0.06147187948226929
1772445410628894000,0.84389404296875,-0.18952052295207977,-0.01951807178556919,-0.06524791568517685
1772445410638827300,0.8538271484375,-0.19317437708377838,-0.036627016961574554,-0.06126648932695389
1772445410648760300,0.86376025390625,-0.19519077241420746,-0.0446588471531868,-0.05742447450757027
1772445410658692000,0.873692138671875,-0.1978086680173874,-0.0319230780005455,-0.056024450808763504
1772445410668625200,0.883625244140625,-0.20291756093502045,-0.01763998344540596,-0.0661623626947403
1772445410678557200,0.89355712890625,-0.20936906337738037,-0.015934228897094727,-0.08021692931652069
1772445410688490200,0.903490234375,-0.21179692447185516,-0.03161010891199112,-0.09527432173490524
1772445410698422300,0.91342236328125,-0.21430295705795288,-0.0508866012096405,-0.1081019714474678
1772445410708355000,0.92335498046875,-0.21772564947605133,-0.07431379705667496,-0.12311156839132309
1772445410718287000,0.933287109375,-0.21860449016094208,-0.08401835709810257,-0.12195228785276413
1772445410728220200,0.94322021484375,-0.22230854630470276,-0.08573487401008606,-0.10259400308132172
1772445410738152200,0.953152099609375,-0.2206893414258957,-0.09035386145114899,-0.07102489471435547
1772445410748085200,0.963085205078125,-0.215804323554039,-0.09382109344005585,-0.024455565959215164
1772445410758017300,0.973017333984375,-0.2102510929107666,-0.08871927857398987,0.01847512274980545
1772445410767950300,0.982950439453125,-0.2028309851884842,-0.07040225714445114,0.059473466128110886
1772445410777883400,0.99288330078125,-0.19464470446109772,-0.05469679832458496,0.08120006322860718
1772445410787815400,1.0028154296875,-0.1848055124282837,-0.03436452895402908,0.087382972240448
1772445410797748200,1.012748291015625,-0.17393049597740173,-0.004600506275892258,0.08243641257286072
1772445410807680300,1.02268017578125,-0.16436707973480225,0.02363845333456993,0.07491625100374222
1772445410817613000,1.032613037109375,-0.1498379409313202,0.03601576015353203,0.0679243877530098
1772445410827545000,1.042545166015625,-0.13293512165546417,0.042934149503707886,0.05379828065633774
1772445410837478100,1.05247802734375,-0.1116519421339035,0.03921797126531601,0.03769281506538391
1772445410847410200,1.06241015625,-0.09003186970949173,0.035378601402044296,0.01097741536796093
1772445410857343200,1.07234326171875,-0.06922060251235962,0.03287363424897194,-0.015726367011666298
1772445410867275300,1.082275146484375,-0.05566657707095146,0.024858947843313217,-0.038309063762426376
1772445410877208300,1.092208251953125,-0.04463949427008629,0.00725039467215538,-0.054009728133678436
1772445410887140400,1.102140380859375,-0.03884405270218849,-0.012517686933279037,-0.05841570720076561
1772445410897073200,1.1120732421875,-0.028203390538692474,-0.017388075590133667,-0.05545027181506157
1772445410907006200,1.122006103515625,-0.02013174444437027,-0.004020890220999718,-0.043285585939884186
1772445410916938200,1.131938232421875,-0.01790347695350647,0.014668108895421028,-0.025981435552239418
1772445410926871300,1.141871337890625,-0.02095506526529789,0.018446503207087517,0.0046362788416445255
1772445410936803000,1.151802978515625,-0.024012906476855278,0.024451395496726036,0.042877137660980225
1772445410946736400,1.161736328125,-0.02274523675441742,0.02712126635015011,0.07782252877950668
1772445410956668200,1.171668212890625,-0.029354669153690338,0.03664952516555786,0.09327232092618942
1772445410966601200,1.181601318359375,-0.03957614675164223,0.036447033286094666,0.09109852463006973
1772445410976533200,1.191533203125,-0.04718479886651039,0.03527417778968811,0.07824690639972687
1772445410986466000,1.201466064453125,-0.057086698710918427,0.03221059590578079,0.06419096887111664
1772445410996398300,1.2113984375,-0.06492678076028824,0.019938485696911812,0.06718169897794724
1772445411006331100,1.2213310546875,-0.07413266599178314,0.009890269488096237,0.0697074607014656
1772445411016263200,1.23126318359375,-0.07747440040111542,0.016448035836219788,0.07727882266044617
1772445411026196200,1.2411962890625,-0.08291590213775635,0.03711739182472229,0.0801805704832077
1772445411036129300,1.25112939453125,-0.09106091409921646,0.06987214088439941,0.07911849766969681
1772445411046061300,1.261061279296875,-0.09012001752853394,0.09278443455696106,0.0695001482963562
1772445411055994400,1.270994384765625,-0.09098261594772339,0.09429844468832016,0.061351679265499115
1772445411065926400,1.280926513671875,-0.08537892252206802,0.07662178575992584,0.05764671415090561
1772445411075859200,1.290859130859375,-0.07327272742986679,0.06023668497800827,0.052492693066596985
1772445411085791200,1.300791259765625,-0.0634085088968277,0.040326282382011414,0.03720426186919212
1772445411095724000,1.31072412109375,-0.05051135644316673,0.02677479200065136,0.009332951158285141
1772445411105656000,1.320656005859375,-0.036471981555223465,0.023244909942150116,-0.02674124762415886
1772445411115589000,1.330589111328125,-0.034123875200748444,0.021613992750644684,-0.07741241157054901
1772445411125521200,1.340521240234375,-0.032084811478853226,0.030260972678661346,-0.12801280617713928
1772445411135454200,1.3504541015625,-0.030988119542598724,0.049435462802648544,-0.17506155371665955
1772445411145386200,1.36038623046875,-0.027856241911649704,0.05098740756511688,-0.19600069522857666
1772445411155319300,1.3703193359375,-0.028540940955281258,0.03081263042986393,-0.1876908391714096
1772445411165251300,1.380251220703125,-0.01586802303791046,-0.009982375428080559,-0.14742450416088104
1772445411175184100,1.39018408203125,-0.006661209277808666,-0.054738931357860565,-0.08489641547203064
1772445411185117200,1.4001171875,-0.0022266684100031853,-0.08708689361810684,0.002038022503256798
1772445411195049200,1.41004931640625,0.0018146783113479614,-0.11177333444356918,0.10283547639846802
1772445411204982300,1.419982177734375,0.00007738545536994934,-0.11167563498020172,0.19334401190280914
1772445411214914300,1.429914306640625,-0.009567252360284328,-0.09869325160980225,0.26301681995391846
1772445411224847400,1.439847412109375,-0.02198703959584236,-0.08258303999900818,0.30648794770240784
1772445411234779100,1.449779052734375,-0.04263079911470413,-0.04468253254890442,0.32885903120040894
1772445411244712200,1.459712158203125,-0.06175043061375618,-0.020057491958141327,0.3330305516719818
1772445411254644200,1.469644287109375,-0.09468600898981094,-0.019207678735256195,0.3156808614730835
1772445411264577000,1.479576904296875,-0.12878166139125824,-0.004167945124208927,0.2787652313709259
1772445411274509300,1.48950927734375,-0.15635761618614197,0.0072106774896383286,0.22118207812309265
1772445411284442000,1.499442138671875,-0.1785540133714676,0.026126809418201447,0.15640048682689667
1772445411294374100,1.5093740234375,-0.20897610485553741,0.054876167327165604,0.08161066472530365
1772445411304307200,1.51930712890625,-0.2314181625843048,0.07459035515785217,0.012555224820971489
1772445411314239200,1.5292392578125,-0.24845066666603088,0.08569653332233429,-0.052322838455438614
1772445411324172300,1.53917236328125,-0.2516319453716278,0.09584005177021027,-0.10815679281949997
1772445411334105300,1.549105224609375,-0.24452024698257446,0.11066773533821106,-0.14929303526878357
1772445411344037400,1.559037353515625,-0.22806963324546814,0.12272679805755615,-0.17034052312374115
1772445411353970200,1.56897021484375,-0.20663198828697205,0.11781485378742218,-0.17580613493919373
1772445411363902200,1.578902099609375,-0.18085698783397675,0.10017625987529755,-0.17245888710021973
1772445411373835300,1.588835205078125,-0.1472707986831665,0.07999402284622192,-0.15347054600715637
1772445411383767000,1.59876708984375,-0.11698254197835922,0.06047486141324043,-0.11316325515508652
1772445411393700000,1.6087001953125,-0.09537684917449951,0.04262635111808777,-0.060963425785303116
1772445411403632000,1.618632080078125,-0.08065247535705566,0.02911500446498394,0.002616584300994873
1772445411413565200,1.628565185546875,-0.07266965508460999,0.02790246717631817,0.06568263471126556
1772445411423497200,1.638497314453125,-0.07228695601224899,0.03486227989196777,0.12189783900976181
1772445411433430300,1.64843017578125,-0.08633539825677872,0.03586043417453766,0.16374169290065765
1772445411443362300,1.6583623046875,-0.10200080275535583,0.03516925126314163,0.18868350982666016
1772445411453295000,1.668295166015625,-0.12483234703540802,0.026299064978957176,0.20265871286392212
1772445411463227400,1.678227294921875,-0.1453825980424881,0.02558709681034088,0.20248299837112427
1772445411473160200,1.68816015625,-0.17496205866336823,0.02925799787044525,0.19113101065158844
1772445411483093200,1.69809326171875,-0.2009304314851761,0.03564433008432388,0.17752200365066528
1772445411493025300,1.708025390625,-0.22595375776290894,0.04417576640844345,0.17542290687561035
1772445411502958300,1.717958251953125,-0.2395850121974945,0.057810693979263306,0.1799636036157608
1772445411512890000,1.72789013671875,-0.2538326382637024,0.06312689185142517,0.2008449137210846
1772445411522823400,1.737823486328125,-0.2719604969024658,0.06278643012046814,0.2147064507007599
1772445411532755200,1.747755126953125,-0.28715330362319946,0.06095842644572258,0.21581220626831055
1772445411542688300,1.757688232421875,-0.31043949723243713,0.05827759951353073,0.19623064994812012
1772445411552620300,1.767620361328125,-0.3379800319671631,0.046027056872844696,0.16401146352291107
1772445411562553000,1.777552978515625,-0.3611455261707306,0.027083180844783783,0.10862039029598236
1772445411572485000,1.787485107421875,-0.3828772008419037,0.022471915930509567,0.035605840384960175
1772445411582418200,1.797418212890625,-0.39657434821128845,0.025463417172431946,-0.04059208929538727
1772445411592350200,1.80735009765625,-0.40948721766471863,0.03735070303082466,-0.1257232278585434
1772445411602283300,1.817283203125,-0.4254768192768097,0.05030685290694237,-0.2098722606897354
1772445411612215300,1.82721533203125,-0.445734441280365,0.05573703721165657,-0.2951522767543793
1772445411622148400,1.8371484375,-0.46704599261283875,0.051911860704422,-0.37678006291389465
1772445411632080400,1.847080322265625,-0.48422232270240784,0.02913597784936428,-0.4475708603858948
1772445411642013700,1.857013671875,-0.4990924894809723,0.004802776500582695,-0.5008715391159058
1772445411651946800,1.86694677734375,-0.49984297156333923,-0.014415392652153969,-0.5310288667678833
1772445411661878800,1.876878662109375,-0.5009885430335999,-0.05667663365602493,-0.5270181894302368
1772445411671811800,1.886811767578125,-0.48641011118888855,-0.11019525676965714,-0.48618394136428833
1772445411681744000,1.896743896484375,-0.46962499618530273,-0.15595486760139465,-0.4032972455024719
1772445411691677000,1.906677001953125,-0.4595273435115814,-0.19606313109397888,-0.2963218092918396
1772445411701608700,1.916608642578125,-0.45744702219963074,-0.21545226871967316,-0.17140400409698486
1772445411711541800,1.926541748046875,-0.45686617493629456,-0.20538072288036346,-0.07184332609176636
1772445411721473800,1.936473876953125,-0.46978065371513367,-0.16653677821159363,-0.006299846805632114
1772445411731406600,1.946406494140625,-0.4859335422515869,-0.12769269943237305,0.01975918561220169
1772445411741338600,1.956338623046875,-0.5077134966850281,-0.0895441472530365,0.017024772241711617
1772445411751271700,1.966271728515625,-0.5205557942390442,-0.05228252708911896,-0.00889657437801361
1772445411761203700,1.97620361328125,-0.5383239388465881,-0.023648368194699287,-0.05346382036805153
1772445411771136800,1.98613671875,-0.5433914065361023,-0.0025542685762047768,-0.09785046428442001
1772445411781068800,1.99606884765625,-0.5419942736625671,0.007003456354141235,-0.13212095201015472
1772445411791001900,2.006001953125,-0.5354399681091309,-0.0011141244322061539,-0.15379269421100616
1772445411800935000,2.015934814453125,-0.5264383554458618,-0.027781307697296143,-0.1591547429561615
1772445411810867000,2.025866943359375,-0.515515148639679,-0.07494215667247772,-0.14693163335323334
1772445411820799700,2.0357998046875,-0.4962550103664398,-0.1285366415977478,-0.11930177360773087
1772445411830731800,2.045731689453125,-0.4814779460430145,-0.16307757794857025,-0.08891536295413971
1772445411840664800,2.055664794921875,-0.4649631381034851,-0.17609357833862305,-0.05539872497320175
1772445411850596600,2.0655966796875,-0.4541459083557129,-0.17080268263816833,-0.028857659548521042
1772445411860529700,2.07552978515625,-0.44643327593803406,-0.16360385715961456,-0.009090671315789223
1772445411870461700,2.085461669921875,-0.43844830989837646,-0.15813851356506348,0.004204894881695509
1772445411880394800,2.095394775390625,-0.42313164472579956,-0.15008968114852905,0.014225107617676258
1772445411890326800,2.105326904296875,-0.40846481919288635,-0.1473253220319748,0.021323498338460922
1772445411900259800,2.115259765625,-0.3897084593772888,-0.14885999262332916,0.031700603663921356
1772445411910191900,2.12519189453125,-0.3719981908798218,-0.15839171409606934,0.04337243735790253
1772445411920124700,2.135124755859375,-0.3542096018791199,-0.1733822226524353,0.052196335047483444
1772445411930056700,2.145056640625,-0.3345264494419098,-0.173179030418396,0.06337735056877136
1772445411939989800,2.15498974609375,-0.31904348731040955,-0.16576167941093445,0.06961048394441605
1772445411949921800,2.164921875,-0.29972705245018005,-0.15768085420131683,0.0697750672698021
1772445411959854800,2.174854736328125,-0.27308958768844604,-0.14645187556743622,0.05060359835624695
1772445411969786600,2.18478662109375,-0.2477296143770218,-0.13067930936813354,0.02027791738510132
1772445411979720000,2.194719970703125,-0.22911585867404938,-0.11215449869632721,-0.010439306497573853
1772445411989653000,2.204653076171875,-0.2047969400882721,-0.09423275291919708,-0.030685190111398697
1772445411999584800,2.214584716796875,-0.18824248015880585,-0.08973658084869385,-0.03975280746817589
1772445412009517600,2.224517578125,-0.16623066365718842,-0.09450257569551468,-0.03934428095817566
1772445412019449600,2.23444970703125,-0.14750021696090698,-0.1144310012459755,-0.03061496466398239
1772445412029382700,2.244382568359375,-0.12930791079998016,-0.14552608132362366,-0.00928331259638071
1772445412039314700,2.254314697265625,-0.1123984307050705,-0.1858121156692505,0.017406020313501358
1772445412049247700,2.264247802734375,-0.1089930459856987,-0.2182272970676422,0.04827765002846718
1772445412059179800,2.2741796875,-0.10004483908414841,-0.23070481419563293,0.07374528050422668
1772445412069112800,2.28411279296875,-0.09098343551158905,-0.2346004843711853,0.09201323240995407
1772445412079044900,2.294044921875,-0.0779070258140564,-0.2504872679710388,0.1062103658914566
1772445412088978000,2.30397802734375,-0.06220183148980141,-0.2706087827682495,0.11490185558795929
1772445412098910000,2.313909912109375,-0.04860840365290642,-0.28999507427215576,0.11063183099031448
1772445412108842800,2.3238427734375,-0.045215003192424774,-0.30358704924583435,0.09423448145389557
1772445412118774500,2.3337744140625,-0.04215528815984726,-0.3057782053947449,0.07351910322904587
1772445412128707600,2.34370751953125,-0.04830718785524368,-0.3119434118270874,0.050815656781196594
1772445412138639600,2.3536396484375,-0.05577550083398819,-0.3405153453350067,0.032533351331949234
1772445412148572700,2.36357275390625,-0.06703028082847595,-0.3716396987438202,0.015092043206095695
1772445412158505700,2.373505615234375,-0.07601393014192581,-0.38455846905708313,-0.022226931527256966
1772445412168437800,2.383437744140625,-0.09105200320482254,-0.3846956193447113,-0.07827608287334442
1772445412178370800,2.393370849609375,-0.12578122317790985,-0.382737398147583,-0.1660730540752411
1772445412188302800,2.403302734375,-0.16279835999011993,-0.3748549818992615,-0.28506574034690857
1772445412198235600,2.413235595703125,-0.18636159598827362,-0.336292028427124,-0.41767746210098267
1772445412208167700,2.423167724609375,-0.1989905834197998,-0.2948172688484192,-0.5292340517044067
1772445412218100700,2.433100830078125,-0.1951775848865509,-0.2808941900730133,-0.5765772461891174
1772445412228032800,2.44303271484375,-0.17130181193351746,-0.30830156803131104,-0.5372673869132996
1772445412237965800,2.4529658203125,-0.1351010650396347,-0.34450608491897583,-0.43821606040000916
1772445412247897900,2.46289794921875,-0.09386096149682999,-0.38575950264930725,-0.3175535500049591
1772445412257831000,2.472830810546875,-0.0580851212143898,-0.4330204129219055,-0.1942775845527649
1772445412267762700,2.4827626953125,-0.024108512327075005,-0.5023036003112793,-0.09232190996408463
1772445412277695700,2.49269580078125,0.004439378622919321,-0.5640783309936523,-0.010686980560421944
1772445412287627800,2.502627685546875,0.028215814381837845,-0.6113041639328003,0.044958971440792084
1772445412297560600,2.512560546875,0.03867456689476967,-0.626427412033081,0.08985135704278946
1772445412307492600,2.52249267578125,0.033663030713796616,-0.5693356394767761,0.11139047145843506
1772445412317425700,2.53242578125,0.015662871301174164,-0.46353939175605774,0.11005738377571106
1772445412327358700,2.542358642578125,-0.0044634356163442135,-0.3766026496887207,0.10470683127641678
1772445412337290800,2.552290771484375,-0.026793934404850006,-0.3158063590526581,0.09676637500524521
1772445412347223800,2.562223876953125,-0.04296305030584335,-0.26254233717918396,0.07397210597991943
1772445412357155800,2.57215576171875,-0.06712722033262253,-0.22275206446647644,0.03414567559957504
1772445412367089000,2.5820888671875,-0.08817950636148453,-0.19196832180023193,-0.028455650433897972
1772445412377021000,2.59202099609375,-0.09976174682378769,-0.17977532744407654,-0.10255065560340881
1772445412386953700,2.60195361328125,-0.10985858738422394,-0.15842369198799133,-0.17768776416778564
1772445412396885800,2.6118857421875,-0.1175541803240776,-0.14311060309410095,-0.23471853137016296
1772445412406818800,2.62181884765625,-0.12850350141525269,-0.14173029363155365,-0.2559218108654022
1772445412416750600,2.63175048828125,-0.13657207787036896,-0.1435701996088028,-0.2395717203617096
1772445412426683600,2.64168359375,-0.15009666979312897,-0.1418127864599228,-0.2010139375925064
1772445412436615700,2.65161572265625,-0.15910401940345764,-0.14033275842666626,-0.13981810212135315
1772445412446548700,2.661548828125,-0.16517789661884308,-0.1404174566268921,-0.06541604548692703
1772445412456480800,2.671480712890625,-0.17347976565361023,-0.14633630216121674,0.02065209299325943
1772445412466413800,2.681413818359375,-0.17599831521511078,-0.13580377399921417,0.10866157710552216
1772445412476345900,2.691345947265625,-0.17561455070972443,-0.09687510132789612,0.18225258588790894
1772445412486278700,2.701278564453125,-0.1707790493965149,-0.04315914586186409,0.19882650673389435
1772445412496210700,2.711210693359375,-0.17182274162769318,0.015770817175507545,0.17359361052513123
1772445412506143700,2.721143798828125,-0.1644124984741211,0.07814444601535797,0.1270250380039215
1772445412516076800,2.731076904296875,-0.15252001583576202,0.13822782039642334,0.07586094737052917
1772445412526008800,2.7410087890625,-0.13608431816101074,0.1873365193605423,0.02474077045917511
1772445412535942000,2.75094189453125,-0.1158941239118576,0.2179190218448639,-0.03465133160352707
1772445412545873700,2.760873779296875,-0.08758818358182907,0.21094153821468353,-0.09260730445384979
1772445412555807000,2.770806884765625,-0.06016864255070686,0.18121592700481415,-0.1386592984199524
1772445412565738800,2.78073876953125,-0.03366726264357567,0.13539785146713257,-0.16289059817790985
1772445412575671600,2.790671630859375,-0.008569949306547642,0.08372114598751068,-0.1653914600610733
1772445412585603800,2.800603759765625,0.014906881377100945,0.03497384488582611,-0.16017939150333405
1772445412595536600,2.81053662109375,0.029833145439624786,-0.012259433045983315,-0.14774560928344727
1772445412605468700,2.82046875,0.04208288714289665,-0.05404283106327057,-0.12711969017982483
1772445412615401700,2.830401611328125,0.04628854617476463,-0.06726598739624023,-0.10913173854351044
1772445412625333800,2.840333740234375,0.041005369275808334,-0.055298805236816406,-0.08885416388511658
1772445412635266800,2.850266845703125,0.028601031750440598,-0.03610559552907944,-0.08018022030591965
1772445412645198800,2.86019873046875,0.01644955947995186,-0.007660373114049435,-0.08111632615327835
1772445412655132000,2.8701318359375,-0.0007908148691058159,0.01814291998744011,-0.08827119320631027
1772445412665063700,2.880063720703125,-0.011022413149476051,0.038938213139772415,-0.09578663855791092
1772445412674996700,2.889996826171875,-0.018865974619984627,0.06061321496963501,-0.11380502581596375
1772445412684928800,2.8999287109375,-0.018192993476986885,0.07126506417989731,-0.1331702023744583
1772445412694861600,2.909861572265625,-0.017196429893374443,0.06537017971277237,-0.1572946161031723
1772445412704793600,2.919793701171875,-0.013766810297966003,0.04318844527006149,-0.18186281621456146
1772445412714726700,2.9297265625,-0.015402523800730705,0.012646250426769257,-0.21674063801765442
1772445412724659700,2.93965966796875,-0.016077902168035507,-0.00532396137714386,-0.2578180432319641
1772445412734591700,2.949591796875,-0.022229010239243507,-0.013804679736495018,-0.28676798939704895
1772445412744524800,2.95952490234375,-0.028583578765392303,-0.02338886447250843,-0.29887259006500244
1772445412754456800,2.969456787109375,-0.034644920378923416,-0.038203589618206024,-0.29151278734207153
1772445412764389600,2.9793896484375,-0.035487543791532516,-0.05406883731484413,-0.2745063602924347
1772445412774322000,2.989322021484375,-0.03839825093746185,-0.05647442489862442,-0.2518264055252075
1772445412784254700,2.999254638671875,-0.0379582978785038,-0.06121298670768738,-0.21298369765281677
1772445412794186800,3.009186767578125,-0.03239893540740013,-0.059191446751356125,-0.16924713551998138
1772445412804119800,3.019119873046875,-0.03268415853381157,-0.06013980135321617,-0.12323624640703201
1772445412814051600,3.029051513671875,-0.04083609580993652,-0.06185872107744217,-0.08638683706521988
1772445412823984600,3.038984619140625,-0.04581008106470108,-0.06457195430994034,-0.059046827256679535
1772445412833916700,3.048916748046875,-0.055390797555446625,-0.05355476215481758,-0.03936440870165825
1772445412843849700,3.058849609375,-0.0691729262471199,-0.04434235394001007,-0.019245557487010956
1772445412853781800,3.06878173828125,-0.08082213997840881,-0.044723495841026306,-0.004294125363230705
1772445412863714800,3.07871484375,-0.09120634198188782,-0.03631429746747017,0.007033896166831255
1772445412873646800,3.088646728515625,-0.09577324241399765,-0.020814811810851097,0.012299814261496067
1772445412883579600,3.09857958984375,-0.10501521080732346,-0.00244698952883482,0.021880004554986954
1772445412893511700,3.10851171875,-0.11027096211910248,0.013725148513913155,0.018156761303544044
1772445412903444700,3.11844482421875,-0.1120627373456955,0.02121981792151928,0.005737908184528351
1772445412913377800,3.128377685546875,-0.11856526136398315,0.02084258571267128,-0.011161401867866516
1772445412923309800,3.138309814453125,-0.12080604583024979,0.020575471222400665,-0.024577874690294266
1772445412933243000,3.148242919921875,-0.1193641945719719,0.026235954836010933,-0.03500416874885559
1772445412943174700,3.158174560546875,-0.1184142455458641,0.036269411444664,-0.04747602343559265
1772445412953107700,3.168107666015625,-0.12568840384483337,0.0535600371658802,-0.05904620140790939
1772445412963039700,3.178039794921875,-0.12800587713718414,0.0683155506849289,-0.06972361356019974
1772445412972972500,3.18797265625,-0.12532930076122284,0.07727504521608353,-0.07932019233703613
1772445412982904600,3.197904541015625,-0.11970522999763489,0.07943939417600632,-0.08432293683290482
1772445412992837600,3.207837646484375,-0.11489889025688171,0.08994469046592712,-0.09540783613920212
1772445413002769700,3.217769775390625,-0.10447287559509277,0.10819826275110245,-0.11622630804777145
1772445413012702700,3.22770263671875,-0.09628944098949432,0.12094717472791672,-0.12631532549858093
1772445413022634800,3.237634765625,-0.0841054767370224,0.1182885393500328,-0.13308535516262054
1772445413032567800,3.24756787109375,-0.06947484612464905,0.11860483139753342,-0.1257186233997345
1772445413042499800,3.257499755859375,-0.05367058515548706,0.12294764071702957,-0.11211386322975159
1772445413052433000,3.267432861328125,-0.03928002342581749,0.12838543951511383,-0.09645920246839523
1772445413062365000,3.277364990234375,-0.025253688916563988,0.12857532501220703,-0.08169064670801163
1772445413072297700,3.287297607421875,-0.019787278026342392,0.13964317739009857,-0.05514388903975487
1772445413082229500,3.2972294921875,-0.012780234217643738,0.1404826045036316,-0.02002052217721939
1772445413092162600,3.30716259765625,-0.0003360724076628685,0.14772486686706543,0.03196856752038002
1772445413102094600,3.317094482421875,0.006719174329191446,0.15486747026443481,0.10584358870983124
1772445413112027600,3.327027587890625,0.014488519169390202,0.1570073962211609,0.18780915439128876
1772445413121960700,3.336960693359375,0.0271928608417511,0.15849237143993378,0.26098161935806274
1772445413131892700,3.346892822265625,0.036974646151065826,0.1697763055562973,0.3157880902290344
1772445413141825800,3.35682568359375,0.04157552868127823,0.18012668192386627,0.3520302474498749
1772445413151757800,3.3667578125,0.04178100451827049,0.18913453817367554,0.36433690786361694
1772445413161690600,3.376690673828125,0.04104384407401085,0.19798502326011658,0.3654594421386719
1772445413171622700,3.38662255859375,0.04192706570029259,0.20719946920871735,0.3497658371925354
1772445413181555700,3.3965556640625,0.03988655284047127,0.21321527659893036,0.32702377438545227
1772445413191487700,3.40648779296875,0.03966473042964935,0.20785917341709137,0.300017386674881
1772445413201420800,3.4164208984375,0.043282102793455124,0.18815045058727264,0.263897180557251
1772445413211352800,3.426352783203125,0.047683633863925934,0.1697549819946289,0.23255038261413574
1772445413221286000,3.436285888671875,0.0566805936396122,0.15687699615955353,0.20876994729042053
1772445413231217700,3.4462177734375,0.07021886855363846,0.16194404661655426,0.18573832511901855
1772445413241150700,3.456150634765625,0.08961919695138931,0.17548036575317383,0.14597786962985992
1772445413251082800,3.466082763671875,0.10548074543476105,0.19779157638549805,0.09190232306718826
1772445413261015600,3.476015625,0.12169992923736572,0.22984032332897186,0.03154391050338745
1772445413270947600,3.485947509765625,0.13522401452064514,0.2680331766605377,-0.01948706991970539
1772445413280880600,3.495880615234375,0.15163388848304749,0.2868974208831787,-0.056046150624752045
1772445413290812700,3.505812744140625,0.1674979031085968,0.2822781205177307,-0.059733934700489044
1772445413300745700,3.515745849609375,0.18264329433441162,0.23914717137813568,-0.024356767535209656
1772445413310677800,3.525677734375,0.1950383484363556,0.17883791029453278,0.03901533782482147
1772445413320610800,3.53561083984375,0.19359411299228668,0.11348900198936462,0.12360558658838272
1772445413330543900,3.5455439453125,0.18982762098312378,0.04771726205945015,0.21674567461013794
1772445413340476000,3.555475830078125,0.1821201592683792,-0.010452570393681526,0.3062332272529602
1772445413350408700,3.56540869140625,0.17192131280899048,-0.05044335871934891,0.38106265664100647
1772445413360340700,3.5753408203125,0.1609855741262436,-0.05146361142396927,0.42747384309768677
1772445413370273800,3.585273681640625,0.15057040750980377,-0.03541713207960129,0.4506598711013794
1772445413380205600,3.59520556640625,0.13781626522541046,-0.022396406158804893,0.4616597890853882
1772445413390138600,3.605138671875,0.11995183676481247,0.009049531072378159,0.4553624391555786
1772445413400070700,3.615070556640625,0.09990915656089783,0.032734088599681854,0.41673943400382996
1772445413410003700,3.625003662109375,0.08069486916065216,0.036617398262023926,0.36685630679130554
1772445413419935700,3.634935791015625,0.0647401362657547,0.03461203724145889,0.30269092321395874
1772445413429868800,3.644868896484375,0.046988409012556076,0.028715083375573158,0.23090073466300964
1772445413439800800,3.65480078125,0.02926800400018692,0.02589160017669201,0.17517782747745514
1772445413449733600,3.664733642578125,0.014596367254853249,0.025149472057819366,0.1343601942062378
1772445413459665700,3.674665771484375,0.00151838269084692,0.01993659883737564,0.11663153767585754
1772445413469598700,3.6845986328125,-0.000863255001604557,0.018975280225276947,0.11704329401254654
1772445413479530800,3.69453076171875,0.0006294464692473412,0.030773349106311798,0.13087016344070435
1772445413489463800,3.7044638671875,0.00610394449904561,0.046980660408735275,0.1549762338399887
1772445413499395600,3.7143955078125,0.014408212155103683,0.06900687515735626,0.1910756528377533
1772445413509328600,3.72432861328125,0.02172859013080597,0.0867401584982872,0.2321438491344452
1772445413519260700,3.7342607421875,0.031621165573596954,0.10283364355564117,0.2703777849674225
1772445413529193700,3.74419384765625,0.046222057193517685,0.12567278742790222,0.29940974712371826
1772445413539126500,3.75412646484375,0.05228075012564659,0.1563183218240738,0.31663748621940613
1772445413549058600,3.76405859375,0.06721484661102295,0.1703580915927887,0.32519418001174927
1772445413558991600,3.77399169921875,0.08852173388004303,0.18790538609027863,0.3236929476261139
1772445413568923600,3.783923583984375,0.10510526597499847,0.19895750284194946,0.2929714322090149
1772445413578856700,3.793856689453125,0.11087420582771301,0.20907485485076904,0.22434869408607483
1772445413588788700,3.803788818359375,0.11393217742443085,0.20965757966041565,0.12547610700130463
1772445413598721800,3.8137216796875,0.11510210484266281,0.21329253911972046,-0.004335424862802029
1772445413608653800,3.82365380859375,0.11199671775102615,0.22709053754806519,-0.15073803067207336
1772445413618587000,3.8335869140625,0.10108041763305664,0.24290812015533447,-0.29150524735450745
1772445413628519000,3.843518798828125,0.08402764797210693,0.244156152009964,-0.39658454060554504
1772445413638451500,3.853451416015625,0.06819862127304077,0.2228868156671524,-0.47133147716522217
1772445413648383500,3.863383544921875,0.04474471136927605,0.1482817381620407,-0.513629138469696
1772445413658316300,3.87331640625,0.024345697835087776,0.0572490431368351,-0.5245049595832825
1772445413668248300,3.883248291015625,0.0016663521528244019,-0.02758135087788105,-0.4909994602203369
1772445413678181400,3.893181396484375,-0.014594110660254955,-0.11330211162567139,-0.4033809304237366
1772445413688113400,3.903113525390625,-0.027293259277939796,-0.17228147387504578,-0.2901318371295929
1772445413698046500,3.91304638671875,-0.04224557802081108,-0.2101937085390091,-0.1551135629415512
1772445413707978500,3.922978515625,-0.06720859557390213,-0.21908318996429443,-0.01545574888586998
1772445413717911600,3.93291162109375,-0.09797343611717224,-0.18561337888240814,0.10975463688373566
1772445413727843600,3.942843505859375,-0.1358724683523178,-0.11843901127576828,0.2116527259349823
1772445413737776600,3.952776611328125,-0.18522191047668457,-0.031393326818943024,0.2917978763580322
1772445413747708700,3.962708740234375,-0.22708295285701752,0.05082019418478012,0.3456105589866638
1772445413757641500,3.972641357421875,-0.2625541388988495,0.12066346406936646,0.36477041244506836
1772445413767574500,3.982574462890625,-0.28713637590408325,0.1829981505870819,0.3546768128871918
1772445413777506300,3.99250634765625,-0.30657851696014404,0.23003649711608887,0.31252244114875793
1772445413787439600,4.002439697265625,-0.312456876039505,0.25983643531799316,0.24378155171871185
1772445413797371400,4.012371337890625,-0.3099726736545563,0.28453779220581055,0.1539885550737381
1772445413807304400,4.022304443359375,-0.3014022409915924,0.2994614541530609,0.05613009259104729
1772445413817236500,4.032236572265625,-0.2853849232196808,0.302744597196579,-0.03995383158326149
1772445413827169500,4.04216943359375,-0.25925910472869873,0.287025511264801,-0.1230211853981018
1772445413837101600,4.0521015625,-0.23002533614635468,0.26819324493408203,-0.1965947449207306
1772445413847034400,4.062034423828125,-0.19994015991687775,0.23601165413856506,-0.24781087040901184
1772445413856966400,4.07196630859375,-0.17300574481487274,0.1870020180940628,-0.2846900522708893
1772445413866899500,4.0818994140625,-0.140386164188385,0.13249409198760986,-0.3048257827758789
1772445413876831500,4.09183154296875,-0.11289834976196289,0.07632908225059509,-0.3121766448020935
1772445413886764500,4.1017646484375,-0.08440535515546799,0.015801286324858665,-0.316435307264328
1772445413896696600,4.111696533203125,-0.061767689883708954,-0.023629475384950638,-0.31787875294685364
1772445413906629600,4.121629638671875,-0.045607857406139374,-0.04131811112165451,-0.3099539279937744
1772445413916561400,4.1315615234375,-0.03368781507015228,-0.05852639675140381,-0.2936252951622009
1772445413926494500,4.141494384765625,-0.020409701392054558,-0.07363951951265335,-0.2747512757778168
1772445413936426500,4.151426513671875,-0.012457767501473427,-0.0747535228729248,-0.2650352418422699
1772445413946359300,4.161359375,-0.008157432079315186,-0.06059729680418968,-0.25455600023269653
1772445413956291300,4.171291259765625,-0.005517706740647554,-0.048034898936748505,-0.24212437868118286
1772445413966224400,4.181224365234375,0.004412694834172726,-0.026609888300299644,-0.22258497774600983
1772445413976156400,4.191156494140625,0.01505468599498272,-0.009867659769952297,-0.19776245951652527
1772445413986089500,4.20108935546875,0.02845119498670101,0.005843151360750198,-0.17612630128860474
1772445413996022500,4.2110224609375,0.03646065294742584,0.009986231103539467,-0.15548253059387207
1772445414005954600,4.22095458984375,0.04126383364200592,0.013600999489426613,-0.13186807930469513
1772445414015887600,4.2308876953125,0.046349670737981796,0.015553098171949387,-0.11035586893558502
1772445414025819600,4.240819580078125,0.04424022510647774,0.007107250392436981,-0.08490066230297089
1772445414035752400,4.25075244140625,0.039840418845415115,-0.012134354561567307,-0.05838703736662865
1772445414045684500,4.2606845703125,0.03289933130145073,-0.02741302363574505,-0.03641214966773987
1772445414055617500,4.270617431640625,0.026557013392448425,-0.030563542619347572,-0.016186241060495377
1772445414065549300,4.28054931640625,0.01206246018409729,-0.016266562044620514,-0.0037021376192569733
1772445414075482400,4.290482421875,-0.0027521720621734858,-0.006877320818603039,0.01051674596965313
1772445414085414400,4.300414306640625,-0.013869633898139,-0.014614330604672432,0.01928815431892872
1772445414095347500,4.310347412109375,-0.022070039063692093,-0.018299346789717674,0.02080535888671875
1772445414105279500,4.320279541015625,-0.029177121818065643,-0.01954704336822033,0.01774163544178009
1772445414115212500,4.330212646484375,-0.0337953083217144,-0.018733713775873184,0.01695493794977665
1772445414125144600,4.34014453125,-0.04496879503130913,-0.022085119038820267,0.019905634224414825
1772445414135077400,4.350077392578125,-0.05213535949587822,-0.029673796147108078,0.022113129496574402
1772445414145009400,4.360009521484375,-0.05706918239593506,-0.0493316650390625,0.028682857751846313
1772445414154942500,4.3699423828125,-0.050912220031023026,-0.06581529974937439,0.034468308091163635
1772445414164874500,4.37987451171875,-0.04039924591779709,-0.07050342857837677,0.049346718937158585
1772445414174807600,4.3898076171875,-0.03251202777028084,-0.07415062934160233,0.07638846337795258
1772445414184739300,4.3997392578125,-0.019072243943810463,-0.08821295946836472,0.11777964979410172
1772445414194672600,4.409672607421875,0.007805442437529564,-0.09320159256458282,0.16314713656902313
1772445414204604400,4.4196044921875,0.026820695027709007,-0.09666380286216736,0.21337583661079407
1772445414214537500,4.429537353515625,0.04991748929023743,-0.11047708988189697,0.26200994849205017
1772445414224469500,4.439469482421875,0.0732068419456482,-0.1112741157412529,0.2883663773536682
1772445414234402300,4.44940234375,0.09181302785873413,-0.09699397534132004,0.28078168630599976
1772445414244335400,4.45933544921875,0.10356859117746353,-0.07421597093343735,0.2450474053621292
1772445414254267400,4.469267333984375,0.10800275951623917,-0.047670647501945496,0.18435290455818176
1772445414264200400,4.479200439453125,0.10234760493040085,-0.029849093407392502,0.1161792054772377
1772445414274132500,4.489132568359375,0.10601691156625748,-0.020371703431010246,0.05382262170314789
1772445414284065500,4.4990654296875,0.10492666065692902,-0.025593940168619156,0.027463287115097046
1772445414293997600,4.50899755859375,0.10572188347578049,-0.0567244291305542,0.04657918959856033
1772445414303930600,4.5189306640625,0.10852893441915512,-0.0909908264875412,0.11836936324834824
1772445414313862700,4.528862548828125,0.11745904386043549,-0.13067005574703217,0.23054197430610657
1772445414323795500,4.53879541015625,0.1254071295261383,-0.1511913686990738,0.34978002309799194
1772445414333727200,4.548727294921875,0.13903266191482544,-0.14449191093444824,0.449002742767334
1772445414343660300,4.558660400390625,0.14672669768333435,-0.10789382457733154,0.503183126449585
1772445414353592300,4.56859228515625,0.15523256361484528,-0.026858361437916756,0.5242742896080017
1772445414363525400,4.578525390625,0.1617232859134674,0.049254339188337326,0.53191739320755
1772445414373457400,4.58845751953125,0.1622263640165329,0.11850930750370026,0.5108917355537415
1772445414383390500,4.598390380859375,0.16783609986305237,0.15912315249443054,0.4626080095767975
1772445414393322500,4.608322509765625,0.17224417626857758,0.15962302684783936,0.3891865015029907
1772445414403255600,4.618255615234375,0.17201469838619232,0.12805789709091187,0.3015245497226715
1772445414413187600,4.6281875,0.16546784341335297,0.09469994902610779,0.21377870440483093
1772445414423120400,4.638120361328125,0.1554774045944214,0.07630637288093567,0.12894612550735474
1772445414433052400,4.648052490234375,0.1441808044910431,0.05740804970264435,0.05492144078016281
1772445414442985500,4.6579853515625,0.13129913806915283,0.03384338319301605,-0.0020508188754320145
1772445414452917500,4.66791748046875,0.11763843894004822,0.0002460069954395294,-0.03309209272265434
1772445414462850600,4.6778505859375,0.11415904760360718,-0.01797289028763771,-0.03766480088233948
1772445414472783600,4.68778369140625,0.11076857149600983,-0.01610415056347847,-0.02226320654153824
1772445414482715400,4.69771533203125,0.1085355207324028,-0.01140831969678402,0.013758227229118347
1772445414492648400,4.7076484375,0.10240732133388519,-0.005636183544993401,0.062480758875608444
1772445414502580500,4.71758056640625,0.09255971014499664,-0.0025162473320961,0.11789731681346893
1772445414512513300,4.72751318359375,0.08751168847084045,-0.0060646431520581245,0.1639031618833542
1772445414522445600,4.737445556640625,0.07857786864042282,-0.01768343150615692,0.19413158297538757
1772445414532378400,4.74737841796875,0.06636780500411987,-0.028582684695720673,0.20484468340873718
1772445414542310400,4.757310302734375,0.054247211664915085,-0.043410539627075195,0.19300676882266998
1772445414552243500,4.767243408203125,0.05294998735189438,-0.0347621887922287,0.1549142450094223
1772445414562175500,4.777175537109375,0.054947372525930405,-0.0077097732573747635,0.09732242673635483
1772445414572108500,4.787108642578125,0.05949977785348892,0.03022136352956295,0.028533773496747017
1772445414582040600,4.79704052734375,0.06627499312162399,0.05790112167596817,-0.056092724204063416
1772445414591973600,4.8069736328125,0.08207712322473526,0.07760877907276154,-0.14804475009441376
1772445414601905700,4.81690576171875,0.10496026277542114,0.08491967618465424,-0.23908525705337524
1772445414611838500,4.82683837890625,0.12952420115470886,0.08733569830656052,-0.31683704257011414
1772445414621770500,4.8367705078125,0.15273600816726685,0.07334542274475098,-0.36979246139526367
1772445414631703300,4.846703369140625,0.18247471749782562,0.05729774758219719,-0.3968387246131897
1772445414641636000,4.856635986328125,0.21073707938194275,0.032711200416088104,-0.40075910091400146
1772445414651569200,4.866569091796875,0.23654630780220032,0.00200016051530838,-0.38655486702919006
1772445414661501200,4.876501220703125,0.26384761929512024,-0.029769722372293472,-0.3606016933917999
1772445414671434200,4.886434326171875,0.28789544105529785,-0.05450116842985153,-0.32978731393814087
1772445414681366300,4.8963662109375,0.3148616850376129,-0.07421304285526276,-0.29346534609794617
1772445414691299300,4.90629931640625,0.3439987897872925,-0.08747851103544235,-0.2532729208469391
1772445414701231400,4.9162314453125,0.3646339476108551,-0.08512815833091736,-0.20000232756137848
1772445414711164200,4.9261640625,0.38990893959999084,-0.08032914996147156,-0.1440301388502121
1772445414721096000,4.936095947265625,0.41012877225875854,-0.06555021554231644,-0.09662380069494247
1772445414731029000,4.946029052734375,0.433364599943161,-0.05568160489201546,-0.06397797167301178
1772445414740962000,4.955962158203125,0.4533545672893524,-0.051035553216934204,-0.04863348603248596
1772445414750894000,4.96589404296875,0.47323426604270935,-0.05050158500671387,-0.03314054757356644
1772445414760827100,4.9758271484375,0.49093878269195557,-0.049724332988262177,-0.01735195890069008
1772445414770759200,4.98575927734375,0.5131714344024658,-0.05101410299539566,0.011199258267879486
1772445414780692200,4.995692138671875,0.5313472151756287,-0.0406062975525856,0.048826415091753006
1772445414790624300,5.005624267578125,0.5496566891670227,-0.03571220487356186,0.0973537340760231
1772445414800557000,5.01555712890625,0.5675770044326782,-0.012760997749865055,0.14114415645599365
1772445414810489000,5.025489013671875,0.5838633179664612,0.013914555311203003,0.16598612070083618
1772445414820422100,5.035422119140625,0.5956806540489197,0.03972509503364563,0.1809956431388855
1772445414830354200,5.045354248046875,0.6098234057426453,0.06433723121881485,0.18505243957042694
1772445414840287200,5.055287353515625,0.623579204082489,0.07972925901412964,0.1815219670534134
1772445414850219300,5.06521923828125,0.6403270363807678,0.09722702205181122,0.16645246744155884
1772445414860152300,5.07515234375,0.6540359854698181,0.1051281988620758,0.1452040672302246
1772445414870084000,5.085083984375,0.6654007434844971,0.11509081721305847,0.12136290967464447
1772445414880017200,5.09501708984375,0.6746848821640015,0.11312898248434067,0.0997675284743309
1772445414889949200,5.10494921875,0.6871426105499268,0.11634554713964462,0.08115655928850174
1772445414899882000,5.114882080078125,0.690667986869812,0.11656273156404495,0.06684315949678421
1772445414909814000,5.12481396484375,0.7028026580810547,0.11559095233678818,0.05515054985880852
1772445414919747000,5.1347470703125,0.7091682553291321,0.10529598593711853,0.04502340406179428
1772445414929679000,5.14467919921875,0.721129298210144,0.09612885117530823,0.0322016179561615
1772445414939612200,5.154612060546875,0.725986897945404,0.09475795924663544,0.016140298917889595
1772445414949544200,5.164544189453125,0.725615918636322,0.1077406108379364,-0.0037804124876856804
1772445414959477200,5.174477294921875,0.7276954054832458,0.1209377571940422,-0.020955216139554977
1772445414969409300,5.1844091796875,0.7318123579025269,0.13064336776733398,-0.029430456459522247
1772445414979342300,5.19434228515625,0.7398272752761841,0.14007478952407837,-0.03067934699356556
1772445414989274000,5.204274169921875,0.7471392750740051,0.15776190161705017,-0.02617727406322956
1772445414999207000,5.21420703125,0.7488294243812561,0.16800443828105927,-0.017602674663066864
1772445415009140200,5.22414013671875,0.755325436592102,0.18258897960186005,-0.016537941992282867
1772445415019072000,5.234072021484375,0.7567646503448486,0.20575213432312012,-0.02098088711500168
1772445415029005000,5.244005126953125,0.7601675987243652,0.2216155230998993,-0.026143424212932587
1772445415038937000,5.25393701171875,0.7704777717590332,0.2236497551202774,-0.029257580637931824
1772445415048870100,5.2638701171875,0.7792017459869385,0.2213517129421234,-0.034562066197395325
1772445415058802200,5.27380224609375,0.7923440337181091,0.21412687003612518,-0.04429146647453308
1772445415068735200,5.2837353515625,0.7993348836898804,0.21632318198680878,-0.05836787447333336
1772445415078667300,5.293667236328125,0.8062613606452942,0.2223081737756729,-0.06245313584804535
1772445415088600000,5.30360009765625,0.8171217441558838,0.2400893121957779,-0.0664508044719696
1772445415098532000,5.313531982421875,0.8295878171920776,0.2636205852031708,-0.06250034272670746
1772445415108465200,5.323465087890625,0.840244710445404,0.2912013530731201,-0.056354835629463196
1772445415118397200,5.333397216796875,0.8536261916160583,0.31014183163642883,-0.04661685228347778
1772445415128330200,5.343330322265625,0.8726896047592163,0.3218078017234802,-0.03071032091975212
1772445415138262000,5.353261962890625,0.8884986639022827,0.32123249769210815,-0.019309381023049355
1772445415148195000,5.363195068359375,0.9016885161399841,0.3055028021335602,-0.003415103070437908
1772445415158127000,5.373127197265625,0.9139153361320496,0.2725781798362732,0.021958909928798676
1772445415168060200,5.38306005859375,0.9210600852966309,0.23859146237373352,0.05921813100576401
1772445415177992200,5.3929921875,0.9304248094558716,0.20248976349830627,0.11582063883543015
1772445415187925000,5.402925048828125,0.933225691318512,0.16317245364189148,0.18243615329265594
1772445415197857000,5.41285693359375,0.9328794479370117,0.13944348692893982,0.2411276400089264
1772445415207790000,5.4227900390625,0.927848756313324,0.12321977317333221,0.2893761098384857
1772445415217722000,5.43272216796875,0.9173052906990051,0.11599897593259811,0.32126227021217346
1772445415227655200,5.4426552734375,0.9075168371200562,0.10358864068984985,0.3398604393005371
1772445415237587200,5.452587158203125,0.8961904048919678,0.07391984015703201,0.33698880672454834
1772445415247520300,5.462520263671875,0.8925565481185913,0.10309316962957382,0.2882750630378723
1772445415257452300,5.472452392578125,0.87519770860672,0.13708296418190002,0.2020229995250702
1772445415267385300,5.48238525390625,0.8457546234130859,0.17256958782672882,0.0749201774597168
1772445415277318100,5.492318115234375,0.81324702501297,0.19482801854610443,-0.06001398712396622
1772445415287250000,5.50225,0.782297670841217,0.2110472023487091,-0.16917482018470764
1772445415297183000,5.512182861328125,0.7612634897232056,0.20790225267410278,-0.2468702495098114
1772445415307115000,5.522114990234375,0.7438727617263794,0.18523207306861877,-0.27751338481903076
1772445415317048000,5.532048095703125,0.7270447611808777,0.14583173394203186,-0.2719453275203705
1772445415326980000,5.54197998046875,0.7031258940696716,0.11183382570743561,-0.22425208985805511
1772445415336913200,5.5519130859375,0.6807815432548523,0.08861340582370758,-0.14161866903305054
1772445415346845200,5.56184521484375,0.6662524342536926,0.0567484088242054,-0.03140799328684807
1772445415356778200,5.5717783203125,0.662729024887085,0.028206318616867065,0.09538724273443222
1772445415366710300,5.581710205078125,0.6505655646324158,0.02311914786696434,0.2026260793209076
1772445415376643000,5.59164306640625,0.6398182511329651,0.038006626069545746,0.2929738461971283
1772445415386575000,5.6015751953125,0.626885175704956,0.048346612602472305,0.34970608353614807
1772445415396508200,5.611508056640625,0.6132538914680481,0.060438431799411774,0.3705237805843353
1772445415406440000,5.62143994140625,0.595249354839325,0.08499038219451904,0.35896459221839905
1772445415416373200,5.631373291015625,0.5802359580993652,0.106590636074543,0.3203544318675995
1772445415426305000,5.641304931640625,0.563877522945404,0.11480702459812164,0.26750853657722473
1772445415436238000,5.651238037109375,0.54386305809021,0.11632132530212402,0.19436070322990417
1772445415446170000,5.661170166015625,0.5125685334205627,0.11880819499492645,0.11535828560590744
1772445415456103200,5.671103271484375,0.4849199950695038,0.12986062467098236,0.03933747112751007
1772445415466035200,5.68103515625,0.46671062707901,0.1252024918794632,-0.019779913127422333
1772445415475968000,5.690968017578125,0.4449490010738373,0.10421951860189438,-0.05862048640847206
1772445415485900300,5.700900390625,0.4271838366985321,0.09018412977457047,-0.08082566410303116
1772445415495833000,5.7108330078125,0.4125577211380005,0.08684473484754562,-0.0671718567609787
1772445415505765000,5.72076513671875,0.4049336314201355,0.0862569734454155,-0.03378700464963913
1772445415515698200,5.7306982421875,0.40563449263572693,0.07676109671592712,0.02648681402206421
1772445415525630200,5.740630126953125,0.41845735907554626,0.07295224070549011,0.09274706244468689
1772445415535563300,5.750563232421875,0.43159809708595276,0.0923263281583786,0.1538870930671692
1772445415545495000,5.7604951171875,0.43789222836494446,0.12902602553367615,0.20197446644306183
1772445415555428000,5.770427978515625,0.43729060888290405,0.15193632245063782,0.2231721431016922
1772445415565360000,5.780360107421875,0.44047123193740845,0.16708731651306152,0.2127211093902588
1772445415575293200,5.790293212890625,0.43461957573890686,0.18098250031471252,0.16426731646060944
1772445415585226000,5.80022607421875,0.4255504608154297,0.1936732530593872,0.0844545066356659
1772445415595158000,5.810157958984375,0.4106100797653198,0.1930164396762848,-0.024994537234306335
1772445415605091000,5.820091064453125,0.39381858706474304,0.17952753603458405,-0.15540048480033875
1772445415615023000,5.830023193359375,0.3803616762161255,0.13955751061439514,-0.2796189785003662
1772445415624956200,5.8399560546875,0.3719292879104614,0.08447721600532532,-0.39392322301864624
1772445415634888200,5.84988818359375,0.36668160557746887,0.02786722220480442,-0.4802587926387787
1772445415644821000,5.859821044921875,0.360058069229126,-0.03357429802417755,-0.5367284417152405
1772445415654753000,5.8697529296875,0.36207425594329834,-0.08394932001829147,-0.5485156178474426
1772445415664686000,5.87968603515625,0.3623448610305786,-0.1250229775905609,-0.5197571516036987
1772445415674617900,5.889617919921875,0.3687503933906555,-0.15113189816474915,-0.4536956250667572
1772445415684551000,5.899551025390625,0.37630417943000793,-0.14878323674201965,-0.3497157096862793
1772445415694482700,5.909482666015625,0.3885846734046936,-0.10903714597225189,-0.21615570783615112
1772445415704415700,5.919415771484375,0.3954244554042816,-0.051968272775411606,-0.08686163276433945
1772445415714347800,5.92934765625,0.3819827735424042,0.012632131576538086,0.021977387368679047
1772445415724280800,5.93928076171875,0.36162903904914856,0.06549161672592163,0.10800148546695709
1772445415734212900,5.949212890625,0.32750362157821655,0.10062146186828613,0.1662939041852951
1772445415744146000,5.95914599609375,0.29432544112205505,0.12502694129943848,0.21522709727287292
1772445415754078000,5.969077880859375,0.2657577395439148,0.13285237550735474,0.2464667409658432
1772445415764011000,5.979010986328125,0.23684062063694,0.13111944496631622,0.2702687382698059
1772445415773943000,5.988943115234375,0.21056914329528809,0.12944547832012177,0.27354568243026733
1772445415783875800,5.998875732421875,0.1839846819639206,0.12666568160057068,0.2545541226863861
1772445415793808000,6.008807861328125,0.16231772303581238,0.11216786503791809,0.21446001529693604
1772445415803741000,6.018740966796875,0.14290326833724976,0.101424939930439,0.14717552065849304
1772445415813672700,6.028672607421875,0.1342553347349167,0.10751187801361084,0.06840100139379501
1772445415823605800,6.038605712890625,0.12513160705566406,0.12244182825088501,-0.00620212871581316
1772445415833537800,6.048537841796875,0.11678414791822433,0.11744646728038788,-0.0786774531006813
1772445415843470800,6.058470947265625,0.11245571076869965,0.10813578963279724,-0.14831805229187012
1772445415853403000,6.06840283203125,0.11230684816837311,0.09936267882585526,-0.20360682904720306
1772445415863336000,6.0783359375,0.11173080652952194,0.08417174220085144,-0.24230575561523438
1772445415873268000,6.08826806640625,0.11095179617404938,0.0441056489944458,-0.2542877495288849
1772445415883200800,6.09820068359375,0.10694187134504318,-0.01594996266067028,-0.24291923642158508
1772445415893132800,6.1081328125,0.10503804683685303,-0.07549017667770386,-0.22378435730934143
1772445415903065900,6.11806591796875,0.09710848331451416,-0.11898306012153625,-0.20105427503585815
1772445415912998000,6.127997802734375,0.08620138466358185,-0.13992860913276672,-0.18064239621162415
1772445415922931000,6.137930908203125,0.07492342591285706,-0.1429196000099182,-0.1535055786371231
1772445415932863000,6.147863037109375,0.06029893085360527,-0.13586704432964325,-0.13205818831920624
1772445415942796000,6.157796142578125,0.04300622642040253,-0.11331033706665039,-0.11273322999477386
1772445415952727800,6.167727783203125,0.026170700788497925,-0.09800077229738235,-0.10390719771385193
1772445415962660900,6.177660888671875,0.016614746302366257,-0.08369480073451996,-0.09746420383453369
1772445415972593000,6.187593017578125,0.01055114809423685,-0.0719718337059021,-0.09003095328807831
1772445415982526000,6.19752587890625,0.0046453215181827545,-0.054063402116298676,-0.07452762126922607
1772445415992458000,6.2074580078125,-0.001692425925284624,-0.04856286197900772,-0.06149894371628761
1772445416002390800,6.217390869140625,-0.0030985751654952765,-0.05952390283346176,-0.054429855197668076
1772445416012322800,6.22732275390625,-0.009666278958320618,-0.07445251196622849,-0.050536274909973145
1772445416022255900,6.237255859375,-0.012295085936784744,-0.07667039334774017,-0.04286184534430504
1772445416032188000,6.24718798828125,-0.010054148733615875,-0.06364983320236206,-0.0327741876244545
1772445416042121000,6.257120849609375,-0.011081330478191376,-0.05067065358161926,-0.01346627064049244
1772445416052053000,6.267052978515625,-0.009721623733639717,-0.04757966473698616,0.007441109046339989
1772445416061986000,6.276986083984375,-0.010442009195685387,-0.03576961159706116,0.021153725683689117
1772445416071917800,6.286917724609375,-0.011218042112886906,-0.029889602214097977,0.031785883009433746
1772445416081851000,6.296850830078125,-0.013786127790808678,-0.02755747176706791,0.048274312168359756
1772445416091784000,6.306783935546875,-0.012702282518148422,-0.0391475185751915,0.06569579243659973
1772445416101715700,6.3167158203125,-0.01377873308956623,-0.04665470868349075,0.09277268499135971
1772445416111648800,6.326648681640625,-0.02068144641816616,-0.03943110257387161,0.12367109209299088
1772445416121580800,6.336580810546875,-0.027696745470166206,-0.03395058214664459,0.16051006317138672
1772445416131513900,6.346513916015625,-0.03583664819598198,-0.031264059245586395,0.1929772049188614
1772445416141446000,6.35644580078125,-0.04831062629818916,-0.02821926586329937,0.22063173353672028
1772445416151379000,6.36637890625,-0.06381355971097946,-0.020928137004375458,0.23558562994003296
1772445416161311000,6.37631103515625,-0.06986799091100693,-0.018797874450683594,0.2586461901664734
1772445416171244000,6.386244140625,-0.07382840663194656,-0.02226468175649643,0.27508386969566345
1772445416181176000,6.396176025390625,-0.0784178301692009,-0.01848565600812435,0.28189677000045776
1772445416191108900,6.40610888671875,-0.08492337167263031,-0.013227339833974838,0.2842378318309784
1772445416201041000,6.416041015625,-0.08623950928449631,-0.008283980190753937,0.27607470750808716
1772445416210974000,6.425973876953125,-0.08215386420488358,-0.0038320962339639664,0.25509142875671387
1772445416220905700,6.43590576171875,-0.07881399244070053,0.01781035028398037,0.22058352828025818
1772445416230838800,6.4458388671875,-0.06851174682378769,0.04163951426744461,0.18456901609897614
1772445416240770800,6.455770751953125,-0.061393119394779205,0.04889742285013199,0.1426210254430771
1772445416250704000,6.465703857421875,-0.05188380926847458,0.04105512052774429,0.12559832632541656
1772445416260636000,6.475635986328125,-0.028275152668356895,0.019292835146188736,0.12198814004659653
1772445416270569000,6.48556884765625,0.0022500180639326572,0.012126825749874115,0.1433691680431366
1772445416280501000,6.4955009765625,0.043550584465265274,0.005344020202755928,0.18870122730731964
1772445416290433800,6.505433837890625,0.08291152119636536,-0.008250812999904156,0.24122941493988037
1772445416300365800,6.51536572265625,0.12915092706680298,-0.03214655816555023,0.2941989004611969
1772445416310299000,6.525298828125,0.1705152690410614,-0.054667532444000244,0.3221670687198639
1772445416320231000,6.53523095703125,0.20470412075519562,-0.05885934829711914,0.32557910680770874
1772445416330164000,6.5451640625,0.23545357584953308,-0.04254528135061264,0.30238354206085205
1772445416340096000,6.555095947265625,0.2631398141384125,-0.021149445325136185,0.26662397384643555
1772445416350029000,6.565029052734375,0.28901782631874084,-0.0013180719688534737,0.22866222262382507
1772445416359960800,6.5749609375,0.3070535659790039,0.0069659557193517685,0.19845052063465118
1772445416369894000,6.584893798828125,0.32543307542800903,0.007153032347559929,0.16810934245586395
1772445416379826000,6.594825927734375,0.34607285261154175,-0.0010886527597904205,0.14998014271259308
1772445416389758700,6.6047587890625,0.3635113835334778,-0.006289948709309101,0.1312921941280365
1772445416399690800,6.614690673828125,0.3808203339576721,0.0024268440902233124,0.12016123533248901
1772445416409623800,6.624623779296875,0.40142810344696045,0.02652660943567753,0.11423300951719284
1772445416419555800,6.634555908203125,0.41332072019577026,0.05525119602680206,0.11136425286531448
1772445416429489000,6.644489013671875,0.4253579080104828,0.07255404442548752,0.11585637927055359
1772445416439421000,6.6544208984375,0.4374625086784363,0.08080264925956726,0.11790621280670166
1772445416449354000,6.66435400390625,0.45036011934280396,0.07201724499464035,0.11337898671627045
1772445416459286000,6.6742861328125,0.462472140789032,0.056699544191360474,0.11057254672050476
1772445416469219000,6.684218994140625,0.47734731435775757,0.04287972301244736,0.10825921595096588
1772445416479150800,6.69415087890625,0.48671790957450867,0.02599048987030983,0.1223667785525322
1772445416489083600,6.704083740234375,0.4920952618122101,-0.002336944453418255,0.1535421460866928
1772445416499016000,6.714015869140625,0.4909626245498657,-0.04494405910372734,0.19497694075107574
1772445416508948700,6.72394873046875,0.48825573921203613,-0.0823427140712738,0.24387960135936737
1772445416518880800,6.733880859375,0.4820002317428589,-0.10796072334051132,0.29060661792755127
1772445416528813800,6.743813720703125,0.4726884067058563,-0.11095307767391205,0.32016074657440186
1772445416538745900,6.753745849609375,0.46195799112319946,-0.09627532958984375,0.3335567116737366
1772445416548679000,6.763678955078125,0.4475984275341034,-0.0858997032046318,0.33962738513946533
1772445416558611000,6.77361083984375,0.43546241521835327,-0.06909862160682678,0.3303297758102417
1772445416568544000,6.7835439453125,0.42700591683387756,-0.055926017463207245,0.30180472135543823
1772445416578476000,6.79347607421875,0.4169364869594574,-0.05191263556480408,0.2609654366970062
1772445416588408800,6.803408935546875,0.409988135099411,-0.05137903615832329,0.21431149542331696
1772445416598340900,6.8133408203125,0.3995104432106018,-0.04508385807275772,0.1705770641565323
1772445416608274000,6.82327392578125,0.39931511878967285,-0.02111746557056904,0.12511055171489716
1772445416618205700,6.833205810546875,0.3971952497959137,0.007500063627958298,0.09536436200141907
1772445416628138800,6.843138671875,0.39256981015205383,0.045824043452739716,0.08502639830112457
1772445416638070500,6.853070556640625,0.3936057984828949,0.07924191653728485,0.088760145008564
1772445416648003600,6.863003662109375,0.3999672532081604,0.10074593126773834,0.08872614800930023
1772445416657935400,6.872935302734375,0.40863239765167236,0.1103421002626419,0.08445523679256439
1772445416667868400,6.882868408203125,0.41525962948799133,0.11548756062984467,0.06324436515569687
1772445416677800400,6.892800537109375,0.4311866760253906,0.1197022795677185,0.02842193841934204
1772445416687733500,6.9027333984375,0.4474615752696991,0.11763830482959747,-0.016910091042518616
1772445416697665500,6.91266552734375,0.4557429254055023,0.10228465497493744,-0.07299892604351044
1772445416707598300,6.922598388671875,0.4649876654148102,0.0797816663980484,-0.12079070508480072
1772445416717530400,6.9325302734375,0.4667309820652008,0.055797774344682693,-0.1595894992351532
1772445416727463400,6.94246337890625,0.47687727212905884,0.029869364574551582,-0.18269990384578705
1772445416737395500,6.9523955078125,0.48250240087509155,0.009110288694500923,-0.19243855774402618
1772445416747328500,6.96232861328125,0.4863170385360718,0.005297292023897171,-0.20894208550453186
1772445416757260500,6.972260498046875,0.49245959520339966,0.014111556112766266,-0.2264329344034195
1772445416767193600,6.982193603515625,0.4960828721523285,0.02003801055252552,-0.24203571677207947
1772445416777125400,6.99212548828125,0.5027756690979004,0.026159821078181267,-0.26597726345062256
1772445416787058400,7.002058349609375,0.5030800104141235,0.04291219264268875,-0.2829427123069763
1772445416796990500,7.011990478515625,0.49634939432144165,0.047028906643390656,-0.2906552255153656
1772445416806923300,7.02192333984375,0.49730420112609863,0.036868005990982056,-0.27740222215652466
1772445416816855600,7.03185546875,0.4935467839241028,0.008984442800283432,-0.2512097656726837
1772445416826788400,7.041788330078125,0.4940824806690216,-0.018554246053099632,-0.2008439004421234
1772445416836720400,7.051720458984375,0.4955160617828369,-0.029705166816711426,-0.13954325020313263
1772445416846653400,7.0616533203125,0.49306485056877136,-0.03057938627898693,-0.07364483177661896
1772445416856585500,7.07158544921875,0.48430973291397095,-0.041496217250823975,-0.002047346904873848
1772445416866518500,7.0815185546875,0.47408169507980347,-0.04898262768983841,0.055470142513513565
1772445416876450600,7.091450439453125,0.46297043561935425,-0.057673320174217224,0.10054787248373032
1772445416886383600,7.101383544921875,0.45329907536506653,-0.04975574463605881,0.12282402068376541
1772445416896315600,7.111315673828125,0.4387235939502716,-0.03561116009950638,0.12314945459365845
1772445416906248400,7.12124853515625,0.42768803238868713,-0.03183477744460106,0.09275703877210617
1772445416916180500,7.131180419921875,0.41497674584388733,-0.032350365072488785,0.04111754894256592
1772445416926113300,7.14111328125,0.40436896681785583,-0.018978027626872063,-0.027163740247488022
1772445416936045300,7.15104541015625,0.4002956748008728,0.016711261123418808,-0.09857826679944992
1772445416945978400,7.160978271484375,0.400771826505661,0.04475139454007149,-0.15487387776374817
1772445416955910400,7.170910400390625,0.4032112956047058,0.07094012200832367,-0.1816575676202774
1772445416965843500,7.180843505859375,0.4169561564922333,0.06758124381303787,-0.18999335169792175
1772445416975775500,7.190775390625,0.42590251564979553,0.05533922463655472,-0.18810996413230896
1772445416985708500,7.20070849609375,0.4416385293006897,0.05269318073987961,-0.18124008178710938
1772445416995640600,7.210640625,0.45833414793014526,0.0554112046957016,-0.1750170737504959
1772445417005573600,7.22057373046875,0.47433769702911377,0.04017799347639084,-0.16500377655029297
1772445417015505700,7.230505615234375,0.4888545870780945,0.042920783162117004,-0.15897171199321747
1772445417025438500,7.2404384765625,0.49937576055526733,0.06882123649120331,-0.1484176069498062
1772445417035370200,7.250370361328125,0.5104696750640869,0.0723605751991272,-0.11797767132520676
1772445417045303600,7.260303466796875,0.5252296924591064,0.07563476264476776,-0.08343399316072464
1772445417055235300,7.2702353515625,0.5417157411575317,0.08685386180877686,-0.05160921439528465
1772445417065168400,7.28016845703125,0.5516253709793091,0.08547744154930115,-0.025259193032979965
1772445417075100400,7.290100341796875,0.5633030533790588,0.08950387686491013,-0.003841784782707691
1772445417085033500,7.300033447265625,0.5723191499710083,0.0992109552025795,0.0071903010830283165
1772445417094965500,7.309965576171875,0.5800108909606934,0.1155097633600235,0.0016887430101633072
1772445417104898600,7.319898681640625,0.5854288935661316,0.1457769125699997,-0.01480637677013874
1772445417114830600,7.32983056640625,0.5918524861335754,0.18015751242637634,-0.033245570957660675
1772445417124763400,7.339763427734375,0.5949327349662781,0.20015347003936768,-0.04875075817108154
1772445417134695400,7.3496953125,0.6015986204147339,0.20855174958705902,-0.059308331459760666
1772445417144628500,7.35962841796875,0.6054568290710449,0.21191567182540894,-0.06618479639291763
1772445417154560500,7.369560546875,0.6107035279273987,0.21864894032478333,-0.07057421654462814
1772445417164493600,7.37949365234375,0.6159960031509399,0.2341253161430359,-0.06271392107009888
1772445417174425300,7.38942529296875,0.6214027404785156,0.2570716440677643,-0.03825119137763977
1772445417184358400,7.3993583984375,0.6333965063095093,0.23037555813789368,0.008906945586204529
1772445417194290400,7.40929052734375,0.6528525352478027,0.22385694086551666,0.06483812630176544
1772445417204223500,7.419223388671875,0.6664106845855713,0.19874219596385956,0.12658566236495972
1772445417214155500,7.429155517578125,0.6808000206947327,0.1822148859500885,0.18381619453430176
1772445417224088300,7.43908837890625,0.6903311014175415,0.18507182598114014,0.22439436614513397
1772445417234020400,7.449020263671875,0.6911612153053284,0.1952701359987259,0.2513234615325928
1772445417243953400,7.458953369140625,0.6983790397644043,0.20772409439086914,0.2702152132987976
1772445417253885400,7.468885498046875,0.7064838409423828,0.22672228515148163,0.28944751620292664
1772445417263818500,7.478818603515625,0.7089864611625671,0.24045740067958832,0.305280864238739
1772445417273750500,7.48875048828125,0.7103587985038757,0.2549804151058197,0.3094007670879364
1772445417283683600,7.49868359375,0.7104204893112183,0.2735874056816101,0.3010801374912262
1772445417293615600,7.50861572265625,0.7077575922012329,0.28133344650268555,0.28747856616973877
1772445417303548700,7.518548583984375,0.7108363509178162,0.2658165693283081,0.2695462107658386
1772445417313480400,7.52848046875,0.7146377563476562,0.25287866592407227,0.22914554178714752
1772445417323413200,7.538413330078125,0.7212673425674438,0.23192982375621796,0.16508932411670685
1772445417333345500,7.548345458984375,0.7257046699523926,0.2074441909790039,0.09230060875415802
1772445417343278300,7.5582783203125,0.7359631657600403,0.19684873521327972,0.009706184267997742
1772445417353210400,7.56821044921875,0.7356502413749695,0.20433807373046875,-0.06819020956754684
1772445417363143400,7.578143310546875,0.724687933921814,0.20795786380767822,-0.11688204109668732
1772445417373075500,7.588075439453125,0.706523597240448,0.18484216928482056,-0.10780812799930573
1772445417383008500,7.598008544921875,0.6899318695068359,0.146560937166214,-0.043240148574113846
1772445417392940500,7.6079404296875,0.6757713556289673,0.10935205221176147,0.05859886482357979
1772445417402873600,7.61787353515625,0.6590340733528137,0.06305847316980362,0.16964958608150482
1772445417412805600,7.6278056640625,0.6395413279533386,0.00890522263944149,0.26790982484817505
1772445417422738400,7.637738525390625,0.6220972537994385,-0.0014093471691012383,0.3183928430080414
1772445417432670500,7.64767041015625,0.5977106690406799,0.033601365983486176,0.32653358578681946
1772445417442603300,7.657603271484375,0.5749831199645996,0.06824582070112228,0.30635133385658264
1772445417452535300,7.667535400390625,0.561059832572937,0.11714732646942139,0.25777074694633484
1772445417462468400,7.67746826171875,0.5595642328262329,0.17069196701049805,0.16829977929592133
1772445417472400400,7.687400390625,0.5494644641876221,0.20179715752601624,0.07462362945079803
1772445417482333400,7.69733349609375,0.5534752011299133,0.2079189419746399,-0.017807133495807648
1772445417492265500,7.707265380859375,0.5723668932914734,0.1941666454076767,-0.11741920560598373
1772445417502198500,7.717198486328125,0.5838841795921326,0.16314198076725006,-0.21812091767787933
1772445417512130600,7.727130615234375,0.5970244407653809,0.1347649246454239,-0.3065868616104126
1772445417522062600,7.7370625,0.6059285998344421,0.1135910302400589,-0.372162789106369
1772445417531995600,7.74699560546875,0.6110964417457581,0.08096331357955933,-0.38217654824256897
1772445417541928400,7.756928466796875,0.6084321737289429,0.050503745675086975,-0.36506256461143494
1772445417551860500,7.766860595703125,0.6020177006721497,0.020736530423164368,-0.3287389278411865
1772445417561792300,7.776792236328125,0.5964188575744629,0.009366262704133987,-0.2856408357620239
1772445417571725300,7.786725341796875,0.5859454274177551,0.01804124191403389,-0.23084869980812073
1772445417581657300,7.7966572265625,0.5743111371994019,0.03116513043642044,-0.15356206893920898
1772445417591590400,7.80659033203125,0.5666540265083313,0.06634175777435303,-0.06758058071136475
1772445417601522400,7.8165224609375,0.5579748749732971,0.1077226847410202,0.013783958740532398
1772445417611455500,7.82645556640625,0.5457560420036316,0.13980339467525482,0.08516200631856918
1772445417621387500,7.836387451171875,0.5323424935340881,0.14317680895328522,0.14895989000797272
1772445417631320600,7.846320556640625,0.5287078022956848,0.1421821266412735,0.19319632649421692
1772445417641253000,7.856253173828125,0.538433313369751,0.12352249026298523,0.24620898067951202
1772445417651186000,7.86618603515625,0.5285756587982178,0.19638977944850922,0.18267500400543213
1772445417661118000,7.876117919921875,0.48496752977371216,0.23707546293735504,0.10609358549118042
1772445417671051000,7.886051025390625,0.470856249332428,0.21187716722488403,0.04200408607721329
1772445417680983000,7.895983154296875,0.45112353563308716,0.2154291719198227,-0.009234478697180748
1772445417690916000,7.905916015625,0.4152587354183197,0.22970637679100037,-0.0641600489616394
1772445417700847900,7.915847900390625,0.38617610931396484,0.2570381164550781,-0.14368461072444916
1772445417710781000,7.925781005859375,0.3659621775150299,0.24746321141719818,-0.2216731458902359
1772445417720713000,7.935712890625,0.36290696263313293,0.19200009107589722,-0.2634395658969879
1772445417730646000,7.94564599609375,0.365023136138916,0.14463816583156586,-0.24255239963531494
1772445417740578000,7.955578125,0.34339800477027893,0.144170343875885,-0.2348417192697525
