time,seconds_elapsed,z,y,x
1772555316772206800,0.067206787109375,-0.10297346774041652,0.28771219549775123,-0.37327516729719934
1772555316782139000,0.077138916015625,-0.18242694368362425,0.22307824915423988,-0.2699227101765573
1772555316792072000,0.087072021484375,-0.31315351074635983,0.16430150440633295,-0.044951505148876456
1772555316802004000,0.09700390625,-0.5149316361099481,0.13430237972289322,0.19807435720851643
1772555316811936000,0.10693603515625,-0.6392611956119537,0.1263565352849662,0.3303513137847185
1772555316821868000,0.116867919921875,-0.7147311548769474,0.12294964945092797,0.3990668303534388
1772555316831800800,0.12680078125,-0.7389081492781638,0.12510719281099736,0.47149599715042856
1772555316841732900,0.13673291015625,-0.671062693542242,0.136627096343413,0.4990866724526509
1772555316851665000,0.146664794921875,-0.5365098461896181,0.1425443575631827,0.4869064783805981
1772555316861597000,0.156596923828125,-0.2733528307557106,0.17067023572064935,0.4326374933807179
1772555316871529700,0.16652978515625,0.028407179316878316,0.20004940187484024,0.37776250531170513
1772555316881461800,0.176461669921875,0.2801327001541853,0.21427600708268582,0.34437684346251185
1772555316891393800,0.186393798828125,0.4148953908652067,0.1743970011588186,0.29475400376804173
1772555316901325800,0.196325927734375,0.44442017603516576,0.12936901497393846,0.2667181054489687
1772555316911259000,0.2062587890625,0.4183931698530912,0.09576908931955695,0.2213633897940628
1772555316921190700,0.216190673828125,0.3064905457258224,0.08265738655105233,0.1704474050165154
1772555316931122700,0.226122802734375,0.2125707375347614,0.04343399499170482,0.16381722802072762
1772555316941054700,0.2360546875,0.13818506637513636,0.006011515374481678,0.2741704307489097
1772555316950986800,0.24598681640625,0.10187047493457793,-0.05573562348634004,0.4281192487712949
1772555316960919800,0.255919921875,0.20686229676008222,-0.11284684617482126,0.48281895333863795
1772555316970851800,0.265851806640625,0.4398655814707279,-0.1575703695204109,0.467439524833858
1772555316980783900,0.275783935546875,0.6916127296179533,-0.14100012379586696,0.44635896207801995
1772555316990715600,0.285715576171875,0.8890186312466859,-0.10036562332957982,0.41960101127289234
1772555317000648700,0.295648681640625,0.990530794262886,-0.07314217390455305,0.37175022275224323
1772555317010580700,0.305580810546875,1.0665712468922137,0.009119856653362512,0.28358183596106246
1772555317020512800,0.3155126953125,1.20559568670094,0.14105594563633203,0.18621122972900048
1772555317030444800,0.32544482421875,1.3341969321727751,0.23025062500163912,0.10364095520582049
1772555317040377900,0.3353779296875,1.3432710499882696,0.2813599038615823,0.055396673855558035
1772555317050310000,0.345309814453125,1.2020032151669262,0.31511911173090335,0.02655873843859881
1772555317060242000,0.355241943359375,1.083512444821,0.37536914390176535,0.044253421615809196
1772555317070173700,0.365173583984375,1.0372206492453813,0.4200659253709018,0.07498867855407297
1772555317080106800,0.375106689453125,0.9847796833902597,0.3704667588129639,0.12614800710082053
1772555317090038800,0.385038818359375,0.8503846569478511,0.19824469054043292,0.1461729598565027
1772555317099970800,0.394970703125,0.6263350785434245,0.052665422260761256,0.0963439665980637
1772555317109902800,0.40490283203125,0.34339199714362617,-0.02113777283579111,0.03637534518446773
1772555317119836000,0.4148359375,0.04288812461197376,0.019741203910857437,-0.023671346434019504
1772555317129768000,0.424767822265625,-0.19100129528343676,0.12088701783269643,-0.06506813650969416
1772555317139700000,0.434699951171875,-0.41965106095969673,0.21568989246860146,-0.021127744632121175
1772555317149631700,0.4446318359375,-0.5655933173328638,0.25617548598349094,-0.003992722897976636
1772555317159564800,0.454564697265625,-0.6333095937311649,0.22554697735533116,-0.03330023032175377
1772555317169496800,0.464496826171875,-0.6901812355101108,0.22350392722040413,-0.05015669084284454
1772555317179428900,0.474428955078125,-0.810106422573328,0.18906908511184156,-0.07146708029918372
1772555317189361000,0.48436083984375,-0.9287234496474266,0.16244966599456964,-0.12325725409537554
1772555317199294000,0.4942939453125,-0.9790735807031392,0.1346781542327255,-0.1678281258962117
1772555317209226000,0.50422607421875,-1.0023971731454133,0.11064458689019083,-0.18474691106379032
1772555317219158000,0.514157958984375,-0.9821481658428907,0.09219451876841485,-0.22261001058798283
1772555317229089800,0.52408984375,-0.9245277515232563,0.03294336144179105,-0.2809297688160092
1772555317239022800,0.53402294921875,-0.8377005319416523,-0.01576272873394191,-0.3060266180085018
1772555317248955000,0.543954833984375,-0.6632119800418615,-0.043453357279300685,-0.2948248405145481
1772555317258887000,0.553886962890625,-0.38912966596782206,-0.07302110480815172,-0.2909734257834032
1772555317268819000,0.56381884765625,-0.07131400862932205,-0.16621515600793063,-0.26798686500946056
1772555317278751000,0.5737509765625,0.1196574760377407,-0.29888774257190526,-0.21422467875424772
1772555317288683800,0.583683837890625,0.25442192031443117,-0.38805115001611407,-0.19778061669263988
1772555317298616000,0.593615966796875,0.3359410966157913,-0.4258452394247055,-0.2368124677352607
1772555317308548000,0.603548095703125,0.3406967667102814,-0.4465392870809883,-0.23630086495131253
1772555317318480100,0.613480224609375,0.26999942867457866,-0.4358599990911782,-0.22303203539233654
1772555317328413200,0.6234130859375,0.08555354638397693,-0.3866002205554396,-0.25831695499159396
1772555317338345000,0.633344970703125,-0.1771528026729822,-0.3193271578799933,-0.2847546243337914
1772555317348277000,0.643277099609375,-0.4006342258006334,-0.22667612751573324,-0.2665542383904569
1772555317358209000,0.653208984375,-0.593567950451374,-0.1421188986927271,-0.21610700363582
1772555317368142000,0.66314208984375,-0.7650818704545498,-0.09463818559348583,-0.15067056353669614
1772555317378074000,0.67307421875,-0.8534066351175308,-0.045153439195454115,-0.10584770800247788
1772555317388006100,0.683006103515625,-0.8429623979926109,-0.010246741791442035,-0.06525013287994079
1772555317397938200,0.692938232421875,-0.7921323744654655,-0.0011179711792618035,-0.009252460923930629
1772555317407871200,0.702871337890625,-0.7508651290535926,-0.007443520938977598,0.0655784423856996
1772555317417803000,0.712802978515625,-0.6821124953448772,-0.03148052234761417,0.08697324045617133
1772555317427735000,0.722735107421875,-0.566616815161705,-0.07040507709085941,0.07602112687435
1772555317437667000,0.7326669921875,-0.4575502912431955,-0.12306648076362907,0.059111164334043856
1772555317447600000,0.74260009765625,-0.33743688813149925,-0.14604878548756242,0.05351507962634787
1772555317457532200,0.7525322265625,-0.19522329689264295,-0.1715245144624263,0.055264302480430336
1772555317467464200,0.762464111328125,-0.07425532277822494,-0.1946557992029935,0.06341005340463016
1772555317477396200,0.772396240234375,0.04258884940445423,-0.24495540564786641,0.0892919657273218
1772555317487329300,0.782329345703125,0.15671265671253204,-0.3018479440843686,0.17265213025286794
1772555317497261000,0.792260986328125,0.22176526685953138,-0.3627857758563012,0.268283674265258
1772555317507193000,0.802193115234375,0.28070436256229875,-0.509828321621567,0.6184976629160345
1772555317517125000,0.812125,0.3287468011975288,-0.7616957351475954,1.101934821218252
1772555317527058200,0.82205810546875,-0.13943711226284503,-1.1394603958837688,1.947702047498524
1772555317536990200,0.831990234375,-0.1269821198374033,-1.4291637651987372,1.812291414272785
1772555317546922200,0.841922119140625,0.31433190687596796,-1.425080733668804,1.3339061325326562
1772555317556854300,0.851854248046875,0.22248247521817682,-1.1027091665916144,1.0940803083255886
1772555317566787300,0.861787353515625,0.34086627805829045,-0.6883565043009817,0.558602691260539
1772555317576719000,0.871718994140625,0.6877922945469618,-0.5503305374776944,0.16489853871772064
1772555317586651100,0.881651123046875,0.6011170506566763,-0.6563228050500154,0.2585548736670054
1772555317596583200,0.891583251953125,0.2792904041111469,-0.6413920701608061,0.09014948673895559
1772555317606515200,0.90151513671875,0.0894803644388914,-0.3704652975082397,-0.36330895948018876
1772555317616448300,0.9114482421875,-0.04206920944452285,-0.2819108888078481,-0.39681042972877617
1772555317626380300,0.92138037109375,-0.132353876003623,-0.3344057768072933,-0.3791378487855196
1772555317636312300,0.931312255859375,-0.18437983131706714,-0.38494120130203663,-0.2828841725531034
1772555317646244000,0.941244140625,-0.10559972459077835,-0.3401587873760611,-0.2747800140146166
1772555317656177200,0.95117724609375,0.07213876901566982,-0.2638244298340753,-0.35677791374363005
1772555317666109200,0.961109130859375,0.1931353847026825,-0.2647596648575738,-0.41712837408166376
1772555317676041200,0.971041259765625,0.2757160527557134,-0.28222777273729444,-0.4383670134760439
1772555317685973200,0.98097314453125,0.30029870534837244,-0.31112920184452086,-0.42308392148520796
1772555317695906000,0.990906005859375,0.2567956637084484,-0.356636495978944,-0.40135399144254624
1772555317705838000,1.000838134765625,0.1343763217419386,-0.40585433506909757,-0.355254028644599
1772555317715770400,1.010770263671875,-0.09479483745992183,-0.46132020170334725,-0.2594975978772156
1772555317725702100,1.0207021484375,-0.34803017833828925,-0.5241471351575107,-0.1336145253228955
1772555317735635000,1.030635009765625,-0.6190525203198194,-0.5897201889820397,-0.009202456902898847
1772555317745567000,1.04056689453125,-0.8418956455439328,-0.6499104537896812,0.12016394598884507
1772555317755499000,1.0504990234375,-0.9927250894367694,-0.7515051074575633,0.278520698380284
1772555317765431000,1.06043115234375,-1.05742114123106,-0.8474345749706029,0.42749344502314923
1772555317775364000,1.070364013671875,-1.0217951165765524,-0.8945533228896557,0.48794046107083555
1772555317785296100,1.080296142578125,-0.9043494713693857,-0.938217254179716,0.45331035211849957
1772555317795228200,1.090228271484375,-0.9093249216943978,-1.0557033044625073,0.48656380242276936
1772555317805160000,1.100159912109375,-0.9781044434100389,-1.2719544110104442,0.6752241240706295
1772555317815093000,1.110093017578125,-0.6673539021521806,-1.2147700500205159,0.8590118347134441
1772555317825025000,1.12002490234375,-0.32992695089280605,-1.2189644329704343,0.8834255604799837
1772555317834957000,1.12995703125,-0.20809739151298998,-1.2850037160672247,0.8115729149293154
1772555317844889000,1.13988916015625,-0.17612521319091318,-1.226951047810167,0.7569299820505082
1772555317854822100,1.149822265625,-0.21887012993991373,-1.135884583223611,0.7030103950101881
1772555317864754200,1.159754150390625,-0.34221593910157677,-1.0498774478532373,0.651871670860052
1772555317874686200,1.169686279296875,-0.45076106949448586,-0.9691028793741017,0.6440962876182049
1772555317884618000,1.179617919921875,-0.5396405454307794,-0.9407539330504834,0.6811286719392985
1772555317894550000,1.189550048828125,-0.5501672001421452,-0.923081790498644,0.7248447718080133
1772555317904483000,1.199483154296875,-0.47377661890089506,-0.9150899880271405,0.74149845803231
1772555317914415000,1.2094150390625,-0.3977928648948669,-0.9363089363403618,0.7467003375243395
1772555317924347100,1.21934716796875,-0.3127607120364904,-0.9233413912829012,0.7351372524373233
1772555317934279200,1.229279052734375,-0.2096037044227123,-0.8753915993671864,0.7025830364435911
1772555317944212200,1.239212158203125,-0.08216507298946381,-0.83176712330468,0.6382564024835825
1772555317954144300,1.249144287109375,0.11437106006741524,-0.8187129228770732,0.5259284290837124
1772555317964076000,1.259075927734375,0.4896960725665092,-0.8036357652544975,0.4359728848811239
1772555317974008000,1.269008056640625,0.491880430868268,-0.7635326682511716,0.5550263306111097
1772555317983941000,1.278941162109375,0.39548751056194303,-0.7709574114244431,0.5760044559057802
1772555317993873200,1.288873046875,0.4663619587302208,-0.7989682118348777,0.539617529881373
1772555318003805200,1.29880517578125,0.4368003486812114,-0.7800853052537888,0.595197159088403
1772555318013737200,1.3087373046875,0.37538755634129045,-0.7539844301179051,0.6669372841753065
1772555318023670300,1.318670166015625,0.4506400734633207,-0.7588042514897883,0.7021509286366403
1772555318033602300,1.328602294921875,0.513217817929387,-0.7711787990901618,0.6995395770944655
1772555318043534000,1.3385341796875,0.4494903189063072,-0.7084596733920275,0.5817321493702009
1772555318053466000,1.348466064453125,0.3937327758491039,-0.45376178568042813,0.3917627909503877
1772555318063399200,1.358399169921875,0.2183621804177761,-0.14106478652991353,0.16725708454260602
1772555318073331200,1.368331298828125,-0.15024959817826747,0.11837335451133549,0.01125785506274551
1772555318083263200,1.37826318359375,-0.5874205337375402,0.3182389242518693,-0.04244335825284943
1772555318093195300,1.3881953125,-0.9345306746214628,0.4610089803297072,-0.03925488267615437
1772555318103128300,1.39812841796875,-1.259824705016613,0.6177481597229838,-0.04031821932503953
1772555318113060400,1.408060302734375,-1.4911334607690572,0.7207526071235537,-0.09103177686566487
1772555318122992000,1.4179921875,-1.5503344222784041,0.8221713197026401,-0.15059841161593793
1772555318132924200,1.427924072265625,-1.404272923439741,0.8831779423944651,-0.17664788535814732
1772555318142857000,1.43785693359375,-1.079870288926363,0.8487224228240549,-0.1471608931816183
1772555318152789000,1.4477890625,-0.6924854207992553,0.7752348695479333,-0.06369455573470331
1772555318162721300,1.45772119140625,-0.2766682389140129,0.6826676450096071,0.00644716684538871
1772555318172653300,1.4676533203125,0.058791796186566346,0.5443048109147698,0.019191872065560892
1772555318182586000,1.477586181640625,0.3399292894691229,0.377108461849764,0.024142827270133418
1772555318192518100,1.48751806640625,0.6309282515525817,0.24369009841978548,-0.008596444700611754
1772555318202450000,1.497449951171875,0.8527917180895804,0.07886873485781253,0.018331524342601185
1772555318212382000,1.5073818359375,0.9692331546902656,-0.008154226491600275,-0.019697236904967576
1772555318222314200,1.517314208984375,0.9300450536400079,-0.0170142631649971,-0.1704524282515049
1772555318232247000,1.5272470703125,0.6855921541541814,-0.010331935856863856,-0.3263825197516009
1772555318242179000,1.537178955078125,0.3578396246910095,0.0327951120775193,-0.37773565383739766
1772555318252111000,1.547111083984375,0.01836801586151123,0.11551862266734242,-0.3623654680849984
1772555318262043100,1.557043212890625,-0.26107202585339545,0.21619535777270793,-0.3067105451520532
1772555318271976200,1.56697607421875,-0.38809272413551804,0.3177024062223732,-0.27170261586327105
1772555318281908000,1.576907958984375,-0.387318817153573,0.44604229734428225,-0.28859142601769416
1772555318291840000,1.586840087890625,-0.2476771222293377,0.5594179896987974,-0.366918930138275
1772555318301772000,1.59677197265625,-0.0022018939584493636,0.6859177328467368,-0.4576354122433811
1772555318311705000,1.606705078125,0.2659457693696022,0.7775942190904169,-0.5903779953036457
1772555318321636900,1.616636962890625,0.523723429852724,0.8056355607695878,-0.7312853993147611
1772555318331569000,1.62656884765625,0.7333078450530767,0.8020922621395439,-0.8275333581924438
1772555318341501000,1.6365009765625,0.9132868110626935,0.7765774432633071,-0.8666536547034979
1772555318351434000,1.64643408203125,1.0387515120744704,0.7043089103881269,-0.849842951286584
1772555318361366000,1.656365966796875,1.054987192082405,0.611455562384799,-0.8249562742460519
1772555318371298000,1.666298095703125,0.9788117148965596,0.5691414382684975,-0.8146414356544613
1772555318381230000,1.67622998046875,0.8287205221503973,0.5295541818328201,-0.8242848777905106
1772555318391163100,1.6861630859375,0.5488087712705135,0.4816542204082012,-0.8234525186195969
1772555318401095000,1.696094970703125,0.19181611879765986,0.43054106909073886,-0.7804285657335073
1772555318411027000,1.70602685546875,-0.1941933693230152,0.3772998197034001,-0.6923524420693516
1772555318420959000,1.715958984375,-0.5547369922757148,0.32307401625812054,-0.5751351622579619
1772555318430891000,1.72589111328125,-0.8949895223498344,0.2208472752317786,-0.46274457195065916
1772555318440824000,1.735823974609375,-1.252698214137554,0.08878113012835383,-0.3040470250312239
1772555318450756000,1.745756103515625,-1.445234463903308,-0.03664601535201072,-0.10756456752349622
1772555318460688100,1.755688232421875,-1.4145745372235774,-0.12656857060045004,0.05659051414947025
1772555318470621200,1.76562109375,-1.1781278340607881,-0.21960611606426536,0.1354372929038014
1772555318480553000,1.775552978515625,-0.7912801415503025,-0.2984478898499161,0.09668133619311266
1772555318490485000,1.785485107421875,-0.35771921318173405,-0.3196575588781386,-0.056407517698802985
1772555318500417000,1.7954169921875,0.0967570774435997,-0.333668183247745,-0.13713668983336538
1772555318510349000,1.80534912109375,0.6119429805755615,-0.48369559004269536,-0.07770391972898505
1772555318520282000,1.8152822265625,0.9646347209841012,-0.5237164155900478,-0.16415084388926623
1772555318530214100,1.825214111328125,1.2559797200262546,-0.5373320492926985,-0.24920951942838726
1772555318540146200,1.835146240234375,1.459382231721282,-0.5384731090866028,-0.27829472587099296
1772555318550078000,1.845077880859375,1.545689226821065,-0.5688977657057345,-0.2955838969872333
1772555318560011000,1.855010986328125,1.456039935556054,-0.6094785632234067,-0.28816541915796695
1772555318569943000,1.864943115234375,1.1856722580909729,-0.6280754194047302,-0.22022543527269733
1772555318579875000,1.874875,0.8748591729909181,-0.6188004452548921,-0.10595874889520927
1772555318589807000,1.88480712890625,0.6294815598756075,-0.6201666921067982,0.034734715537703596
1772555318599740000,1.894739990234375,0.439986577501893,-0.6139532244194299,0.1431112433314789
1772555318609672200,1.904672119140625,0.28629706800282,-0.5909587178010494,0.21736279411688444
1772555318619604200,1.914604248046875,0.12296820802092552,-0.5198123938888312,0.2250882007371634
1772555318629536000,1.924535888671875,-0.06449789887368679,-0.4817840573329478,0.23749233975820241
1772555318639468800,1.93446875,-0.2584095286458731,-0.49124213296473024,0.25242285545170307
1772555318649400800,1.94440087890625,-0.4038420819312334,-0.5267685697022825,0.25652367836665363
1772555318659332900,1.954332763671875,-0.5348100565344095,-0.5711532164823263,0.3052565469514578
1772555318669265200,1.96426513671875,-0.6470838520616292,-0.6041716889869422,0.35497736712768674
1772555318679198000,1.974197998046875,-0.6984212405890226,-0.6386436482354998,0.3706434305541217
1772555318689130000,1.9841298828125,-0.6463724889218807,-0.6651881024204194,0.3709028121426701
1772555318699062000,1.99406201171875,-0.5259831914782523,-0.6858928906664252,0.32498368580434467
1772555318708993800,2.003993896484375,-0.416254404258728,-0.7188215659957379,0.2615482102640904
1772555318718926000,2.013926025390625,-0.2827192095160484,-0.7627770275782794,0.2313628422935493
1772555318728859000,2.02385888671875,-0.18068974462747572,-0.8050435131605714,0.23437060927478595
1772555318738791000,2.033791015625,-0.0710153179436922,-0.8306742135014384,0.25855533032473177
1772555318748723000,2.043722900390625,0.017363807255029676,-0.8721353009849786,0.24410459750480948
1772555318758655000,2.053655029296875,0.0940770445793867,-0.9033820876419544,0.22550368620287625
1772555318768588000,2.063588134765625,0.17041735693812368,-0.9352643226582557,0.21312024290999396
1772555318778520000,2.07352001953125,0.22933774794042108,-0.9586932751711458,0.165824001265876
1772555318788451800,2.083451904296875,0.23419980101883411,-0.9741673231568186,0.1095853144950699
1772555318798383900,2.0933837890625,0.1686614531815052,-0.9402494906596839,-0.02956139085330069
1772555318808317000,2.10331689453125,0.0837117179095745,-0.9586701865565032,-0.04484165156623348
1772555318818249000,2.1132490234375,-0.12957272085249424,-0.9619378100503235,-0.09435766988536343
1772555318828181000,2.123180908203125,-0.33022213444709775,-0.9170352038107812,-0.16166384937912226
1772555318838113000,2.133113037109375,-0.4387281018733978,-0.9023608548354357,-0.2042171525461599
1772555318848046000,2.143046142578125,-0.45731414439976215,-0.9348134370855986,-0.21323851726111023
1772555318857978000,2.15297802734375,-0.42006490245759487,-0.927611104491353,-0.2521345948285423
1772555318867910000,2.162909912109375,-0.3583230242937803,-0.8957046848818659,-0.33521446284167467
1772555318877842000,2.172842041015625,-0.280761645707488,-0.8561457046926021,-0.4028424033693969
1772555318887775000,2.18277490234375,-0.1864846946418285,-0.7987143832042812,-0.4929278575619682
1772555318897707000,2.19270703125,-0.17351240034401416,-0.6772276459127664,-0.6523505404181779
1772555318907639000,2.20263916015625,-0.3198497935146093,-0.5469695731446147,-0.8791453989427537
1772555318917571000,2.212571044921875,-0.6053992580205202,-0.3983795056764036,-0.9714891169235109
1772555318927504100,2.222504150390625,-1.0436953982174395,-0.21084500972069797,-0.9587476357068866
1772555318937436200,2.232436279296875,-1.538646322572231,0.012167699916660784,-0.8891869004856795
1772555318947368000,2.242367919921875,-1.967851393818855,0.23927147825993597,-0.7838961687788367
1772555318957300000,2.252300048828125,-2.1680174078106877,0.4702051901549101,-0.6762046595405787
1772555318967233000,2.26223291015625,-2.0981085898041725,0.6610973259754479,-0.5616956523071974
1772555318977165000,2.2721650390625,-1.791433335161209,0.8446520315799861,-0.5487232484115288
1772555318987097000,2.28209716796875,-1.2895616716325282,0.9575859715163707,-0.6071114687658846
1772555318997029000,2.292029052734375,-0.6282762757390737,1.0339354900948703,-0.655593467862159
1772555319006961200,2.301961181640625,0.09386194052398204,1.0751187104851008,-0.6709367290750146
1772555319016894200,2.311894287109375,0.7025707614839076,1.0873071609288454,-0.687956983589381
1772555319026826000,2.321825927734375,1.219969664490223,1.0860453242994845,-0.7108000990383326
1772555319036758000,2.331758056640625,1.643961969524622,1.0647079372383654,-0.6788353003051132
1772555319046690000,2.34168994140625,1.9628782815814017,1.0306555916413664,-0.588969297549501
1772555319056623000,2.351623046875,2.176750749364495,0.9800862648770212,-0.5341224395964295
1772555319066555100,2.36155517578125,2.248863799417019,0.929111426051706,-0.5152001143204048
1772555319076487200,2.371487060546875,2.2386621388763186,0.875092689485848,-0.5243566497223452
1772555319086419200,2.381419189453125,2.0505413674652577,0.8260824287317693,-0.5259029658488928
1772555319096352000,2.39135205078125,1.7794675875574348,0.8293028520829975,-0.45945309265721584
1772555319106283800,2.40128369140625,1.4490373633176088,0.8453618603497743,-0.3623430735900998
1772555319116216000,2.411216064453125,1.021685810983181,0.8237700601361692,-0.2786946484413929
1772555319126148000,2.421148193359375,0.5859966384142636,0.8024376415111124,-0.1495446191135328
1772555319136081000,2.431080810546875,0.14433949735164642,0.7833153001509606,0.004708122892025858
1772555319146013000,2.441012939453125,-0.23489362850189208,0.7872896106094122,0.0806059521802701
1772555319155945000,2.450945068359375,-0.5345411764651536,0.8086946560792625,0.11317092703003435
1772555319165877000,2.460876953125,-0.7617869205623865,0.8297511803723872,0.19543611765941604
1772555319175810000,2.47081005859375,-0.8636252467930317,0.8342742107547819,0.28915380914080885
1772555319185741800,2.480741943359375,-0.7486386851757765,0.8313911295991391,0.2694428907703608
1772555319195673900,2.490673828125,-0.4496177446782589,0.8293718256659806,0.14821109635429455
1772555319205606000,2.50060595703125,-0.05033610253036022,0.8184507648095488,0.021212810833379624
1772555319215538000,2.510537841796875,0.27174130390584467,0.7803666794784366,-0.08047859947355464
1772555319225471000,2.520470947265625,0.42102293383479117,0.7440431740790605,-0.1283675828464329
1772555319235403000,2.530403076171875,0.41898002983033655,0.7046019750505685,-0.134581982115563
1772555319245335000,2.5403349609375,0.3206774765104055,0.6665249770473688,-0.11458545173676683
1772555319255268000,2.55026806640625,0.12923077554702758,0.5971839489914477,-0.042408597466722125
1772555319265199900,2.560199951171875,-0.10332651896178721,0.5020712777540087,0.03439029058078304
1772555319275132000,2.5701318359375,-0.3651251055240631,0.4183659895852208,0.10323703231373801
1772555319285064000,2.58006396484375,-0.6056237144261598,0.3383626246742904,0.17560588375823571
1772555319294995700,2.58999560546875,-0.7859218293875455,0.26205036936625836,0.23093731035785747
1772555319304928800,2.5999287109375,-0.8774515275716781,0.18125000885874032,0.2704709917090833
1772555319314860800,2.60986083984375,-0.8648837224215269,0.13649360615685582,0.2901490672558546
1772555319324792800,2.619792724609375,-0.7859609923541545,0.0920841171965003,0.2973289870888926
1772555319334724900,2.629724853515625,-0.6846218478173017,0.02872515922486782,0.2780716394385323
1772555319344658000,2.639657958984375,-0.46888241711854933,-0.021002163757383823,0.26235315170511603
1772555319354590000,2.64958984375,-0.21347440837621687,-0.06635697074383497,0.26959574324451385
1772555319364522000,2.65952197265625,0.0763660313218832,-0.11741042776331305,0.2899909723510034
1772555319374453800,2.669453857421875,0.34554596030712126,-0.15479674008861183,0.29716064478466286
1772555319384386800,2.67938671875,0.5701280381530522,-0.18596688131280242,0.30506034852592273
1772555319394318800,2.68931884765625,0.7559767729789019,-0.21243951237052677,0.2766021148752421
1772555319404251000,2.6992509765625,0.883240632367134,-0.23167305902019142,0.2547747340737842
1772555319414183000,2.709182861328125,0.9114584265917539,-0.24469043456874787,0.19826808968232942
1772555319424116000,2.719115966796875,0.8627642460495233,-0.2386864449135959,0.1252944590114057
1772555319434048000,2.729048095703125,0.7643009492099284,-0.2138991365943104,0.10437083124979399
1772555319443980000,2.73897998046875,0.6440624584138394,-0.20349778876304625,0.10766514182114041
1772555319453911800,2.748911865234375,0.4950742584735155,-0.19878486183173955,0.10246636760164983
1772555319463844900,2.758844970703125,0.3764221600860357,-0.1944155607063323,0.06604310075538232
1772555319473777000,2.76877685546875,0.2639619020760059,-0.1733525336071849,0.018224990661628544
1772555319483709000,2.778708984375,0.1319359428524971,-0.15984094480089842,0.006601501173863653
1772555319493641000,2.788640869140625,0.04155015400648117,-0.1962416070897132,0.02508304214613745
1772555319503573000,2.798572998046875,-0.06215396609604358,-0.22447394129633902,0.04492925678445026
1772555319513506000,2.808506103515625,-0.24089082309007642,-0.25044417578987777,0.03925299211316742
1772555319523438000,2.81843798828125,-0.40243981391787526,-0.25850911656282843,0.049659714805870316
1772555319533369900,2.828369873046875,-0.4959843590557575,-0.3216267400592565,0.11091852672705427
1772555319543302000,2.838302001953125,-0.5652689076840878,-0.38781661060787737,0.18196739988047628
1772555319553234700,2.848234619140625,-0.600021072113514,-0.454946319289878,0.20725874873176217
1772555319563167000,2.8581669921875,-0.5888818384617567,-0.5414326164793223,0.27785501927947626
1772555319573099000,2.86809912109375,-0.541554854619503,-0.6333510217200964,0.36260377035290003
1772555319583031000,2.878031005859375,-0.4489940598219633,-0.7252758567016572,0.4054741401124745
1772555319592963800,2.8879638671875,-0.30750819833576676,-0.8273316250752657,0.45394338932503014
1772555319602896000,2.897895751953125,-0.19337562319934368,-0.9177223092921077,0.5002064702628181
1772555319612828000,2.907827880859375,-0.1318868430137634,-0.9612797845330089,0.5388070902813226
1772555319622760000,2.917760009765625,-0.13688333612680434,-0.962772141982615,0.548523378457874
1772555319632692700,2.927692626953125,-0.13237667235732078,-0.9903180282950401,0.5786663685914128
1772555319642624800,2.937624755859375,-0.09619418286383151,-0.9961315368793904,0.5982709770431742
1772555319652556800,2.947556884765625,-0.026506314131617543,-0.9866813522931188,0.6146032127607614
1772555319662488800,2.95748876953125,0.04562836323082447,-0.9799438607316464,0.6461361228827387
1772555319672422000,2.967421875,0.09752221659719944,-0.992504505488649,0.6528467264372855
1772555319682354000,2.97735400390625,0.11781623208522796,-1.011899014853686,0.6103761696502567
1772555319692285700,2.98728564453125,0.08989829759001731,-1.0111177282828836,0.5549087321134284
1772555319702217700,2.9972177734375,0.02979951045811176,-0.9799639536716044,0.5050188755132258
1772555319712150800,3.00715087890625,-0.06653846479058265,-0.9597866964310408,0.4479328603312373
1772555319722082800,3.017082763671875,-0.1647270363420248,-0.9314929874259978,0.37347722920794035
1772555319732014800,3.027014892578125,-0.2322866608738899,-0.9155030988726764,0.30834636619295924
1772555319741947000,3.03694677734375,-0.29410628044903275,-0.9155090171568095,0.2625448383523151
1772555319751880000,3.0468798828125,-0.36135786194503305,-0.9276728446159511,0.22392120278440414
1772555319761812000,3.05681201171875,-0.5013052618175745,-0.9992768491677939,0.23056288755489512
1772555319771743700,3.06674365234375,-0.6726771430015563,-1.065479944524169,0.31895971280708907
1772555319781675800,3.07667578125,-0.8203647817373275,-1.0927017134487629,0.4477632393853739
1772555319791608800,3.08660888671875,-0.9598574235796928,-1.1028268746871501,0.5334556462507695
1772555319801540900,3.096540771484375,-1.006124084714055,-1.0010580334961414,0.5464835797259584
1772555319811473000,3.106472900390625,-0.9173100752294063,-0.8719577524609863,0.4914938061708584
1772555319821405000,3.116405029296875,-0.7799795798569917,-0.7361172764506191,0.38269926759414374
1772555319831337000,3.1263369140625,-0.6467360615372657,-0.6018289252530783,0.2738224575614556
1772555319841270000,3.13627001953125,-0.6883043357223272,-0.4637296374652534,0.2249335946973413
1772555319851201800,3.146201904296875,-0.9362930081188678,-0.2712546894326806,0.22738025719709692
1772555319861133800,3.1561337890625,-1.3410434370666742,-0.03316759865172207,0.24267094797249883
1772555319871065900,3.16606591796875,-1.7916355797350405,0.19505027841329572,0.2824883781685494
1772555319880999000,3.1759990234375,-2.1436294010072947,0.3498736873131245,0.3581440144650638
1772555319890931000,3.185930908203125,-2.2451924174278974,0.4476088890738785,0.4056006160363555
1772555319900863000,3.195863037109375,-2.0115274539381263,0.5506332102186977,0.40731173080317673
1772555319910795000,3.205794921875,-1.4910434443980454,0.6245804899610579,0.37707795711364595
1772555319920728000,3.21572802734375,-0.8382669336527585,0.6785331755533814,0.2650572595646605
1772555319930659800,3.225659912109375,-0.16299451346099375,0.7165691839590669,0.05521897920109331
1772555319940591900,3.235591796875,0.5089139832556248,0.7431187527105212,-0.19667934091985226
1772555319950524000,3.24552392578125,1.1628875948309898,0.7362636261187493,-0.48154794702213255
1772555319960457000,3.25545703125,1.741471911162138,0.7349547354772686,-0.7645116693511604
1772555319970389000,3.265388916015625,2.1100702457547187,0.7666805378228425,-1.0441808436468243
1772555319980321000,3.275321044921875,2.2610347142040728,0.7940797091409564,-1.2518554797030985
1772555319990253000,3.285253173828125,2.303652205181122,0.8113137525364756,-1.370227445974946
1772555320000184800,3.295184814453125,2.260967494186759,0.8590605692259967,-1.3592438412763177
1772555320010118000,3.305117919921875,2.1233827317923306,0.8747602426610886,-1.2768620567962528
1772555320020050000,3.3150498046875,1.8135083888471126,0.8994692981123924,-1.1955439560249448
1772555320029982000,3.32498193359375,1.3791262072235344,0.9796811912074684,-1.070400303661078
1772555320039914000,3.3349140625,0.9970675025552511,1.0431788269974291,-0.8328568913027644
1772555320049846800,3.3448466796875,0.7156517768532037,1.0792027649283409,-0.6326181774009019
1772555320059778800,3.35477880859375,0.49290159060955047,1.1530636815614999,-0.5282759055253118
1772555320069710800,3.3647109375,0.34738954234719277,1.2736302352681754,-0.4712301858210936
1772555320079643000,3.374642822265625,0.2750631418049335,1.3964590348184107,-0.49875071849655356
1772555320089575700,3.38457568359375,0.1520522636860609,1.4543505211643875,-0.5347614681523293
1772555320099507700,3.3945078125,-0.02028817026913166,1.4469789694830775,-0.530069510943815
1772555320109439700,3.404439697265625,-0.24921149218976496,1.3683543455794454,-0.4381353236120194
1772555320119371800,3.414371826171875,-0.5057575650513172,1.259824705016613,-0.29620595614202316
1772555320129304800,3.424304931640625,-0.7539391296714544,1.1265477228187024,-0.18093476889710872
1772555320139236900,3.43423681640625,-0.9069359807312488,0.9917679348424077,-0.13438775645140558
1772555320149169000,3.4441689453125,-0.8860855004042386,0.7988895936407149,-0.03950841904580593
1772555320159100700,3.4541005859375,-0.7496744579643011,0.6746414288118481,0.02249137940183282
1772555320169033700,3.46403369140625,-0.5203653515964746,0.5602540751967579,0.009109335259348154
1772555320178965800,3.4739658203125,-0.2484118662446737,0.4586392555236816,-0.009699848498404025
1772555320188897800,3.483897705078125,0.0480669885545969,0.32011677388772364,-0.029094613591767845
1772555320198829800,3.493829833984375,0.33462826045155525,0.14249949550814925,-0.03035531770996749
1772555320208763000,3.503762939453125,0.578416558548808,0.004746902266144752,-0.045529432900995016
1772555320218695000,3.51369482421875,0.7775754413247108,-0.07657353659272194,-0.08445691025368869
1772555320228627000,3.523626953125,0.9425602518200874,-0.14861176784336566,-0.17307291294820606
1772555320238558700,3.533558837890625,1.0161194090276955,-0.23479754771627484,-0.2674538723776117
1772555320248492000,3.543491943359375,1.0372405229896307,-0.31438232188895343,-0.3036319414243102
1772555320258423800,3.553423828125,0.9623428106546401,-0.3649609279382974,-0.3039925914302468
1772555320268355800,3.56335595703125,0.8404045302033424,-0.41742790501751004,-0.23876424112385136
1772555320278288000,3.573287841796875,0.6602011077880859,-0.48561355249322946,-0.17178941247630863
1772555320288221000,3.583220947265625,0.4763070141613483,-0.5390202215753496,-0.12390919693177566
1772555320298153000,3.593153076171875,0.26221418162584303,-0.5871073761351406,-0.11100392172187566
1772555320308085000,3.6030849609375,0.01803776099383831,-0.6116585376109928,-0.10724263295959681
1772555320318016800,3.613016845703125,-0.2765694547146559,-0.6411517585989087,-0.06982956049153581
1772555320327948800,3.62294873046875,-0.5579664757162333,-0.6831390619136393,-0.021852067718142642
1772555320337881900,3.6328818359375,-0.779790779286623,-0.7495419906910509,0.022237925230571998
1772555320347814000,3.64281396484375,-0.9007499855726957,-0.8412088323235511,0.07053945319340564
1772555320357746000,3.652745849609375,-0.9820084651112556,-0.9076007282502949,0.1121798884323798
1772555320367678000,3.662677978515625,-0.9932675257503986,-0.9929458925805985,0.14101994274118915
1772555320377611000,3.672611083984375,-0.9470318442761897,-1.0651252128023654,0.1587296590907499
1772555320387543000,3.68254296875,-0.8520593121618032,-1.1137570686981082,0.17570315185394136
1772555320397474800,3.692474853515625,-0.7075391975462436,-1.1757525562968105,0.16631169345127417
1772555320407406800,3.70240673828125,-0.555046204355359,-1.2010812780164182,0.13144962977343239
1772555320417340000,3.71233984375,-0.3788216224431991,-1.2276472133807836,0.10187007307577878
1772555320427272000,3.72227197265625,-0.17823124555945397,-1.2258397255674003,0.04089858106283936
1772555320437204000,3.732203857421875,-0.02622106744945049,-1.2455708464756607,-0.03268284505879274
1772555320447136000,3.742135986328125,0.08729717518091201,-1.2737472857765852,-0.08838652305388822
1772555320457068800,3.75206884765625,0.16923311558961868,-1.2990709659948945,-0.11904394724927841
1772555320467001000,3.7620009765625,0.18261749781966208,-1.3258973058611154,-0.09671383195691742
1772555320476933000,3.77193310546875,0.16470774711966513,-1.3391792506299913,-0.06206318254005164
1772555320486865000,3.781864990234375,0.13896189596652983,-1.3279340723857282,-0.04464226566976867
1772555320496797700,3.791797607421875,0.07721417258381844,-1.2953127825051545,-0.02221242546313442
1772555320506729700,3.801729736328125,-0.02735211730599403,-1.2448758499488233,0.008865425234567374
1772555320516661800,3.811661865234375,-0.11300152527987957,-1.219136939993128,-0.0036409914174349977
1772555320526594000,3.821593994140625,-0.16800094344615935,-1.1596475899964571,-0.005590842276997864
1772555320536526800,3.83152685546875,-0.18366379200220107,-1.1520672178700566,-0.01437293204308953
1772555320546459000,3.841458984375,-0.13452946647703648,-1.1833439612738788,-0.00009432721994817257
1772555320556391000,3.851390869140625,-0.012847206613421439,-1.2190887900024652,0.03233461157643469
1772555320566322700,3.86132275390625,0.13106792784631252,-1.2335108447171748,0.05016986998482607
1772555320576255700,3.871255859375,0.2247796462446451,-1.197684840511158,-0.021149915364733898
1772555320586187800,3.881187744140625,0.1642605878740549,-1.0645611491788178,-0.15800024883765726
1772555320596119800,3.891119873046875,-0.13705693912804126,-0.8629582342516631,-0.31023762329965826
1772555320606051800,3.9010517578125,-0.6133849960774183,-0.5593657480549067,-0.407476785171777
1772555320615983900,3.91098388671875,-1.2501420999139548,-0.22105763004682957,-0.40609366025030613
1772555320625917000,3.9209169921875,-1.869547086933255,0.14719013754241167,-0.30004560737013813
1772555320635849000,3.930848876953125,-2.227217784798145,0.46233701406307515,-0.11770758407898246
1772555320645780700,3.94078076171875,-2.199450072428584,0.7462940217457711,0.05845668248068541
1772555320655712800,3.950712646484375,-1.762965950089693,0.919003654339537,0.17989552550986407
1772555320665645800,3.960645751953125,-1.0533493617475032,1.0732852845128624,0.16864150637201963
1772555320675577900,3.970577880859375,-0.2870855880320072,1.289024788276851,0.03679839746870566
1772555320685510000,3.980510009765625,0.3723445353835821,1.453354349733889,-0.19316061047548427
1772555320695442000,3.99044189453125,0.8582686881959438,1.5310763257093727,-0.36056119514200835
1772555320705375000,4.000375,1.1442512834221124,1.5797560393348336,-0.4690175878055393
1772555320715307000,4.01030712890625,1.269026248604059,1.6094569117240607,-0.49121977500244973
1772555320725238800,4.02023876953125,1.2938432944744824,1.646664944873005,-0.4400261423273012
1772555320735170800,4.0301708984375,1.2618290305763482,1.6376538092911241,-0.47625590502861886
1772555320745104000,4.040103759765625,1.149063652139902,1.5821192613348365,-0.5943634116780012
1772555320755036000,4.050035888671875,0.9464689496964216,1.5377819608278571,-0.6778054458007216
1772555320764968000,4.059968017578125,0.7060679559499025,1.5255078779272735,-0.7761710544195025
1772555320774900000,4.06989990234375,0.4515285467356443,1.4883809471905232,-0.8260711766853928
1772555320784833000,4.0798330078125,0.19420915141403675,1.4345710310697555,-0.8418070174124092
1772555320794765000,4.08976513671875,-0.010918284377455711,1.4214695574343204,-0.8474150665525346
1772555320804696800,4.09969677734375,-0.11570961519479751,1.352646196576953,-0.8208713430199772
1772555320814628900,4.10962890625,-0.15342238299548625,1.2325753174327314,-0.7521154213756323
1772555320824562000,4.11956201171875,-0.12784195153713226,1.1337335426695645,-0.6784555802725255
1772555320834494000,4.129493896484375,-0.035627778220176695,1.0192872984740882,-0.6426843749936669
1772555320844426000,4.139426025390625,0.15390402903258799,0.9246356688771397,-0.639336818131432
1772555320854358000,4.14935791015625,0.36490064911842346,0.866932033253461,-0.678288333946839
1772555320864291000,4.159291015625,0.572918545654416,0.8333756544798612,-0.7293949093930423
1772555320874223000,4.16922314453125,0.7793272534281015,0.7620698291569947,-0.7012908046759665
1772555320884155000,4.17915478515625,0.936395299449563,0.6858434255015105,-0.5866918176041915
1772555320894087000,4.1890869140625,0.9681453594535588,0.6232011644318699,-0.48846620197799057
1772555320904019000,4.19901904296875,0.9002379443973302,0.5819192329075187,-0.362142838310264
1772555320913952000,4.208951904296875,0.7364969964832067,0.564503110943362,-0.2280103169952519
1772555320923884000,4.218884033203125,0.5300134699076414,0.5523849492568522,-0.056850991716561834
1772555320933816000,4.228816162109375,0.2847206124663353,0.5354434590671211,0.12857830298766493
1772555320943748000,4.238748046875,0.05991524725854396,0.49000813419036565,0.34859658004939553
1772555320953681000,4.248680908203125,-0.12758885355889796,0.4330095050308853,0.5466733666770159
1772555320963612700,4.25861279296875,-0.3061608753800392,0.3809763893242925,0.6487448440764099
1772555320973545000,4.268544921875,-0.46158583036959167,0.32203985090479254,0.6895976634684949
1772555320983477000,4.27847705078125,-0.6476338871598243,0.24857662835232913,0.648148412553221
1772555320993409800,4.288409912109375,-0.8672983823478221,0.15862009776905178,0.6081009547272697
1772555321003341800,4.298341796875,-1.0794926877856255,0.034567382447049017,0.643995457592234
1772555321013273900,4.30827392578125,-1.2190414437294006,-0.07004004317075013,0.6860911897175014
1772555321023206000,4.318205810546875,-1.299974344575405,-0.17502068601511417,0.6798265032995492
1772555321033139000,4.328138916015625,-1.255318625769019,-0.27757183669023217,0.677498864069581
1772555321043070700,4.33807080078125,-1.0680910038053988,-0.34916721954420205,0.6434940839413553
1772555321053002800,4.348002685546875,-0.7344108378589153,-0.39955461387038227,0.5428180064231157
1772555321062934800,4.357934814453125,-0.3603279343754053,-0.4291640085838735,0.38196974774319675
1772555321072867800,4.367867919921875,-0.0004465747237205505,-0.4334023768059909,0.2504170868535526
1772555321082799900,4.3777998046875,0.3266431069165468,-0.4219190789569169,0.20489432115536182
1772555321092732000,4.38773193359375,0.5601467423647641,-0.43279637373685836,0.17835428741723297
1772555321102664000,4.397663818359375,0.6999398284584284,-0.42853484383486207,0.15235222388016992
1772555321112597000,4.407596923828125,0.7648889782309531,-0.4267356123931706,0.15911157108042387
1772555321122528800,4.41752880859375,0.7813345015972852,-0.4176216740239411,0.1941422784565948
1772555321132460800,4.427460693359375,0.7234913844376802,-0.4016436951041221,0.22893661979362367
1772555321142392800,4.437392822265625,0.6254021816074847,-0.39440329552181064,0.3199821877226233
1772555321152326000,4.447325927734375,0.5193687417745589,-0.3787740569744259,0.4086360016768798
1772555321162258000,4.4572578125,0.4586439316987991,-0.37078766133040186,0.48299390804674475
1772555321172190000,4.46718994140625,0.4477344151496887,-0.3586403466146439,0.5620941135728731
1772555321182122000,4.4771220703125,0.4250222326040268,-0.36159557969104494,0.5870627332758158
1772555321192053800,4.4870537109375,0.3788654615849256,-0.3984255367752164,0.5941829040119424
1772555321201986800,4.49698681640625,0.3305249167859554,-0.46454172103311864,0.5956780744731426
1772555321211918800,4.5069189453125,0.2276245142817497,-0.5039726178633048,0.5783267248408869
1772555321221851000,4.516850830078125,0.1379343064844608,-0.5597272017784416,0.5535446406859904
1772555321231783000,4.526782958984375,0.03240121738910675,-0.651603375312686,0.5508473644260317
1772555321241716000,4.536716064453125,-0.13154548223018644,-0.7314559335760772,0.5275441206520423
1772555321251648000,4.54664794921875,-0.33381694406867024,-0.7890012368328869,0.5491264589175582
1772555321261580000,4.556580078125,-0.49667409488558767,-0.8611385445438325,0.5469883509103208
1772555321271511800,4.56651171875,-0.5795902785032987,-0.94873777141124,0.5206428533636033
1772555321281444900,4.57644482421875,-0.6553893235921859,-1.020435372530669,0.4140776447415352
1772555321291377000,4.586376953125,-0.6857447143673896,-1.1233703348916024,0.24886627721497787
1772555321301309000,4.596308837890625,-0.7146534134656191,-1.2291212314561009,0.1253862289480865
1772555321311241000,4.606240966796875,-0.7328302906692028,-1.3223688394740223,0.044365302758757025
1772555321321174000,4.616174072265625,-0.7515057650446891,-1.3856570702970028,-0.07870075787976384
1772555321331106000,4.62610595703125,-0.8064455619782209,-1.4116802770867942,-0.22605430582296102
1772555321341038000,4.6360380859375,-0.8768407021969556,-1.427402746875584,-0.31649741434678436
1772555321350970000,4.64597021484375,-0.9496388119041919,-1.4710469505518673,-0.3375104648243636
1772555321360903000,4.65590283203125,-1.00493984336555,-1.5561815408714115,-0.29652298620194195
1772555321370835000,4.6658349609375,-1.0543991630613803,-1.659513028269261,-0.20834844366461036
1772555321380767000,4.67576708984375,-1.1215472841829062,-1.7375024230092764,-0.09292674203310161
1772555321390699000,4.685698974609375,-1.24345575401783,-1.7382842210367322,-0.012459851263649761
1772555321400631800,4.6956318359375,-1.3129448853075503,-1.713377158795297,0.06274794993381946
1772555321410563800,4.705563720703125,-1.2614046676844357,-1.702507974256575,0.15805866449400782
1772555321420496000,4.715495849609375,-1.1446651249200106,-1.674622480726242,0.27795542918033894
1772555321430428000,4.725427978515625,-0.9555869066536427,-1.5762950852259994,0.3864302708160132
1772555321440360200,4.735360107421875,-0.7696540006756782,-1.3880984720997511,0.466661124339886
1772555321450293000,4.74529296875,-0.6530693562120199,-1.1022989783555268,0.48744208309464154
1772555321460224800,4.755224853515625,-0.7458247967988252,-0.7355605924159287,0.4588881157182157
1772555321470156800,4.76515673828125,-1.1474001028418541,-0.3670785046141594,0.4733216416750103
1772555321480088800,4.7750888671875,-1.7345330518096684,-0.01592076883986592,0.6199557527698576
1772555321490022000,4.78502197265625,-2.330643672481179,0.31600758500322695,0.8915797139063477
1772555321499954000,4.794953857421875,-2.7620956458717583,0.7929466134577989,1.0090917023479937
1772555321509886000,4.804885986328125,-2.6922464490979907,1.1107019189111889,1.0488919439472257
1772555321519818000,4.81481787109375,-2.1858184374392033,1.316109340687841,0.9841068256299942
1772555321529751000,4.8247509765625,-1.292154610735178,1.5323872621774672,0.8293539977483451
1772555321539682800,4.834682861328125,-0.27534371231198307,1.639802511757612,0.553913620128855
1772555321549614800,4.84461474609375,0.5070850142627954,1.6747969605103135,0.13245655092680825
1772555321559547000,4.854546875,1.1408236470609903,1.7142974885106086,-0.20126243092641233
1772555321569480000,4.86447998046875,1.6429244431704282,1.7188934379987417,-0.33414296115264297
1772555321579412000,4.874411865234375,2.0362334406495095,1.6231724256046116,-0.3488561808336526
1772555321589344000,4.884343994140625,2.3248422927260397,1.5094951930202543,-0.37422242155205454
1772555321599276000,4.894276123046875,2.4867583633005617,1.4176988067239522,-0.4159453383095562
1772555321609209000,4.904208984375,2.5603981845289465,1.3612952208481728,-0.4844064782584086
1772555321619140900,4.914140869140625,2.5385627848178145,1.3131490295775234,-0.5937148115761578
1772555321629073000,4.924072998046875,2.4149615395903585,1.2744875827498734,-0.650102030839026
1772555321639005000,4.9340048828125,2.3577678262501953,1.211621522861719,-0.6391258787944912
1772555321648938000,4.94393798828125,2.28105166631639,1.1391750030711292,-0.6330917131967843
1772555321658870000,4.9538701171875,2.123934520456195,1.0900519295923412,-0.5963239711612462
1772555321668802000,4.963802001953125,1.8774053992182016,1.0546583985194564,-0.5756139222182333
1772555321678734000,4.973734130859375,1.5660615682423114,1.00729444366768,-0.5818350982880219
1772555321688667100,4.983667236328125,1.2413818703532218,0.9843135271832346,-0.5225869001034646
1772555321698599000,4.993598876953125,0.9298352102816104,1.002785149549693,-0.44765561429243533
1772555321708531000,5.003531005859375,0.6486059470623732,1.0246811934068798,-0.45771256913281977
1772555321718463000,5.013462890625,0.37102760756611824,1.0591603861138223,-0.5033245292181149
1772555321728395000,5.02339501953125,0.06610708763599395,1.0557695746317506,-0.5143111661240458
1772555321738328000,5.033328125,-0.26626141119003294,1.058039126998931,-0.5057807632638142
1772555321748260000,5.043260009765625,-0.6201467452973127,1.053669533612579,-0.57503743750453
1772555321758192000,5.053192138671875,-0.9676011695742607,1.0198670711234212,-0.6633180707648396
1772555321768124000,5.0631240234375,-1.2982967667520044,0.949762584414333,-0.6678757340691983
1772555321778057000,5.073056884765625,-1.5830138720870017,0.860532249213755,-0.6014592516904697
1772555321787989000,5.082989013671875,-1.7960861294031143,0.7557087696924805,-0.46703149202223865
1772555321797921000,5.092921142578125,-1.8437936369955539,0.6600920944556593,-0.3394504199109971
1772555321807853000,5.10285302734375,-1.6793454175949096,0.585431113485992,-0.3381426983132958
1772555321817785900,5.112785888671875,-1.256290101149678,0.5203871981021017,-0.3903160262081772
1772555321827718100,5.12271826171875,-0.6380716935664414,0.41648017583861946,-0.4490353782130405
1772555321837650200,5.132650146484375,0.08042904297709465,0.3037790948100388,-0.49267735339961943
1772555321847582000,5.14258203125,0.7289087333112955,0.21980521883293985,-0.5587026810362935
1772555321857514800,5.1525146484375,1.230225101044774,0.15999883877635002,-0.6566016950566321
1772555321867446800,5.16244677734375,1.560537836384773,0.1191727612607181,-0.7727104656368493
1772555321877378800,5.17237890625,1.6938853996008634,0.06114961135908961,-0.8252145598560571
1772555321887311000,5.18231103515625,1.6331114896863699,0.006755465609580278,-0.877986949622631
1772555321897244000,5.192243896484375,1.397855457612872,-0.007210369770228862,-0.8470303780838847
1772555321907176000,5.202176025390625,1.0699135430574416,0.022665128533542155,-0.7770198532685637
1772555321917108000,5.21210791015625,0.7395826875388621,0.03693834936209023,-0.6974348599001765
1772555321927039700,5.222039794921875,0.470779775172472,-0.004011062272265553,-0.5555455321796238
1772555321936971800,5.2319716796875,0.3603109832406044,-0.11391557138487696,-0.3444702938996255
1772555321946904800,5.24190478515625,0.4769909047722816,-0.1819655367169529,-0.17050320859067142
1772555321956836900,5.2518369140625,0.7633703903615474,-0.21176205150038002,-0.07968465435057878
1772555321966769000,5.261768798828125,1.081540852487087,-0.2833563383758068,-0.14123780500926075
1772555321976701000,5.271700927734375,1.2533037788152694,-0.3663042323060334,-0.2946707824639976
1772555321986634000,5.281634033203125,1.2697908032357692,-0.48796596083827315,-0.37298838624507186
1772555321996566000,5.29156591796875,1.1246183621913195,-0.6395761067800223,-0.39786191154308614
1772555322006497800,5.301497802734375,0.7609855410516262,-0.7436725872009993,-0.4147239798210561
1772555322016429800,5.311429931640625,0.19391396785974502,-0.773211473961547,-0.4003295437656343
1772555322026363000,5.32136279296875,-0.4577408453792333,-0.7526270241595804,-0.3428200424745679
1772555322036295000,5.331294921875,-1.1427736120849847,-0.7314145786523819,-0.2588248314484954
1772555322046227000,5.34122705078125,-1.7493600340634583,-0.7353073483072221,-0.18600136810429393
1772555322056159000,5.351158935546875,-2.1282447848707435,-0.8225145071171224,-0.11249152993112801
1772555322066092000,5.361092041015625,-2.2460037338107823,-0.9660186496231704,-0.028030674154683945
1772555322076024000,5.371024169921875,-2.125330358728766,-1.1211432334266602,0.015005480625852942
1772555322085955800,5.380955810546875,-1.8480834431439637,-1.2098420920990407,0.043392201676592225
1772555322095888000,5.390887939453125,-1.4675813202679155,-1.239043636664003,0.021483809794485567
1772555322105821000,5.400821044921875,-1.036585273951292,-1.2744599640905856,-0.05262392120659351
1772555322115753000,5.4107529296875,-0.6319084947615862,-1.3294659581281243,-0.1184854365836829
1772555322125685000,5.42068505859375,-0.28294015879034995,-1.3524284621730447,-0.15773703132420777
1772555322135617000,5.430616943359375,0.02118307328224182,-1.3319260646313429,-0.13268880704641342
1772555322145550000,5.440550048828125,0.33425182835459705,-1.3043340010896325,-0.05432933688499033
1772555322155482000,5.450482177734375,0.6343588105231523,-1.2849449716173111,0.03850917887538671
1772555322165414000,5.460413818359375,0.8593190740317106,-1.246590544912219,0.09053754534162581
1772555322175346000,5.470345947265625,1.0328191994160414,-1.1978479951836167,0.1269377692390233
1772555322185279000,5.480279052734375,1.1898328849017619,-1.157673221183568,0.1472754777383059
1772555322195211000,5.4902109375,1.2751087833881378,-1.1184137353975325,0.14439590371400118
1772555322205143000,5.50014306640625,1.3323796536177397,-1.1344710631638764,0.1248056525811553
1772555322215075000,5.510074951171875,1.3494547070592642,-1.1879084927104413,0.060092649652063845
1772555322225008000,5.520008056640625,1.2374866164803504,-1.267222998574376,-0.023221739502996205
1772555322234940200,5.529940185546875,0.9539169276148081,-1.30903823325783,-0.11136150298789142
1772555322244872000,5.539871826171875,0.5145423445314169,-1.2671220224179327,-0.25048582297451794
1772555322254804000,5.549803955078125,0.05702361747026443,-1.186158945629373,-0.4259980188336223
1772555322264736000,5.559736083984375,-0.34856209325790405,-1.0983413267709314,-0.6481433710519224
1772555322274669000,5.5696689453125,-0.7947861038446425,-1.027834981262684,-0.8513449533473699
1772555322284601000,5.57960107421875,-1.242226504483819,-0.9523623916491866,-1.012387675153464
1772555322294533000,5.589533203125,-1.6363123315542936,-0.8733048562210053,-1.0662702911842614
1772555322304464600,5.599464599609375,-1.9342904850006102,-0.8331706334270537,-0.95847780578956
1772555322314397700,5.609397705078125,-2.0390683718144893,-0.8468154201589524,-0.7558518314249814
1772555322324329700,5.619329833984375,-1.9805700056165456,-0.9100001906074583,-0.5869211328480393
1772555322334261500,5.629261474609375,-1.7852958553195,-1.0042287724867462,-0.4734147267859429
1772555322344193500,5.639193603515625,-1.4442442838221787,-1.0675537551235408,-0.4891776747155934
1772555322354126300,5.649126220703125,-1.0595593223035336,-1.0182545213602483,-0.5177843221273273
1772555322364058400,5.659058349609375,-0.7530594242274761,-0.8644719998154788,-0.597348345772922
1772555322373990700,5.66899072265625,-0.5074480023562908,-0.6403440224125981,-0.781930494729057
1772555322383922700,5.678922607421875,-0.3586848433434963,-0.34696762714069335,-0.9569111409947275
1772555322393855500,5.68885546875,-0.4427203863799572,0.04532368119582533,-1.0717471882253884
1772555322403787500,5.69878759765625,-0.8055208483487367,0.4785939560547471,-1.0124255229458212
1772555322413719300,5.70871923828125,-1.2829606659322976,0.8911467293165624,-0.7246707304153591
1772555322423651600,5.718651611328125,-1.6602537636339663,1.2863995543397961,-0.36186186594441533
1772555322433584400,5.72858447265625,-1.8635300186008215,1.5995535034775732,-0.10326076024919748
1772555322443516400,5.738516357421875,-1.8940847313404081,1.8151228383064268,0.01683423042297363
1772555322453448400,5.748448486328125,-1.7709820832848548,1.9986356775306164,0.020525193895399568
1772555322463380500,5.75838037109375,-1.510190627938509,2.096727364578843,-0.0031586832266300917
1772555322473313500,5.7683134765625,-1.0743033024489879,2.186917046330869,-0.03396927042342722
1772555322483245600,5.77824560546875,-0.45349780098199843,2.2500364964582023,-0.10979936823770403
1772555322493177300,5.78817724609375,0.23635259513854978,2.2528733273193238,-0.18151209386102854
1772555322503109400,5.798109375,1.0000450570613144,2.1804946120679376,-0.1926144295684993
1772555322513041400,5.80804150390625,1.7600146990686654,2.045389537660032,-0.15022460986748337
1772555322522974500,5.817974365234375,2.3886422724634406,1.8406978629373012,-0.10543189374320208
1772555322532906500,5.827906494140625,2.880447300007939,1.5783245452269912,-0.007977773946151137
1772555322542838500,5.837838623046875,3.1890830410689115,1.3603613009989262,0.126196339754574
1772555322552770600,5.8477705078125,3.3582208795905113,1.1916973635993897,0.21088815474268047
1772555322562703600,5.85770361328125,3.27317878986001,1.0405335731856524,0.22659783811513334
1772555322572635400,5.867635498046875,2.951914453372359,0.8971158668540418,0.2449405003396794
1772555322582567400,5.8775673828125,2.4425065491199494,0.7842814417693763,0.26558650760315355
1772555322592499500,5.88749951171875,1.823477994197607,0.6923421398710459,0.35972430592644955
1772555322602432500,5.8974326171875,1.1615338421344756,0.5796308297093957,0.5083210588637739
1772555322612364500,5.907364501953125,0.5078846402078867,0.47956608902253206,0.6324694165799767
1772555322622296600,5.917296630859375,-0.07608604533672332,0.43829299839176233,0.7362680830981582
1772555322632228600,5.927228515625,-0.5528472330063581,0.48097968214750286,0.6803457779332995
1772555322642161700,5.93716162109375,-0.9244196149736642,0.5411839754804969,0.514820686548762
1772555322652093400,5.947093505859375,-1.244400925913453,0.5774298855990171,0.3849053262710571
1772555322662025500,5.957025390625,-1.5428414361745117,0.6302238296102732,0.30315296226833016
1772555322671957500,5.96695751953125,-1.8057091132730245,0.6473578466974198,0.2711353739019483
1772555322681890600,5.976890625,-2.0274825634390115,0.6521876049414277,0.26145536261517555
1772555322691822600,5.986822509765625,-2.161185515964031,0.6531902061127126,0.3335323549736291
1772555322701754600,5.996754638671875,-2.145501040098071,0.6192142136875539,0.44301188013982024
1772555322711686700,6.006686767578125,-1.8897814811885356,0.6126572663247585,0.5557738245101645
1772555322721619700,6.01661962890625,-1.3520909007817505,0.5964340074069797,0.6047101067125797
1772555322731551500,6.026551513671875,-0.6377040292978287,0.5493375443849712,0.5448089610446244
1772555322741483500,6.0364833984375,0.17184709748029708,0.47937553488649426,0.4585555592956021
1772555322751415600,6.04641552734375,0.9486468782573938,0.41475466722026466,0.38362573478929696
1772555322761348600,6.0563486328125,1.599477515631914,0.36341369849629696,0.30700459619518367
1772555322771280600,6.06628076171875,2.082296688166261,0.3219960848283022,0.23931484247762708
1772555322781212700,6.076212646484375,2.305883909755945,0.25472740606702865,0.17003566414415835
1772555322791144700,6.086144775390625,2.2774340603411196,0.19754677140414714,0.10043459691256285
1772555322801077500,6.096077392578125,1.9858108288794756,0.15465024429000912,0.06560706569198518
1772555322811009300,6.10600927734375,1.5064204617500305,0.1093596616461873,0.15358177480828017
1772555322820941600,6.115941650390625,1.0023802220106124,0.04118460862971842,0.28247217595241964
1772555322830873600,6.12587353515625,0.5404495237261057,-0.03711282914616167,0.39203243820462375
1772555322840805600,6.1358056640625,0.15594225686192512,-0.10128478400111197,0.49083632864281534
1772555322850738400,6.145738525390625,-0.1531850671082735,-0.17670323227457702,0.5841294563028961
1772555322860670500,6.15567041015625,-0.36848201473653314,-0.2657677093889564,0.5887050936553627
1772555322870602500,6.1656025390625,-0.5056880069464444,-0.34465821768715976,0.546903485638462
1772555322880534500,6.175534423828125,-0.5762549966007471,-0.4213595088453963,0.5300772193262353
1772555322890467300,6.18546728515625,-0.6107108084321021,-0.49424343367256224,0.5474395652765408
1772555322900399400,6.1953994140625,-0.6024632045686245,-0.5703986717879772,0.5656075285213068
1772555322910331400,6.205331298828125,-0.5889250930815935,-0.6261586990632116,0.5575602695355192
1772555322920263400,6.215263427734375,-0.593157616084814,-0.6725722213223576,0.5648220406994223
1772555322930196500,6.225196533203125,-0.6036871934056282,-0.709229927112162,0.5871662667155265
1772555322940128500,6.23512841796875,-0.596210573914647,-0.6991989469632506,0.6115548580408096
1772555322950060500,6.245060546875,-0.6252163036465644,-0.7026384198926389,0.6272005362663418
1772555322959992300,6.254992431640625,-0.6449257972449064,-0.7411622118152678,0.6542055206350982
1772555322969925400,6.26492529296875,-0.5926251166433095,-0.7829736471064388,0.6648454264625907
1772555322979857400,6.274857421875,-0.4443389274924993,-0.7844218731533735,0.6261681975439191
1772555322989789400,6.28478955078125,-0.24559563978016374,-0.7734914599467069,0.5962377541825175
1772555322999721500,6.294721435546875,-0.05214402873516082,-0.7853079352729022,0.5229277128977701
1772555323009654500,6.304654541015625,0.11555647045969962,-0.7833778439931571,0.40708884530011563
1772555323019586600,6.314586669921875,0.2960124063313007,-0.7833484717682003,0.34370694484431297
1772555323029518600,6.3245185546875,0.45187049204111096,-0.8069520501956343,0.2750843672560528
1772555323039450400,6.334450439453125,0.5276444026887417,-0.8396697861880064,0.19052381396479903
1772555323049382400,6.34438232421875,0.5279688123375177,-0.8554238932240754,0.11271507302131503
1772555323059315500,6.3543154296875,0.4083861551016569,-0.8715390886574983,0.08351542815249413
1772555323069247500,6.36424755859375,0.1614724184602499,-0.8858794564381242,0.12025430941972881
1772555323079179500,6.374179443359375,-0.11563012021780013,-0.9138777626931667,0.200709875077568
1772555323089111600,6.384111572265625,-0.34462241572141644,-0.9579280629523098,0.30713465231563897
1772555323099044600,6.394044677734375,-0.522861844587326,-1.0093690579846502,0.3997715445566922
1772555323108976600,6.4039765625,-0.6754442696273326,-1.0570719624672085,0.4336856872593984
1772555323118908400,6.413908447265625,-0.8201514312475919,-1.0955153095647692,0.4408595609441399
1772555323128840400,6.42384033203125,-0.9100012135207652,-1.1215204692412166,0.4968548948125913
1772555323138773500,6.4337734375,-0.9084522305130958,-1.137432397187501,0.6132114661414176
1772555323148705500,6.44370556640625,-0.8653022400945425,-1.1889067099675537,0.7598767030268907
1772555323158637600,6.453637451171875,-0.8266565753579139,-1.2430635398298502,0.9220338888809084
1772555323168569600,6.463569580078125,-0.8376999474197626,-1.2534760666422544,1.0732145573642105
1772555323178502700,6.473502685546875,-0.8604407715380191,-1.1971547522224486,1.1870913311086595
1772555323188434700,6.4834345703125,-0.8439531625956297,-1.135615264762938,1.2288920988753438
1772555323198366500,6.493366455078125,-0.7964432234019041,-1.1007875508792697,1.2067859924640505
1772555323208298500,6.503298583984375,-0.7930027275592089,-1.0634654628966003,1.174105812003091
1772555323218231600,6.5132314453125,-0.8141793711006641,-0.9889525851607323,1.1502112878050654
1772555323228163600,6.52316357421875,-0.7995803523838519,-0.9021512306727468,1.1023013895083218
1772555323238095600,6.533095703125,-0.6944827320963144,-0.8182445747129619,1.051611578169465
1772555323248027600,6.543027587890625,-0.4599205275058746,-0.7271866587590425,0.9814558727297932
1772555323257960400,6.55296044921875,-0.16124094779193401,-0.6245926187902688,0.8531235073272139
1772555323267892500,6.562892578125,0.1409668060481548,-0.45982225476317107,0.6396634197372942
1772555323277824500,6.572824462890625,0.31594401824772356,-0.25839601157717407,0.4332203713025897
1772555323287756500,6.582756591796875,0.37156244509518144,-0.051155894480645656,0.3310261443063617
1772555323297688600,6.5926884765625,0.20115736311674118,0.17201975063346325,0.244388967404142
1772555323307621400,6.602621337890625,-0.14333061257004737,0.4116672225989401,0.23070202203094958
1772555323317553400,6.612553466796875,-0.5620090291053056,0.7083307863153517,0.2637912216842174
1772555323327485400,6.6224853515625,-0.993514778509736,0.9636192603312432,0.33117768160626293
1772555323337417700,6.632417724609375,-1.3837643884181976,1.1509740158058703,0.3364015537343919
1772555323347350500,6.6423505859375,-1.64109313609004,1.3294808634363113,0.2896832033097744
1772555323357282600,6.652282470703125,-1.6897826404571532,1.4726907722361384,0.16741952682901173
1772555323367214600,6.662214599609375,-1.538451092261076,1.568927917458862,-0.005875175643712282
1772555323377146400,6.672146484375,-1.2843781315147875,1.56637165710479,-0.13713727435525505
1772555323387079400,6.682079345703125,-0.9797095405191183,1.420080733424425,-0.284698327569291
1772555323397011500,6.692011474609375,-0.6246569161981343,1.233163638714701,-0.45225828578229993
1772555323406943500,6.701943603515625,-0.27318565749526025,1.1047736979059875,-0.5992557137642055
1772555323416875500,6.71187548828125,0.03567453997135162,0.9473474860966205,-0.6858769624449312
1772555323426808600,6.72180859375,0.3183633543491363,0.8030353151433169,-0.7182451543472707
1772555323436740600,6.73174072265625,0.5720972923994064,0.6984541199453175,-0.7301156248830258
1772555323446672600,6.741672607421875,0.8173685225307941,0.6385020478077232,-0.6942113678090274
1772555323456604400,6.7516044921875,1.0577134021759032,0.6114478905349969,-0.6494371371895075
1772555323466537500,6.761537353515625,1.2364204485535621,0.607076251322031,-0.6511579696327447
1772555323476469500,6.771469482421875,1.3601093720644712,0.5663178322151303,-0.7379924957379699
1772555323486401500,6.781401611328125,1.3846774116098879,0.5622139040276408,-0.7828612727731465
1772555323496333600,6.79133349609375,1.3809873249202966,0.6124290105268358,-0.795139739587903
1772555323506266600,6.8012666015625,1.3154852174401281,0.6767689423598349,-0.790427762504667
1772555323516198700,6.81119873046875,1.1981921324461697,0.7902120739273727,-0.7472808408260345
1772555323526130700,6.821130615234375,1.0408347480893134,0.9096100222460926,-0.6875033946029842
1772555323536062500,6.8310625,0.9048030603557825,0.9919693026334047,-0.6238290870718658
1772555323545994500,6.840994384765625,0.810548321121931,1.070924619796127,-0.4809284634169191
1772555323555927600,6.850927490234375,0.7104986318737267,1.1723016121253371,-0.4038002155508846
1772555323565859600,6.860859619140625,0.5928910741031169,1.2361952614955602,-0.47976650696545836
1772555323575791600,6.87079150390625,0.44992344962656494,1.2480286148913204,-0.5198402317438274
1772555323585723600,6.8807236328125,0.2234469363361597,1.216422201141715,-0.4874878584651276
1772555323595656700,6.89065673828125,-0.03213409088551998,1.1616204975046216,-0.4461575212217867
1772555323605588700,6.900588623046875,-0.33360768523216244,1.0899639590479433,-0.4108266801215708
1772555323615520500,6.9105205078125,-0.6570289074927568,0.9889109379760921,-0.4012535998079926
1772555323625452500,6.92045263671875,-0.8784785325318575,0.8507863696165382,-0.37259383396953344
1772555323635385600,6.930385498046875,-0.9245891263216733,0.7052142617300152,-0.3328269831832498
1772555323645317600,6.940317626953125,-0.8111305049240589,0.5825277932599187,-0.32868075022399423
1772555323655249700,6.950249755859375,-0.5623433756262064,0.457567096247524,-0.41783564556818453
1772555323665181700,6.960181640625,-0.22692659514546393,0.3705718266226351,-0.5174593279566615
1772555323675113700,6.97011376953125,0.10953004977703094,0.26949352497905493,-0.6230716197680681
1772555323685046800,6.980046875,0.39048517223000523,0.13258432375863194,-0.7031571830697357
1772555323694978600,6.989978515625,0.5438233840733766,0.01801306494399905,-0.7416193079330027
1772555323704910600,6.99991064453125,0.6059563073813915,-0.06319061566740274,-0.7235171034008264
1772555323714842600,7.009842529296875,0.5952057807862758,-0.1311373398207128,-0.7162080955617129
1772555323724775700,7.019775634765625,0.5028349556028843,-0.19349632696956395,-0.717949970792979
1772555323734707700,7.029707763671875,0.3856237036734819,-0.2277763438425958,-0.6715368138600141
1772555323744639700,7.0396396484375,0.24987550905644892,-0.2376668926075101,-0.5951031241293996
1772555323754571800,7.04957177734375,0.12780395761430263,-0.25574381656795736,-0.5000774370556696
1772555323764504600,7.059504638671875,0.08147007646262645,-0.2648107739903033,-0.4097173671728
1772555323774436600,7.0694365234375,0.09855798938572406,-0.26614918298721313,-0.3222251808764413
1772555323784368600,7.07936865234375,0.09838146377503872,-0.243700327552855,-0.2850532054215669
1772555323794300700,7.08930078125,0.09166238465309143,-0.21142617060951888,-0.2971442599054426
1772555323804233500,7.0992333984375,0.10990472830832004,-0.18472827942855655,-0.3052038303835317
1772555323814165500,7.10916552734375,0.14231471352577207,-0.17270495641864836,-0.2735796983141452
1772555323824097500,7.11909765625,0.1354343063622713,-0.14429792323224247,-0.2358240412198007
1772555323834029600,7.129029541015625,0.08760112656354904,-0.14232655009403825,-0.17390381081439554
1772555323843962600,7.138962646484375,0.015550035831332206,-0.12527538898475468,-0.1219520897809416
1772555323853894700,7.148894775390625,-0.05852466968297958,-0.11213913629688321,-0.07358085758276284
1772555323863826400,7.158826416015625,-0.10514029038548468,-0.11994929859116672,0.03421798448748886
1772555323873758500,7.168758544921875,-0.05367313799858093,-0.12255940802432597,0.12229271991215646
1772555323883691500,7.17869140625,0.01981763014793396,-0.12461429472751914,0.13411810919716954
1772555323893623600,7.18862353515625,0.0724316144824028,-0.1346565999880433,0.09018661301210522
1772555323903555600,7.1985556640625,0.1826554917424917,-0.17745573114231228,0.07473550751060247
1772555323913487600,7.208487548828125,0.25959376999437805,-0.21426906588524577,0.06715550071038305
1772555323923419400,7.21841943359375,0.2916816836506128,-0.21032230102084576,-0.00826221691071987
1772555323933352700,7.228352783203125,0.24855858123898505,-0.2357708497278392,-0.08482523210942745
1772555323943284500,7.238284423828125,0.13504092313051222,-0.25966113614216446,-0.08879735061079264
1772555323953216500,7.248216552734375,0.031401100435853,-0.2785706384692341,-0.03713482178226113
1772555323963148500,7.2581484375,-0.008137129226326941,-0.30004421913065016,-0.004105024166032672
1772555323973081600,7.26808154296875,0.013734510841965674,-0.35286936199776825,-0.021386998356506228
1772555323983013600,7.278013671875,0.10235738166868687,-0.41409101567976175,-0.054520621673390265
1772555323992945700,7.287945556640625,0.20088848304748533,-0.4679980354994535,-0.10516812824048101
1772555324002877700,7.297877685546875,0.24887656114697454,-0.5270862573493271,-0.18072883452884853
1772555324012810800,7.307810791015625,0.25245851128697394,-0.6082866500250995,-0.23098522288650272
1772555324022742500,7.317742431640625,0.25712065787911415,-0.6622229690045118,-0.2320387505274266
1772555324032674600,7.327674560546875,0.2111819135248661,-0.7253093205798417,-0.23906726092472672
1772555324042606600,7.337606689453125,0.14194061951637268,-0.7762106557775288,-0.26363734629675745
1772555324052539600,7.34753955078125,0.08329495380222797,-0.8123943143147975,-0.283020238289237
1772555324062471700,7.3574716796875,0.04942015672922134,-0.8388669453725218,-0.2923681315448135
1772555324072403700,7.36740380859375,-0.01679156032502651,-0.8642311037316918,-0.2550967143034562
1772555324082335700,7.377335693359375,-0.10862170276045799,-0.8639880156908184,-0.20088526817709207
1772555324092268800,7.387268798828125,-0.16142098053395748,-0.8204429615400731,-0.15697971015088258
1772555324102200600,7.39720068359375,-0.214358205473423,-0.7716682631075382,-0.1285571506017819
1772555324112132600,7.407132568359375,-0.25535949342548847,-0.6827103881727904,-0.08232676635719835
1772555324122064600,7.417064697265625,-0.3199555919766426,-0.6009758155550807,-0.060660877994075414
1772555324131996700,7.42699658203125,-0.3592348784416914,-0.5262501718513667,-0.01446465174742043
1772555324141929700,7.4369296875,-0.3920230493217706,-0.44291466684304176,0.02567194566670805
1772555324151861800,7.44686181640625,-0.37195875093638897,-0.39283115083426234,0.0751832512781024
1772555324161793800,7.456793701171875,-0.32049393663704395,-0.34604163486957545,0.08796250722184777
1772555324171725600,7.4667255859375,-0.2896989854007959,-0.2953276389375329,0.06276431654673069
1772555324181658600,7.47665869140625,-0.2860299414992332,-0.29356998161524533,0.050657991428487
1772555324191590700,7.486590576171875,-0.2896785271346569,-0.32533385094888506,0.04603559232484549
1772555324201522700,7.496522705078125,-0.23772329896986483,-0.396957656179741,0.058124984574597326
1772555324211454700,7.506454833984375,-0.11817863565683365,-0.48656069715023037,0.05357356834793463
1772555324221387500,7.516387451171875,0.018556231909990308,-0.58581448678039,-0.017423538085632025
1772555324231319600,7.526319580078125,0.19534487744569778,-0.6862121857486665,-0.13028001060532404
1772555324241251600,7.53625146484375,0.3433440663486719,-0.7804789807464927,-0.2583299971362576
1772555324251183600,7.54618359375,0.4430021259307861,-0.8623208861961961,-0.36704599058404563
1772555324261116400,7.556116455078125,0.5117220264136791,-0.9251504134662449,-0.4267779536975547
1772555324271048400,7.56604833984375,0.49040509761869905,-0.9627790101148187,-0.4720675864933058
1772555324280980500,7.57598046875,0.40636721649467944,-1.0164471796773373,-0.5356768294315785
1772555324290912500,7.58591259765625,0.3343202174156904,-1.0505363501533864,-0.5846817564234137
1772555324300844500,7.595844482421875,0.2458458151489496,-1.0224844140149651,-0.6789954593028873
1772555324310777600,7.605777587890625,0.137020114248991,-0.9864251125097274,-0.8228880896698683
1772555324320709600,7.615709716796875,-0.009505494970083236,-0.9354998119145631,-0.9815900935687124
1772555324330641700,7.6256416015625,-0.3208440652489662,-0.8223873736061156,-1.1289589486788958
1772555324340573700,7.63557373046875,-0.8554588914722203,-0.6078126758377999,-1.265367141574621
1772555324350506800,7.6455068359375,-1.5544710836917162,-0.40058651420138774,-1.2221584067061542
1772555324360438800,7.655438720703125,-2.2535154246151445,-0.18382555843517184,-1.0726559005681424
1772555324370370800,7.665370849609375,-2.8200609281063076,0.009636574003845452,-0.8794415323451161
1772555324380302600,7.675302490234375,-3.0779747821897265,0.1626436541967094,-0.6824404121249914
1772555324390235600,7.685235595703125,-2.9829899751156566,0.2789067385558039,-0.5346552678314969
1772555324400167700,7.695167724609375,-2.5088462764680384,0.3996270215194672,-0.4379444772150367
1772555324410099700,7.705099609375,-1.6977438285946844,0.5124308322701603,-0.4126208700619638
1772555324420031700,7.71503173828125,-0.748430595383048,0.5979680851064622,-0.45345217174198477
1772555324429964800,7.72496484375,0.22188626289069652,0.6426406089171767,-0.5192465766996145
1772555324439896800,7.734896728515625,1.0655459954977036,0.6260457402080297,-0.5994319105813279
1772555324449828900,7.744828857421875,1.705967467060685,0.560871695638448,-0.678289064599201
1772555324459760600,7.7547607421875,2.152688905775547,0.5052309108287095,-0.6290592428103089
1772555324469693700,7.764693603515625,2.462874798887968,0.4522609526634216,-0.5331188520444556
1772555324479625700,7.774625732421875,2.6428175245404244,0.38050299965888257,-0.46332014334890986
1772555324489557800,7.784557861328125,2.640194190299511,0.3169217772386968,-0.36791053499151016
1772555324499489800,7.79448974609375,2.473601944607496,0.2507527302823961,-0.2341721823595464
1772555324509421800,7.804421875,2.1629788291215895,0.2259273549750447,-0.12554467091280966
1772555324519355000,7.81435498046875,1.763415447422862,0.21983108392655848,-0.08324059326648711
1772555324529287000,7.824286865234375,1.3168874854534864,0.24998189204037188,-0.05645100521408021
1772555324539218700,7.83421875,0.8531617204457521,0.3119106710784137,0.01531297567244619
1772555324549150700,7.844150634765625,0.38071021266877647,0.4469283594638109,0.13572035676203667
1772555324559083800,7.854083740234375,-0.006674070936441421,0.5796576446510852,0.20765578522533176
1772555324569015800,7.864015869140625,-0.44380233639776706,0.6388306952401995,0.24122031077276915
1772555324578947800,7.87394775390625,-0.8740905267059802,0.7238375675268471,0.30311595472618935
1772555324588880000,7.8838798828125,-1.183648643308878,0.87756448642686,0.3603785320514813
1772555324598813000,7.89381298828125,-1.3484271175771951,0.9844311622135341,0.4094367236005142
1772555324608745000,7.903744873046875,-1.3424492122113705,1.0450364375628531,0.44735246662739664
1772555324618676700,7.9136767578125,-1.2437380780905485,1.0938280871301889,0.4739683786133304
1772555324628608800,7.92360888671875,-0.9931927069485187,1.170256077772379,0.4989853675026446
1772555324638541800,7.933541748046875,-0.6479314088016748,1.2148901692688465,0.5227291581183672
1772555324648473900,7.943473876953125,-0.2608861478924751,1.2361647202268242,0.4879126597484573
1772555324658406000,7.953406005859375,0.11989654549062251,1.2408897029221058,0.432172433152236
1772555324668338000,7.963337890625,0.4131394871085882,1.2348489614531397,0.38690508525352924
1772555324678270000,7.97327001953125,0.5315981087505817,1.2115478731036184,0.30237280820868906
1772555324688202800,7.98320263671875,0.5156774860411882,1.1721076969884334,0.23498116065487265
1772555324698134800,7.993134765625,0.41597032662034034,1.1287259436406194,0.20301358544267714
1772555324708066800,8.00306689453125,0.21958500021100044,1.0708623682148755,0.23025022314283997
1772555324717998800,8.012998779296876,0.028363340175151824,0.9946044734425842,0.25116978665068745
1772555324727931600,8.022931640625,-0.15710545542240142,0.9047752955660223,0.23863639522679148
1772555324737863700,8.03286376953125,-0.3604576982349157,0.8197203463539481,0.1947874627586454
1772555324747795700,8.042795654296874,-0.5384019435465336,0.7170673427395522,0.14682481136135755
1772555324757727700,8.052727783203125,-0.6799404120028019,0.6013379999309778,0.12866331438999623
1772555324767660800,8.062660888671875,-0.7447188813835383,0.5180567823931574,0.09276439107824117
1772555324777592600,8.072592529296875,-0.742548551607132,0.4440066267982125,0.02364796555843204
1772555324787524600,8.082524658203125,-0.7046972521185875,0.325267288518697,-0.030001937695033846
1772555324797456600,8.09245654296875,-0.5599339763969182,0.21997107691913842,-0.027325740755721924
1772555324807389700,8.1023896484375,-0.3314478768497705,0.14523761523514986,-0.046915188170969485
1772555324817321700,8.11232177734375,-0.08786474593579768,0.07316504332348704,-0.06166782654691487
1772555324827253800,8.122253662109374,0.12635960402488708,-0.006276303790509701,-0.07305979285072535
1772555324837185800,8.132185791015624,0.31809213619232174,-0.09779124279692769,-0.11877802632208913
1772555324847117600,8.14211767578125,0.49102527534365653,-0.14090002442225813,-0.10429306243900209
1772555324857050600,8.152050537109375,0.6129331606566906,-0.16238602617383002,-0.056870801528729496
1772555324866982700,8.161982666015625,0.6864929023861884,-0.15263868527188895,-0.029723413014598188
1772555324876914700,8.171914794921875,0.7005424705266952,-0.1208510697364807,-0.036846469827555114
1772555324886846700,8.1818466796875,0.665730684864521,-0.09336860404908656,-0.07224029316138476
1772555324896779800,8.19177978515625,0.635161359077692,-0.06852145530134439,-0.07551354267839341
1772555324906711800,8.2017119140625,0.5989730243653059,-0.05558233262076973,0.0003882321326062083
1772555324916643800,8.211643798828124,0.5678542480021714,-0.05217003995925188,0.09304828605353832
1772555324926575600,8.22157568359375,0.5936106205493211,-0.03805179049670696,0.146478737870045
1772555324936508700,8.2315087890625,0.5764058032482862,-0.050533670929074286,0.144157053456828
1772555324946440700,8.241440673828125,0.47804772034883497,-0.04053746983259916,0.16877108756843953
1772555324956372700,8.251372802734375,0.276681098395586,-0.025495821914821862,0.20005550282206386
1772555324966304800,8.2613046875,0.03908756328523159,0.005478869802504778,0.2271410781463608
1772555324976237800,8.27123779296875,-0.18002163610756397,0.005863923597335815,0.27687179866209627
1772555324986169900,8.281169921875,-0.32257658812999723,-0.020658172625303266,0.35555071003623306
1772555324996102000,8.291101806640626,-0.3883171805411577,-0.06420110788419843,0.4405888542439788
1772555325006033700,8.30103369140625,-0.3768973763823509,-0.12402999203354119,0.5043040783073753
1772555325015966700,8.310966796875,-0.32089901030659673,-0.18700258103609085,0.49745359135810285
1772555325025898800,8.320898681640625,-0.24266893867850303,-0.21497662963271139,0.44889860009085386
1772555325035830800,8.330830810546875,-0.12969956210255623,-0.2358793516036123,0.3718101362459361
1772555325045762800,8.3407626953125,-0.03150339176654816,-0.28758557344339786,0.33030100836958737
1772555325055694800,8.35069482421875,0.037001989182829854,-0.3556853692665696,0.3049526321014389
1772555325065628000,8.3606279296875,0.07416589092910289,-0.3844940420564264,0.30597430329937486
1772555325075560000,8.370559814453125,0.026752397847175598,-0.4348308752391487,0.3747680362034589
1772555325085491700,8.38049169921875,-0.024669746354222297,-0.45995063038319345,0.37648243890590966
1772555325095423700,8.390423828125,-0.0360983183413744,-0.509808228681609,0.37530601553767917
1772555325105356800,8.400356689453124,-0.06318856984078884,-0.5539873429521918,0.3822076846849173
1772555325115288800,8.410288818359374,-0.08660042508840561,-0.5868470446985214,0.3565244869718328
1772555325125220900,8.420220947265625,-0.1157446865081787,-0.6437528810080141,0.2860710772272199
1772555325135153000,8.43015283203125,-0.14492518828511236,-0.7125230503734201,0.2495588077900931
1772555325145085700,8.440085693359375,-0.1606751306027174,-0.7469312967360019,0.21960045350845903
1772555325155017700,8.450017822265625,-0.21210370454490182,-0.7632026325792074,0.1787939940087497
1772555325164949800,8.45994970703125,-0.2881879963159561,-0.7862570526912808,0.16291092683076858
1772555325174881800,8.4698818359375,-0.36445465891659257,-0.8162515742648393,0.17937292640786617
1772555325184813800,8.479813720703126,-0.42152503813803194,-0.8395085312116891,0.22390089064873753
1772555325194746600,8.48974658203125,-0.5121019656419754,-0.8343521713618188,0.3115076797680929
1772555325204678700,8.4996787109375,-0.5933008239477873,-0.8023064163468777,0.3591419394612312
1772555325214610700,8.509610595703125,-0.6216162333279848,-0.7801052520632743,0.3613437603544444
1772555325224543000,8.51954296875,-0.568604774108529,-0.7714992632161826,0.39417390721272677
1772555325234475800,8.529475830078125,-0.45612288878858087,-0.7609278195150196,0.4440885694606229
1772555325244407600,8.539407470703125,-0.3653776189804077,-0.7503077874317765,0.4837890770124271
1772555325254339600,8.549339599609375,-0.29322014526426793,-0.7321444272968918,0.49813013891279695
1772555325264271600,8.559271728515625,-0.21804069337844847,-0.7198604075241833,0.5360790170243009
1772555325274204700,8.56920458984375,-0.11863222464323044,-0.7340034261018037,0.5996666691852733
1772555325284136700,8.57913671875,-0.0610813684284687,-0.7116260284684598,0.6453562976166606
1772555325294068700,8.58906884765625,-0.03315583514869213,-0.6793871620342135,0.6534422811776399
1772555325304000800,8.599000732421874,-0.07900280956625938,-0.624875454319641,0.6690994306452572
1772555325313933800,8.608933837890625,-0.26194179442524906,-0.5267997685581446,0.6908223829578608
1772555325323865900,8.618865966796875,-0.5334259086996317,-0.40272520673051476,0.6617856005005538
1772555325333798000,8.6287978515625,-0.8046481571674347,-0.25759068654365835,0.6053763520689681
1772555325343729700,8.638729736328125,-1.0297802701115608,-0.11201192972064018,0.6191501354753971
1772555325353662700,8.648662841796876,-1.1718664355784654,-0.0052229953452944755,0.6434466646030544
1772555325363594800,8.6585947265625,-1.2715192344635724,0.1246221127077937,0.6429867920063436
1772555325373526800,8.66852685546875,-1.2427180873930455,0.2627266611926257,0.5822794445220381
1772555325383458800,8.678458740234374,-1.0519599532157182,0.3750982180058956,0.47780105211138724
1772555325393390800,8.688390869140624,-0.7334995682328939,0.46132162647545333,0.3447140395276248
1772555325403324000,8.698323974609375,-0.3872399066984653,0.5202738739207386,0.2212354708317667
1772555325413256000,8.708255859375,-0.09738251586556435,0.5449028498731553,0.1134777279568836
1772555325423187700,8.718187744140625,0.11833704108893871,0.5872844862677157,-0.009126980513893067
1772555325433119700,8.72811962890625,0.24384967289566992,0.5944637302473187,-0.14271713858051224
1772555325443052800,8.738052734375,0.3496253385752439,0.5802689084172249,-0.20401098071588203
1772555325452984800,8.74798486328125,0.43127135612666606,0.556042229655385,-0.24624202965861186
1772555325462916900,8.757916748046876,0.47486675222516056,0.5280797253660857,-0.2749805415553972
1772555325472849000,8.767848876953124,0.48763095673024653,0.4948810739889741,-0.33155400410536673
1772555325482782000,8.777781982421875,0.4280974022656679,0.44331499127224083,-0.3278008621169254
1772555325492714000,8.7877138671875,0.2774824779063463,0.42177009894028306,-0.2599290115644224
1772555325502645800,8.797645751953125,0.12500702037215233,0.4442597247764468,-0.25963928963653743
1772555325512577800,8.807577880859375,0.006458382359147072,0.4594561248645186,-0.24885624901130793
1772555325522510800,8.8175107421875,-0.05211597168445587,0.4654926285497844,-0.23852531780144198
1772555325532443000,8.82744287109375,-0.0729547615736723,0.5062774972721934,-0.25407016600100324
1772555325542375000,8.837375,-0.08356851004660129,0.5525403590142727,-0.2819838809788227
1772555325552307000,8.847306884765626,-0.07667758148908614,0.6172760121665894,-0.2333315668169409
1772555325562239000,8.857239013671874,-0.0865396348118782,0.7102968256913125,-0.17301831495044753
1772555325572172000,8.867172119140625,-0.1296779347926378,0.8142664648622274,-0.19637712483657524
1772555325582103800,8.877103759765625,-0.08601122702360153,0.8511357675760984,-0.21219985839575528
1772555325592035800,8.887035888671875,-0.021452537873387335,0.8964134176731109,-0.2122006621133536
1772555325601967900,8.8969677734375,0.0669458765476942,0.9576251344829797,-0.24906700568515805
1772555325611901000,8.90690087890625,0.21388824987411498,0.9735317286670208,-0.3388864658853039
1772555325621833000,8.9168330078125,0.3788976102888584,0.9466006132520735,-0.4071487587938085
1772555325631765000,8.926764892578126,0.5425421120911836,0.9602209961950778,-0.47172812540587034
1772555325641697000,8.936697021484376,0.7146165885865687,0.9663812723904848,-0.5746615168642253
1772555325651629800,8.9466298828125,0.8567781573772429,0.9703769178979098,-0.6803442435633391
1772555325661561600,8.9565615234375,0.9745809454590082,0.9478573353148996,-0.7171168809697032
1772555325671494000,8.966493896484375,1.0604846204549074,0.9091032417677343,-0.7416597860738635
1772555325681426000,8.976426025390625,1.093760867112875,0.8809053212873638,-0.7303565940320491
1772555325691358000,8.98635791015625,1.0560621278375386,0.8276483628742396,-0.7153508942104876
1772555325701290800,8.996290771484375,0.980416812005639,0.7845981795683503,-0.6619022126175462
1772555325711222800,9.006222900390625,0.7576110961824655,0.7251625325202942,-0.6168447811424732
1772555325721154800,9.01615478515625,0.39285482397079463,0.6751721746876835,-0.5437902855213731
1772555325731086800,9.0260869140625,-0.03307049495279789,0.6097057230427861,-0.451847622622177
1772555325741019600,9.03601953125,-0.4245370794355869,0.5602407042585313,-0.3063135817237198
1772555325750951700,9.04595166015625,-0.7603530883669852,0.46286330295950173,-0.13643250535307452
1772555325760883700,9.0558837890625,-0.9635264674812555,0.3752960786655545,-0.03183324477542192
1772555325770815700,9.065815673828125,-0.9804027834802865,0.2872815489955246,-0.012659136695414781
1772555325780748800,9.075748779296875,-0.8263309966653585,0.19516236048564314,-0.050331682083569466
1772555325790680800,9.085680908203125,-0.5806424179047346,0.13963278096541762,-0.18912492521861568
1772555325800612900,9.09561279296875,-0.33121114548444747,0.10961933549568056,-0.32876733252890405
1772555325810544600,9.105544677734375,-0.0005564648389816284,0.06095964174494147,-0.3468606961674988
1772555325820477700,9.115477783203126,0.3471574871569872,0.02234159566760063,-0.2808386929990724
1772555325830409700,9.12540966796875,0.6196487326472997,0.027764497499167918,-0.33955961590651423
1772555325840341800,9.135341796875,0.7793436200410128,0.04753989594057202,-0.43432822294663637
1772555325850273800,9.145273681640624,0.7751917610585689,-0.10544321885481477,-0.48643206580188125
1772555325860205800,9.155205810546875,0.6474082617104053,-0.20405337681919336,-0.5043153668863699
1772555325870139000,9.165138916015625,0.46522447913289067,-0.08182663481533527,-0.21158090451350434
1772555325880071000,9.17507080078125,0.19068682250678537,0.017332535333931445,0.009562778115272522
1772555325890002700,9.185002685546875,0.06689677670896053,0.05103972075507045,-0.006539174244087189
1772555325899934700,9.194934814453125,-0.01942716952562332,0.18862404475808142,-0.01234981501791626
1772555325909867800,9.20486767578125,-0.03632511283457279,0.20037951061204073,0.07393423759769648
