time,seconds_elapsed,z,y,x
1772556170897192400,0.0731923828125,1.5816683026969431,-0.11675415581166744,0.1784334536006674
1772556170907123500,0.08312353515625,1.2531857053935527,-0.14254793775975702,0.2978862739117816
1772556170917054700,0.0930546875,0.8547697401642799,-0.15605536184757948,0.41144799035768953
1772556170926985500,0.1029853515625,0.3525543777644634,-0.17409575318992138,0.3221107607165351
1772556170936916500,0.11291650390625,-0.10511223333477973,-0.15939473540335894,0.2835993168188259
1772556170946847700,0.12284765625,-0.36570495123863217,-0.10114800587892532,0.31011374119166285
1772556170956778500,0.132778564453125,-0.4137918135374784,-0.030870646820962428,0.40507103920429943
1772556170966709500,0.14270947265625,-0.19922844088077543,0.05146452203840017,0.40467082437295465
1772556170976640800,0.152640869140625,0.2473667411059141,0.18263941739052533,0.22707995907627046
1772556170986571500,0.162571533203125,0.8374304828286171,0.35635347778648135,0.006333002413809299
1772556170996503600,0.172503662109375,1.3118091592758894,0.4903264794245362,-0.09773900115303695
1772556171006434600,0.1824345703125,1.3273182785749436,0.5245972900778055,-0.05014861713424325
1772556171016365600,0.192365478515625,1.109290444678068,0.44044455040246244,0.18931399978362023
1772556171026296600,0.202296630859375,0.5946569147318601,0.48048050045371055,0.6017613399095832
1772556171036227600,0.2122275390625,-0.232944832521677,0.8542942316070199,1.3900743022173643
1772556171046158600,0.22215869140625,-0.5628507406264543,1.0705813593164086,1.6852058340609073
1772556171056089600,0.232089599609375,-0.35037878729104993,1.0600473980814218,1.6456275646492837
1772556171066020600,0.2420205078125,0.2112602394580841,1.2549012771397827,1.6274829822801054
1772556171075951600,0.25195166015625,0.8163941245406866,1.4848267618402837,1.1783088897161185
1772556171085882600,0.261882568359375,1.1583826846271752,1.523422742216289,0.4935249832049012
1772556171095814700,0.271814697265625,1.451390648445487,1.507835004723072,-0.057333121810853475
1772556171105745700,0.28174560546875,1.3641723837196826,1.9629291349858045,-0.29446137749701734
1772556171115676700,0.2916767578125,1.1554711810946463,2.402601239711046,-0.09750343883149325
1772556171125607400,0.301607421875,1.0734481469243764,2.8626594221219417,0.556651155333966
1772556171135538700,0.31153857421875,1.2021388242453337,3.333490635220706,1.152133195778355
1772556171145469700,0.3214697265625,1.5340695161759852,3.3433751926362514,1.2301553968094288
1772556171155400400,0.331400390625,1.760088348826766,2.592678698147833,0.6583607406184077
1772556171165331700,0.341331787109375,2.337961886540055,1.7224775800958274,1.0650028285317121
1772556171175262700,0.3512626953125,2.09298408639729,0.8905220215469598,0.6736050715014338
1772556171185193500,0.361193359375,1.221601065084338,-0.45819677245318885,-1.6371132726736366
1772556171195124700,0.371124755859375,1.1321066721200943,-0.8452540160611272,-2.3200414683155715
1772556171205056800,0.381056884765625,1.1715472866266965,-0.2531754273846745,-2.2093951278597115
1772556171214987500,0.390987548828125,0.08593933083117007,0.19786358226835726,-3.2315766134053465
1772556171224918500,0.40091845703125,0.40487142497897144,0.3667190967172384,-2.87438405444622
1772556171234849800,0.410849853515625,0.28625556694865223,0.14160890334397552,-2.1790452900424597
1772556171244780500,0.420780517578125,0.05890986960828304,-0.269952082401514,-1.4860000434033571
1772556171254711600,0.430711669921875,-0.10144085134565829,-0.799488874708116,-0.6586253829039633
1772556171264642600,0.440642578125,-0.6723837130129336,-1.3177037702724337,-0.06022548225149512
1772556171274573600,0.450573486328125,-1.446627379566431,-1.523795667181909,0.011916647765040396
1772556171284504600,0.460504638671875,-1.840915451210737,-1.4387337037071586,-0.20239728017523884
1772556171294435600,0.470435546875,-1.7890695286393166,-1.3888386229425669,-0.4266881199896335
1772556171304366600,0.48036669921875,-1.61619542619884,-1.1382663637936115,-0.7101395893029868
1772556171314298600,0.490298583984375,-1.496234583300352,-0.9058663056731223,-1.0711957648877053
1772556171324229400,0.5002294921875,-2.3734072939306494,-0.574433041870594,-1.4974682167485356
1772556171334160600,0.51016064453125,-3.2137679849922653,-0.42141923967599865,-1.3818104778714477
1772556171344091600,0.520091552734375,-3.5293723960220813,-0.31956162422299383,-0.8955202682256698
1772556171354022400,0.5300224609375,-3.9809588104248044,-0.28061814558357,-0.6208768131375313
1772556171363953700,0.53995361328125,-4.650129991132021,-0.8026800719648599,-0.3490654396701604
1772556171373884700,0.549884765625,-4.825218847012519,-0.7525847924530505,0.06835603560656309
1772556171383815400,0.5598154296875,-4.929586983981729,-0.7365665545880794,0.39444954581633207
1772556171393746700,0.56974658203125,-4.853306877377629,-1.070125432242453,0.37493513639867304
1772556171403677700,0.579677734375,-4.376075734108686,-1.4465198275387285,0.5528113579753786
1772556171413608400,0.5896083984375,-3.5934091071248053,-1.7282357052311301,0.659078241237998
1772556171423540500,0.59954052734375,-2.7514988485336302,-1.9287004099085925,0.6213325940810144
1772556171433471500,0.609471435546875,-1.9855653296858071,-2.110153832384944,0.46700632104836404
1772556171443402500,0.619402587890625,-1.3619722433269024,-2.2597034656003117,0.25102533667869864
1772556171453333500,0.62933349609375,-1.0653998650252818,-2.3752499991878864,0.1990891785405576
1772556171463264500,0.639264404296875,-1.0813216567784547,-2.3725582758858796,0.22975480430871248
1772556171473195500,0.649195556640625,-1.0766787994086742,-2.1852289471134543,0.17442447368763386
1772556171483126500,0.65912646484375,-0.9767267253160477,-2.0523235747069117,0.2892383090864867
1772556171493057500,0.6690576171875,-1.1422878743946552,-2.06650173766315,0.3853459096454084
1772556171502988500,0.678988525390625,-1.7120675375014542,-2.1170865542575714,0.3161762926336378
1772556171512919600,0.68891943359375,-2.468359367778897,-2.155934171307087,-0.06141973353736102
1772556171522851600,0.6988515625,-2.7587282152652737,-2.3699644600003955,-0.30221352599374945
1772556171532782600,0.708782470703125,-2.944308070021868,-2.343558683633804,-0.11357523351460695
1772556171542713300,0.71871337890625,-4.6821606216430665,-1.8246496683254836,-0.3117224550299346
1772556171552644600,0.72864453125,-7.416524795502424,-1.363714703080058,-0.10750135696101933
1772556171562575600,0.73857568359375,-9.759086869314313,-0.86084935233891,0.13011214322512968
1772556171572506400,0.74850634765625,-12.282874109804629,-0.21211846372261642,-0.36208621275220065
1772556171582437600,0.758437744140625,-14.377792379134892,0.6477040297865867,-0.9158948016040026
1772556171592368600,0.76836865234375,-15.557109715241193,1.3354890178099275,-1.2199796013623476
1772556171602299400,0.77829931640625,-15.301326443445681,1.9059956800170241,-1.0129995234414935
1772556171612230700,0.788230712890625,-13.437447465276717,2.2770631812021134,-0.33326471701338883
1772556171622161400,0.798161376953125,-10.54084573380351,2.399700842094421,0.44559678206648673
1772556171632093400,0.808093505859375,-7.059751338738202,2.166707786516845,1.2237624809019267
1772556171642024400,0.8180244140625,-3.5016795024544,1.7519874599575995,1.859036944965273
1772556171651955700,0.827955810546875,-0.6432809526473283,1.3695958700731397,2.3553631031960247
1772556171661886500,0.837886474609375,1.1086690979093312,1.1986603344798088,2.927328878170252
1772556171671817500,0.8478173828125,1.980858174908161,1.4316259175285697,3.1140438744366166
1772556171681748500,0.85774853515625,2.6441584177553654,2.4079008074238897,2.761637380710244
1772556171691679500,0.867679443359375,3.7475732483983037,3.9742800633132456,2.0373823184236883
1772556171701610500,0.877610595703125,5.54393527213335,5.365000846740603,0.6775986711822449
1772556171711541500,0.88754150390625,7.961530082836747,6.414559584033489,-0.9702382400795817
1772556171721472500,0.897472412109375,11.121073725688456,6.828727245146036,-3.1249314714148637
1772556171731403500,0.907403564453125,14.326070375204086,7.054778811022639,-4.1658641269207
1772556171741335300,0.917335205078125,16.681649166977405,7.323071435779332,-3.358355904147029
1772556171751266600,0.9272666015625,18.017630059957504,7.38415572681725,-1.8244703662358224
1772556171761197600,0.937197509765625,18.937090006697176,7.237942836809158,-0.4622365493632853
1772556171771128300,0.94712841796875,19.612531938236952,7.140923893558979,0.63217182187289
1772556171781059600,0.9570595703125,19.94041481608152,7.233122869306802,1.3548765859775245
1772556171790990600,0.966990478515625,19.87324623669386,7.297818921101093,1.660114647424221
1772556171800921300,0.97692138671875,19.17455553151369,7.127594456386566,1.7114143342897294
1772556171810852600,0.9868525390625,17.809997363346813,6.705076900079846,1.3389694072715936
1772556171820783600,0.99678369140625,15.900489437425136,6.387298652142286,0.9585380115441977
1772556171830714400,1.00671435546875,13.644821803212166,5.829260864755511,1.0824454001113772
1772556171840645600,1.016645751953125,11.875433126598596,4.730173541922867,1.16646779140532
1772556171850577700,1.02657763671875,10.581137996703387,3.8362364512354135,1.3288188923962414
1772556171860508400,1.03650830078125,9.235003373977541,3.0429987458765506,1.6246698245555162
1772556171870439400,1.046439453125,8.127893780469893,2.2113917085044084,1.7748340825378894
1772556171880370700,1.05637060546875,6.8326891345143315,1.3318357559993863,1.7204577647060155
1772556171890301400,1.066301513671875,5.004644855314493,0.3678044808011502,1.6840784374661744
1772556171900232400,1.076232421875,2.595412799286842,-0.08872026678659022,1.8561945611461996
1772556171910163500,1.08616357421875,0.17049392930567264,-0.29804994004089386,2.5207690617129206
1772556171920094500,1.096094482421875,-1.6933324418932199,-0.5991947773572057,3.862802678860724
1772556171930025500,1.106025390625,-2.914450691896677,-1.0131793369878084,5.238337291333079
1772556171939956500,1.11595654296875,-4.108028024023771,-1.7509828129597007,6.5938073131591075
1772556171949888500,1.125888427734375,-6.890927972993254,-2.720495807504654,7.311155957058071
1772556171959819500,1.135819580078125,-11.435905398780108,-3.340792482666671,7.324126497790217
1772556171969750500,1.14575048828125,-15.960339802753925,-3.49102045353502,6.088242640331387
1772556171979681500,1.155681640625,-18.155930277144908,-3.049102031187713,3.836738555538654
1772556171989612500,1.165612548828125,-17.803709076857565,-1.8690248166248202,1.3048724918805061
1772556171999543600,1.17554345703125,-16.99152760157585,-0.6160048231869936,-0.7182246960811317
1772556172009474600,1.185474609375,-17.393901949042082,-0.05762092577628791,-1.7092552565596997
1772556172019405600,1.195405517578125,-18.58692749250531,0.1433605693168938,-1.3616628851167858
1772556172029336600,1.205336669921875,-18.669659551727772,0.3098340109348297,-0.252911515751481
1772556172039267600,1.215267578125,-17.915324700737,0.40873566265907135,1.5829368613280355
1772556172049198300,1.2251982421875,-17.200716295456886,0.5045353663126007,3.8775288310885427
1772556172059130400,1.23513037109375,-16.376072813487053,0.3582258475296199,4.461884132036566
1772556172069061600,1.2450615234375,-15.672439391207694,0.34184100484196095,3.897226634249091
1772556172078992600,1.25499267578125,-14.895022939836979,0.38792449142914265,3.004439005857706
1772556172088923400,1.26492333984375,-14.188842171162365,0.1493667874617502,2.202898751577735
1772556172098854700,1.274854736328125,-13.31211661977768,0.049704380498081444,1.9756959698393939
1772556172108785400,1.284785400390625,-12.235254280495642,0.027798765094950793,2.3425866237312554
1772556172118716400,1.29471630859375,-11.19915415971279,-0.18751622964665293,2.8795912677004933
1772556172128647700,1.304647705078125,-10.562047511786222,-0.48507718059420585,3.5522631500050426
1772556172138578400,1.314578369140625,-10.135632948040962,-0.4726590130478143,3.9256557331368325
1772556172148509400,1.324509521484375,-9.597944705721735,-0.18966186337321997,3.570244212375581
1772556172158440700,1.334440673828125,-8.679624576666951,-0.05651216081678867,2.9803195868626235
1772556172168371500,1.344371337890625,-7.4073220828711985,0.17187866166234014,2.52078893545717
1772556172178303500,1.354303466796875,-5.788235026884078,0.68006520742625,1.889243721050024
1772556172188234500,1.364234375,-3.8969758743584153,1.3374009889110923,1.188994534381479
1772556172198165500,1.37416552734375,-1.8583108226478098,2.099056684309244,0.39850678531788286
1772556172208096500,1.384096435546875,0.2564005269110203,2.9344959933206436,-0.4274156305465847
1772556172218027500,1.394027587890625,2.395841244056821,3.731755501541495,-1.2874671835713087
1772556172227958500,1.40395849609375,4.648278225785494,4.300020083910226,-2.344409162983298
1772556172237889500,1.4138896484375,7.11055856591165,4.926400755161047,-3.353345967030525
1772556172247820500,1.423820556640625,9.27754546163082,5.7057882143437855,-4.042679353539645
1772556172257751600,1.43375146484375,10.968113699507713,6.608137451806664,-4.518203692890704
1772556172267682600,1.4436826171875,12.219329566133021,7.541721200966834,-4.437838362799584
1772556172277613300,1.45361328125,13.059584458732605,8.311275248399376,-3.6220746451169252
1772556172287545300,1.46354541015625,13.72823424591422,8.84629865542352,-2.4689503194093705
1772556172297476600,1.4734765625,14.286891041982173,9.346399217626452,-1.3420609435461461
1772556172307407600,1.48340771484375,14.568357036566734,9.632749477121234,-0.009042992024868727
1772556172317338400,1.49333837890625,14.990755934929847,9.522901447436213,1.0004195894621313
1772556172327269600,1.50326953125,15.573776772403717,9.384980584955215,1.6588564640566705
1772556172337200400,1.513200439453125,16.24966644771099,9.14104966351688,1.9048805583819746
1772556172347131400,1.52313134765625,17.022888370001315,8.697169585707783,1.8942140568085013
1772556172357062700,1.533062744140625,17.41858046322465,8.318498185390233,1.7573980868294834
1772556172366993400,1.542993408203125,17.252356466323135,7.931895407551527,1.4042035114653408
1772556172376924400,1.55292431640625,16.710442715263365,7.404842541015148,0.9961521412760018
1772556172386855700,1.562855712890625,15.84525562598109,6.890020210498571,0.6124319331362843
1772556172396787500,1.572787353515625,14.284047927510738,6.081852062511444,-0.11217632650211452
1772556172406718500,1.582718505859375,12.247491830778122,4.5813326414987445,-1.1559214090801775
1772556172416649500,1.5926494140625,10.176957476598023,2.4465911880850792,-1.560989671805501
1772556172426580500,1.60258056640625,6.979214159211516,0.6452557598516344,0.35971462478265165
1772556172436511200,1.61251123046875,2.521617495235801,0.06979688206464052,4.988398069390654
1772556172446442200,1.622442138671875,-2.0047458309739827,-0.5566247057184577,9.158805684959887
1772556172456373500,1.63237353515625,-5.219936542245746,-1.9406997675210236,9.786144972109794
1772556172466304300,1.64230419921875,-6.354940689373016,-3.1062285245105623,7.843030544662475
1772556172476235300,1.6522353515625,-5.496906978976726,-3.6144787831604477,5.639135183262825
1772556172486166300,1.662166259765625,-3.844209914332628,-3.9358816513359542,3.9079140324801203
1772556172496097300,1.67209716796875,-3.3579560911744832,-4.218776801940798,2.565705351026356
1772556172506028300,1.6820283203125,-4.984698630350828,-4.128387213702499,1.5735288353830574
1772556172515960600,1.691960693359375,-7.271630586877465,-3.483842232468724,1.0223459553923457
1772556172525891300,1.701891357421875,-8.54797738762796,-2.5509932273238896,1.0762180500291287
1772556172535822300,1.711822265625,-8.994411826094984,-1.586001801856607,0.9440596235323697
1772556172545753300,1.72175341796875,-9.490029689925908,-0.7858427728019655,0.013202011400461197
1772556172555684400,1.731684326171875,-10.386710818624495,-0.25696342149078844,-1.3255923315651714
1772556172565615400,1.741615478515625,-11.003019008672236,-0.06920578430369496,-2.1952546665653587
1772556172575546400,1.75154638671875,-10.941931795024871,-0.18645649146065116,-2.3218245523400602
1772556172585477400,1.761477294921875,-10.706970361983775,-0.4986087162099778,-1.6281043290488422
1772556172595408400,1.771408447265625,-10.896907242906092,-1.0221367696210741,-0.6547234800945967
1772556172605339400,1.78133935546875,-11.30803422114849,-1.6231759327359496,0.020213205336779356
1772556172615270400,1.7912705078125,-11.590795516240597,-2.0593508429951966,0.33155623259507117
1772556172625202400,1.801202392578125,-11.604260562491417,-2.207931046656519,0.2549373955558985
1772556172635133200,1.81113330078125,-11.202204194933175,-2.205458957454562,-0.2051932675693184
1772556172645064400,1.821064453125,-10.642088432228565,-2.179940923707932,-0.8365143908970057
1772556172654995500,1.830995361328125,-10.396949304044247,-2.077662160233408,-1.4000966606684029
1772556172664926200,1.84092626953125,-10.587386535704136,-2.0289967673942444,-2.137542043917626
1772556172674857500,1.850857421875,-10.777314064276219,-2.035375947037339,-2.9376813453584907
1772556172684788200,1.860788330078125,-10.85942653029561,-1.9242353933237493,-3.4382828428208825
1772556172694719200,1.87071923828125,-10.960576874262093,-1.75856976095736,-3.627956688892841
1772556172704650500,1.880650390625,-10.845552318722008,-1.588602047482878,-3.685511344499886
1772556172714581200,1.890581298828125,-10.354828656673432,-1.3714444205492735,-3.5993268067359923
1772556172724512300,1.90051220703125,-9.48599882697463,-1.0214435266599058,-3.3364950777336952
1772556172734444300,1.9104443359375,-8.312230941689014,-0.5691156462401151,-2.9156656206443903
1772556172744375300,1.920375244140625,-6.845791192671657,-0.033787703311443325,-2.445538610292226
1772556172754306300,1.930306396484375,-5.276429413840174,0.5347115645959973,-2.1854367446452376
1772556172764237300,1.9402373046875,-3.642278644233942,1.2085884387761354,-2.058164994211495
1772556172774168300,1.950168212890625,-1.9224995094418524,1.7293331450790166,-2.0553192493915557
1772556172784099300,1.960099365234375,-0.25174656362533565,2.1731728908777237,-2.128144685497135
1772556172794030300,1.9700302734375,1.0574158805340528,2.8177266399398446,-1.8846657456099987
1772556172803961300,1.97996142578125,2.1046903062820435,3.5544609523102637,-1.2728181882329284
1772556172813892400,1.989892333984375,3.3572786303043363,4.19704778521359,-0.4739562132515013
1772556172823823400,1.9998232421875,4.790966448798775,4.864136314427852,0.3192090844582766
1772556172833754400,2.00975439453125,6.286959040036797,5.617182879173756,1.0443852801777422
1772556172843686400,2.019686279296875,7.860416563749313,6.185316528639197,1.226478315731883
1772556172853617400,2.029617431640625,9.586974398896098,6.73108578608334,0.9516003212355076
1772556172863548200,2.039548095703125,11.167801574593781,7.604358566665649,0.7034763320215046
1772556172873479400,2.0494794921875,12.288679581212996,8.398060382404923,0.47352702805399893
1772556172883410400,2.059410400390625,13.132535128653048,8.855744529160857,0.46694633448943496
1772556172893341200,2.069341064453125,13.72940679682493,9.067444913601875,0.6179677938230336
1772556172903272400,2.0792724609375,14.02070444959402,9.208160959759354,1.0399652717784047
1772556172913203200,2.089203125,14.177321244716643,9.389780094191432,1.7780642966307698
1772556172923134200,2.09913427734375,14.227821597898005,9.431442476400733,2.382556815069914
1772556172933065500,2.1090654296875,14.072037161946296,9.174474963256717,2.1377906118512153
1772556172942996200,2.118996337890625,13.827681293094157,8.682642463183402,1.335193249733746
1772556172952928300,2.12892822265625,13.4226333425045,8.104526348885893,0.7550576123073697
1772556172962859500,2.138859619140625,12.651712098371982,7.545052975738048,0.5853679851219058
1772556172972790300,2.148790283203125,11.495876175618172,6.633800885373353,-0.059168812805414195
1772556172982721300,2.15872119140625,9.956433734232187,5.023405669885873,-0.8888666555553674
1772556172992652500,2.168652587890625,7.3347127737343305,2.4111516259133814,-1.7246904338397084
1772556173002583300,2.178583251953125,3.5777591180503365,0.339805955350399,-0.5519675275623798
1772556173012514300,2.188514404296875,-0.2959305732667446,-0.19406945068240164,4.283616061598062
1772556173022445600,2.198445556640625,-4.107162347105145,-1.2463207880601286,9.050587886825204
1772556173032376300,2.208376220703125,-6.88276746289134,-3.02271788213104,10.826530807387828
1772556173042307300,2.218307373046875,-6.651919894909859,-4.165755405849218,9.74525006714165
1772556173052238300,2.22823828125,-3.6764725902587174,-4.299066144186258,7.257401570516825
1772556173062169300,2.23816943359375,-0.14459201080799103,-4.38184058124572,4.298638566423953
1772556173072101400,2.248101318359375,2.4609043755978344,-4.687213228857517,2.041996095829457
1772556173082032400,2.258032470703125,3.3448961185932156,-4.723599716490507,0.808548963998258
1772556173091963400,2.26796337890625,2.508689040079713,-4.556205799026787,0.09237097131386399
1772556173101894400,2.277894287109375,0.683272771295905,-4.19222518736273,-0.5872011918984353
1772556173111825200,2.2878251953125,-1.5364993736714123,-3.76062591445595,-1.1219390599794685
1772556173121756400,2.29775634765625,-3.8339550622999665,-3.554012916281819,-1.5260783712916075
1772556173131687400,2.3076875,-6.110512339806556,-3.679405136579275,-2.1258907690905033
1772556173141618200,2.3176181640625,-8.372369476309418,-3.703942780986428,-2.4885923007294535
1772556173151549400,2.327549560546875,-10.969003341823816,-3.359914824026823,-2.0636919409394263
1772556173161480400,2.33748046875,-13.942698834371566,-3.215276051467657,-0.7865322163708508
1772556173171411200,2.3474111328125,-16.956754394358395,-3.3495682020574806,1.2190618289303035
1772556173181343200,2.35734326171875,-19.231597853684423,-3.589530219864845,2.96087429715842
1772556173191274500,2.3672744140625,-20.06865424250364,-3.956449515329301,3.7584108687549826
1772556173201205200,2.377205322265625,-19.13952864179611,-4.449212574250996,3.4565789624899623
1772556173211136300,2.38713623046875,-16.97744763829708,-4.788993102899194,2.2816060853287574
1772556173221067500,2.397067626953125,-14.721108972954749,-4.881993458157777,1.018514049079269
1772556173230998300,2.406998291015625,-12.774738758581876,-4.800201017872989,0.18666165864393114
1772556173240929300,2.41692919921875,-11.30734448531866,-4.616223337616026,-0.4925798843745142
1772556173250860500,2.426860595703125,-10.273023649168014,-4.2709933113902805,-1.214743819600716
1772556173260791300,2.436791259765625,-9.1128295312047,-3.5718665528804063,-1.9233157942607997
1772556173270722300,2.446722412109375,-7.691963784882426,-2.4594834028840062,-2.496452366580069
1772556173280653300,2.4566533203125,-6.110155196931958,-1.023104737870395,-2.782077818931639
1772556173290584300,2.466584228515625,-4.186912175646424,0.30342706650197504,-3.1826655752420425
1772556173300516400,2.476516357421875,-1.9920739809274672,1.5064973263785242,-3.7632843200102446
1772556173310447400,2.486447265625,-0.00032382512688636776,2.5925959883004426,-4.227160307143628
1772556173320378400,2.49637841796875,1.6993787363201378,3.4705081191211935,-4.4269495967775585
1772556173330309400,2.506309326171875,3.0604426326304672,4.210358225424588,-4.3055254033282395
1772556173340240100,2.516240234375,4.1638510335326195,4.914529115581512,-3.921781229791045
1772556173350171400,2.52617138671875,5.133900180780888,5.70704902805984,-3.284967719592154
1772556173360102400,2.536102294921875,5.982144318568706,6.397648196721077,-2.522565882001817
1772556173370033200,2.546033203125,6.683531423225999,6.916155353230238,-1.8934123850367963
1772556173379964400,2.55596435546875,7.263629651251435,7.315944944900274,-1.254386021094024
1772556173389895400,2.5658955078125,7.701098108452558,7.466219677519798,-0.692547672380507
1772556173399826200,2.575826171875,8.211680901703238,7.34019675810337,-0.23030483940690755
1772556173409758200,2.58575830078125,9.02116480846405,7.0247852392971515,0.3206875595130026
1772556173419689500,2.595689453125,10.096091211247444,6.577544160622358,0.902496463913843
1772556173429620200,2.6056201171875,11.318141773664951,6.0756175520360465,1.3744316196665167
1772556173439551200,2.61555126953125,12.587014877533912,5.513304571548104,1.681580629301071
1772556173449482500,2.625482421875,13.802717532229423,4.775895720916986,1.9431836932912467
1772556173459413200,2.635413330078125,14.830260252547264,4.0918046189755195,2.271092728490382
1772556173469344300,2.64534423828125,15.642985333186386,3.6696319305837153,2.687857858750224
1772556173479275500,2.655275634765625,16.183614305132625,3.4316777454674243,3.0573467124417424
1772556173489206300,2.665206298828125,16.509582289266586,3.189124542123079,3.4243437493175266
1772556173499137300,2.67513720703125,16.660456741344927,3.024346652376652,3.807920749594271
1772556173509068500,2.685068603515625,16.48820281662941,3.072972443857789,3.9997397910013794
1772556173518999300,2.694999267578125,15.859458338856696,3.2738059818476435,3.8560347921609877
1772556173528931300,2.704931396484375,14.879492193228005,3.552778113789856,3.451598251467943
1772556173538862600,2.714862548828125,13.472272110420464,3.842930980437994,2.914058769969642
1772556173548793300,2.72479345703125,11.391468875682353,3.9886867743283507,2.175871774572879
1772556173558724400,2.734724365234375,8.88528100476861,3.786861010430753,1.3915430595956741
1772556173568655600,2.744655517578125,6.417890189760923,3.260839825029671,0.6161666626852005
1772556173578586400,2.75458642578125,4.429792711248994,2.268199783527851,-0.2222920672126114
1772556173588517400,2.764517333984375,2.968590278363228,0.975925930327177,-0.8994517624557018
1772556173598448400,2.774448486328125,1.34106974055171,-0.25373159996271133,-1.735662055839598
1772556173608379400,2.78437939453125,-1.2346166140019892,-1.3069751632481812,-2.756459978072345
1772556173618310400,2.794310302734375,-4.692021505922079,-2.236235496251285,-3.1113910218402743
1772556173628241400,2.804241455078125,-8.652562966740131,-2.6284602056249975,-2.03094015654698
1772556173638173400,2.81417333984375,-13.802710517966746,-2.57848270727396,-0.09578204013267531
1772556173648104400,2.8241044921875,-19.21448071466684,-2.6775281879156827,1.6344506293356418
1772556173658035200,2.83403515625,-22.94835744614601,-2.585010355477035,2.121493703175336
1772556173667966500,2.843966552734375,-25.26995213525295,-1.9200177756287156,1.8652195791229604
1772556173677897500,2.8538974609375,-27.00962956421375,-1.741914832624048,1.115090947650373
1772556173687828200,2.863828125,-27.20087109799385,-1.7115769775055347,0.5318985530018806
1772556173697759500,2.873759521484375,-25.980627877259252,-1.9449273220881818,0.4477333191711455
1772556173707690500,2.8836904296875,-24.569853901362418,-2.7262536403790114,0.6035149055786431
1772556173717621200,2.893621337890625,-22.866271868133545,-3.7968320770859716,0.7482744549732655
1772556173727552500,2.903552490234375,-20.303428628540036,-4.8096559516996145,0.7577010394882411
1772556173737483300,2.913483154296875,-17.138087113064525,-5.768391093251108,0.7041445136066525
1772556173747415300,2.923415283203125,-13.90483116827011,-6.6546706549227235,0.9622099049899726
1772556173757346300,2.93334619140625,-11.427307081782818,-7.237540685749053,1.5764825706221162
1772556173767277600,2.943277587890625,-10.15236547165513,-7.6153756352424615,2.205830128854513
1772556173777208300,2.953208251953125,-10.346692111968993,-7.601757444256544,2.6758108626037833
1772556173787139300,2.963139404296875,-11.525676270598172,-7.185149988776445,2.5315827166721223
1772556173797070300,2.9730703125,-12.360123353701828,-6.371750954398513,2.0610253520786763
1772556173807001300,2.98300146484375,-12.403414213895797,-5.172940397793054,1.7004099790640175
1772556173816932400,2.992932373046875,-11.57547636655569,-3.722859662902355,1.5039961572125553
1772556173826863400,3.00286328125,-10.185843378365039,-2.2203768328621982,1.2872029796771705
1772556173836794400,3.01279443359375,-8.218402903434633,-0.6804831405773758,0.9533389815963804
1772556173846725400,3.022725341796875,-5.992131459575891,0.7948702749967574,0.40905192553400993
1772556173856656400,3.032656494140625,-3.7773505470246076,2.194040322339535,0.0198462717205286
1772556173866588400,3.04258837890625,-1.4024287568777798,3.4715441841706633,0.1472105227433145
1772556173876519400,3.05251953125,0.9274000920891762,4.646051489646733,0.5332109507746994
1772556173886450200,3.0624501953125,2.8635867660999295,5.794109471875429,0.9675788116119801
1772556173896381400,3.07238134765625,4.415034702578187,6.847305688887834,1.2834024183504282
1772556173906312400,3.0823125,5.624319891446828,7.928995009934901,1.5188256236843765
1772556173916243200,3.0922431640625,6.588731909590959,9.212350228142737,1.9166608664162457
1772556173926174500,3.102174560546875,7.422270645678043,10.503608182299136,2.5770249096810818
1772556173936105500,3.11210546875,8.075314282926916,11.728679553842543,3.0919638523146507
1772556173946036200,3.1220361328125,8.737033394062518,12.871286577188968,3.2053403483867644
1772556173955967500,3.131967529296875,9.661704937970638,13.806548488694428,3.165489399513602
1772556173965898200,3.141898193359375,10.324363375782966,14.54583307006955,2.9970079790741204
1772556173975829200,3.151829345703125,10.494496655082703,14.989563510274886,2.4481939471065997
1772556173985761300,3.16176123046875,10.719890633833408,14.826376689112186,1.9123329202145336
1772556173995692500,3.171692626953125,11.49664306833744,13.972357475054263,1.7346745061069726
1772556174005623300,3.181623291015625,12.626135758566855,12.822806331658363,1.9395023744300006
1772556174015554300,3.19155419921875,13.705100038564204,11.491099462735653,2.163945628327131
1772556174025485300,3.2014853515625,14.464195235824585,10.106904866206646,2.418741058129072
1772556174035416300,3.211416259765625,15.030426266539095,8.696577465033531,2.687534910406172
1772556174045347300,3.221347412109375,15.736680684971809,7.412649415373802,3.1044495321393013
1772556174055278300,3.2312783203125,16.362122614067793,6.407960331898927,3.5232343316584824
1772556174065209300,3.241209228515625,16.47954487839937,5.593167212814092,3.5903599486872553
1772556174075140400,3.251140380859375,16.10574196090102,5.074163212698698,3.6081484110951423
1772556174085071400,3.2610712890625,15.520109479624033,4.709098312929273,3.8621538595631715
1772556174095003400,3.27100341796875,14.978041414785384,4.147603663086891,3.997014165429771
1772556174104934400,3.280934326171875,14.37488847438693,3.3309406584769485,3.8063431250140067
1772556174114865400,3.290865478515625,13.540982658553123,2.4310288772940636,3.337003027255833
1772556174124796400,3.30079638671875,12.542766570484638,1.6176941403239964,2.598022981785238
1772556174134727400,3.3107275390625,11.739722341382503,1.0146072508990764,1.858551061144471
1772556174144658400,3.320658447265625,11.43250581946969,0.6619681174606085,1.2166054487541318
1772556174154589400,3.33058935546875,11.105703138077258,0.43118075523376465,0.46847471310049293
1772556174164520200,3.340520263671875,9.75647931716442,-0.13802140024602413,-1.0693559091746807
1772556174174451500,3.350451416015625,6.8726873829036945,-1.0415838128909467,-2.8491707027345896
1772556174184382500,3.360382568359375,2.6863702505409717,-1.3482888781502842,-3.3849043038547038
1772556174194313200,3.370313232421875,-1.6653800206065177,-0.8220154715538024,-2.4429689059346913
1772556174204245200,3.380245361328125,-5.998749416410923,0.13794658144414423,-0.7232058454945683
1772556174214176500,3.390176513671875,-10.586748237800597,1.1944772035762667,1.2474410242617129
1772556174224107300,3.400107177734375,-15.362545759040117,2.2262612147256733,3.193088185057044
1772556174234038300,3.410038330078125,-19.97867294280529,1.8921935107663272,3.388313235515356
1772556174243969500,3.419969482421875,-22.83453232952356,0.8615345581240952,1.651869089387357
1772556174253900300,3.429900390625,-23.363742081832886,0.21882658305913208,-0.750196728272736
1772556174263831300,3.439831298828125,-22.924081083023548,-0.46338002030998465,-3.1178990885600446
1772556174273762600,3.449762451171875,-22.82925292781591,-1.3214971712060273,-4.658694698120653
1772556174283693300,3.459693359375,-22.936933550333976,-2.187264252333343,-5.135668944019079
1772556174293624300,3.469624267578125,-22.506288217151162,-2.6922689531907436,-4.792789572572707
1772556174303555600,3.4795556640625,-20.991541825604436,-2.873521300137043,-4.075926081842184
1772556174313486300,3.489486328125,-18.319928414690494,-2.9934502865925428,-3.2778555494993924
1772556174323418400,3.49941845703125,-14.829364765012263,-3.0137627145200967,-2.354839517713338
1772556174333349400,3.509349365234375,-10.662450836777687,-2.8744308161973953,-1.3498729324713348
1772556174343280400,3.5192802734375,-6.145421740624308,-2.5819249566823244,-0.31843422762826085
1772556174353211400,3.52921142578125,-1.6609931838244198,-2.197031613110006,0.48489247167706484
1772556174363142400,3.539142333984375,2.6760645451039076,-1.770507305379957,0.747237001684308
1772556174373073400,3.549073486328125,5.614743084806204,-1.1878095623806117,0.3894641586191952
1772556174383004400,3.55900439453125,6.481375696721672,-0.372493880726397,-0.08764160470440983
1772556174392935200,3.56893505859375,5.966177518630027,0.648960459588468,-0.47115459983423347
1772556174402866400,3.578866455078125,4.9385927127361295,1.8022073887623846,-0.6265710792563856
1772556174412797400,3.58879736328125,3.577433539357781,2.764748498468101,-0.8984260726697743
1772556174422728200,3.598728271484375,1.906338063713908,3.328416985218227,-1.2929643196828662
1772556174432659500,3.608659423828125,0.4687175819456577,3.385719127368927,-1.682528139284253
1772556174442591500,3.618591552734375,-0.25315116972625257,3.154551533652842,-1.54047646060884
1772556174452522200,3.628522216796875,-0.2631301274269819,2.68406022003293,-0.9184355721279979
1772556174462453200,3.638453369140625,0.09289280323088168,2.054380507236719,-0.059253276218473906
1772556174472384500,3.648384521484375,0.7801508447706699,1.5203158622421324,0.9173053990542888
1772556174482315300,3.658315185546875,1.7951906418681143,0.9407721993595362,1.7119608622565865
1772556174492246300,3.668246337890625,2.980163811779022,0.5104640987744554,2.372498362392187
1772556174502177300,3.67817724609375,4.1824610414564605,0.4138915475849062,2.7679496325969692
1772556174512108300,3.6881083984375,5.369996755331754,0.4452427444644272,2.9345424628108736
1772556174522039300,3.698039306640625,6.526306725338101,0.5029609931353479,2.9278698531791565
1772556174531970300,3.70797021484375,7.55946494745016,0.6082520901683718,2.783258260887861
1772556174541901300,3.7179013671875,8.320195052435993,0.7324599960520863,2.562415954092145
1772556174551833300,3.727833251953125,8.80467485165894,0.7856681468874216,2.3329931582167744
1772556174561764400,3.737764404296875,9.053025927627086,0.8072060249567031,2.1169506529182196
1772556174571695400,3.7476953125,9.031640609771014,0.8173696915745735,2.0022507992878555
1772556174581626400,3.75762646484375,9.010091041263937,0.8263060083545744,2.1986492774397135
1772556174591557400,3.767557373046875,9.134517046877741,0.8420350540146231,2.6367630468070504
1772556174601488400,3.77748828125,9.14127178183496,0.6972435751117766,2.86186038069874
1772556174611419400,3.78741943359375,8.594913910847902,0.4267857351452112,2.6753058356910944
1772556174621350400,3.797350341796875,7.800231267377733,0.24246450214758514,2.2240812403380867
1772556174631281400,3.807281494140625,7.189512860161066,0.2080515065446496,1.8184446762055158
1772556174641212200,3.817212158203125,6.67414750880897,0.14762801750302315,1.4591370247885584
1772556174651143400,3.827143310546875,5.830049969306588,-0.10742752453982829,1.0508420551016926
1772556174661074400,3.837074462890625,4.281449238952994,-0.24859511385709046,1.0178732669577002
1772556174671006500,3.84700634765625,1.4722048884153365,-0.05289543162435293,1.48968779200539
1772556174680937200,3.856937255859375,-2.972107346573472,-0.280220962959528,1.5026615476079284
1772556174690868500,3.866868408203125,-8.357509760829807,-0.4208092910841107,1.6221132719404994
1772556174700799200,3.87679931640625,-14.379222119677065,-0.22392390619814395,1.2298887086972594
1772556174710730200,3.886730224609375,-20.818383061003683,-0.0563780130431056,0.6996207525718957
1772556174720661500,3.89666162109375,-25.309500886309145,0.0029237784922122954,0.8394265520166605
1772556174730592300,3.90659228515625,-26.426940735173226,0.19154139350950716,1.4207321830704807
1772556174740523300,3.916523193359375,-25.149014556276796,0.8932435554653405,1.8048320381775498
1772556174750454500,3.92645458984375,-23.370078299117086,0.9339803472623228,1.7722712463125585
1772556174760385300,3.93638525390625,-21.922166140437124,-0.5073369431972503,0.801724597870931
1772556174770316300,3.94631640625,-20.418801559126376,-2.865184848946333,-0.6820490747198462
1772556174780248300,3.956248291015625,-18.318375924551486,-5.114545491969585,-1.3436740778312086
1772556174790179300,3.966179443359375,-15.759741242563724,-6.550617575252056,-1.289155428919196
1772556174800110300,3.9761103515625,-12.533517096102237,-6.9463932551056145,-1.2594640550106764
1772556174810041300,3.986041259765625,-8.57089356831312,-6.619674160343409,-1.3688143643066286
1772556174819972400,3.995972412109375,-4.5569320674747225,-5.9972764212489125,-1.5319631915464997
1772556174829903400,4.0059033203125,-1.1720207493573427,-5.244010076272487,-1.7712611924871802
1772556174839834400,4.01583447265625,1.3677788837790488,-4.32527522893697,-2.1446901621066035
1772556174849765400,4.025765380859375,3.134159610748291,-3.273144010807574,-2.3078952495783565
1772556174859696400,4.0356962890625,4.417389156749844,-2.301010166239738,-2.041791220907122
1772556174869627100,4.045627197265625,5.423561172258854,-1.185502454482019,-1.6647006600402294
1772556174879558400,4.055558349609375,6.47882484319508,0.21864421222954988,-1.0030119440428913
1772556174889489400,4.065489501953125,7.5271297810345885,1.7519664171695708,-0.3094938557276502
1772556174899421400,4.07542138671875,8.396527181488276,3.242401958802342,0.1833339755259454
1772556174909352200,4.085352294921875,9.144949009042978,4.499660612723231,0.44151543103698637
1772556174919283500,4.095283447265625,9.90431893159151,5.494578243768215,0.6727244892746209
1772556174929214200,4.105214111328125,10.674596032601594,6.2189516717374325,0.9519006193563342
1772556174939145200,4.115145263671875,11.338113717591762,6.675767218965292,1.3876684101194143
1772556174949076500,4.125076416015625,11.842708084082602,6.7859671308279035,1.7738912487298248
1772556174959007200,4.13500732421875,12.178345229315758,6.598750030258297,2.084459126897156
1772556174968938200,4.144938232421875,12.284426599943638,6.120647364851832,2.2885231712408363
1772556174978869500,4.154869384765625,12.076500473344325,5.422042584389448,2.6317346972510216
1772556174988800300,4.16480029296875,11.619593740701674,4.758543311838805,3.202286806035042
1772556174998731300,4.174731201171875,10.935223821818829,4.498335501599311,3.753682086667418
1772556175008662300,4.184662353515625,9.651364745742082,4.561313935820758,3.904319222858548
1772556175018594300,4.19459423828125,7.882177729180455,4.7668669035479425,3.555292434698343
1772556175028525300,4.204525390625,6.297246040773391,5.053212779128551,2.7150650146275757
1772556175038456300,4.214456298828125,5.202686716759205,5.371770194745063,1.6302331577710807
1772556175048387300,4.22438720703125,4.615980468770862,5.550870039832592,0.6649862962380051
1772556175058318300,4.234318359375,4.403227360406517,5.732099298164248,0.22741116379201412
1772556175068249300,4.244249267578125,3.9869390538781877,5.936285069191456,0.34244361037760973
1772556175078180400,4.254180419921875,3.103121498405933,5.836526471844315,-0.0018979425758123398
1772556175088111400,4.264111328125,2.0877362488716837,5.472082334321737,-0.8333245088145136
1772556175098042400,4.27404248046875,1.528916955718398,5.007215582585334,-1.5953545904830098
1772556175107973400,4.283973388671875,1.4319839371860026,4.2947173013269895,-1.4433774378597735
1772556175117904400,4.293904296875,2.0666250717818735,3.08803908008635,-0.6828931243285536
1772556175127835400,4.30383544921875,3.8997213736742733,1.599544443388283,0.3501537463635206
1772556175137767400,4.313767333984375,6.337463484871387,-0.17063713716864584,1.4536466106787322
1772556175147698400,4.323698486328125,8.207582234212756,-2.0654379078239202,2.407658376970142
1772556175157629200,4.333629150390625,8.252168979436158,-3.5486692171663043,2.3487796331524846
1772556175167560400,4.343560546875,5.669801539683341,-4.730131164085865,0.40802053665965793
1772556175177491500,4.353491455078125,1.3147908054351807,-6.202302150231599,-1.949376994973421
1772556175187422200,4.363422119140625,-3.6215327933251857,-7.0154141843616955,-2.824885571783781
1772556175197353500,4.373353515625,-7.853881609022617,-5.099812033218145,-1.8309777023032308
1772556175207284500,4.383284423828125,-12.281588161647319,-2.151381914830208,-0.5800944286331534
1772556175217215200,4.39321533203125,-17.94093026663661,-0.9587333879858255,0.2753775415163487
1772556175227146500,4.403146484375,-23.349026158738134,-1.739591796503961,-0.0566891978841275
1772556175237077200,4.4130771484375,-26.660487625241277,-3.039910716733336,-1.4262816338911652
1772556175247009300,4.42300927734375,-27.840955300426483,-4.242003656010329,-2.405852350461483
1772556175256940300,4.432940185546875,-27.158829945600033,-5.5978410498440265,-2.5033704754054544
1772556175266871600,4.44287158203125,-24.242657252216336,-6.809484200015664,-1.6844732820026576
1772556175276802300,4.45280224609375,-19.403926597201824,-7.24594026530385,-0.46636049742549657
1772556175286733300,4.4627333984375,-13.976865307867525,-7.223176644831895,0.18764643189758062
1772556175296664300,4.472664306640625,-8.860625871461629,-6.871622968542575,0.3822382990188896
1772556175306595300,4.48259521484375,-4.426676040533184,-5.608231510955095,-0.10250789605528116
1772556175316526300,4.4925263671875,-1.0139555089920758,-3.658576575823128,-1.2796782832607627
1772556175326457300,4.502457275390625,1.2276099501103162,-1.5936483710870146,-2.5782354545146227
1772556175336388400,4.512388427734375,2.6150042194634673,0.36524493251144885,-3.5407428080812093
1772556175346319400,4.5223193359375,3.7501287781000134,1.8241648074179886,-3.6523014410763976
1772556175356250400,4.53225048828125,4.847700727933645,2.817608566518128,-2.743822907078266
1772556175366182400,4.542182373046875,5.990780044966936,3.634114919261634,-1.1455850162439047
1772556175376113400,4.552113525390625,7.250946695289016,4.418468184158206,0.5155890771053732
1772556175386044200,4.562044189453125,8.44694803969264,5.052924609836936,1.8248843538641928
1772556175395975400,4.571975341796875,9.581009937533736,5.382339519554376,2.668677941983938
1772556175405906400,4.581906494140625,10.728421146291494,5.545697021108865,3.2710522992253304
1772556175415837200,4.591837158203125,11.936153260499239,5.653139158695936,3.8958243662357326
1772556175425768400,4.6017685546875,13.139175297319888,5.492903004032373,4.391069597361982
1772556175435699200,4.61169921875,14.116460825562477,5.152848626878857,4.810984569954872
1772556175445630200,4.621630126953125,14.525477679783105,4.898506786063313,5.215216527986526
1772556175455561500,4.6315615234375,14.297375026595592,4.6139229517191644,5.295725065940618
1772556175465492200,4.6414921875,13.62828918608427,4.34447414266467,4.9726352675914764
1772556175475423200,4.65142333984375,12.592897505831719,4.335766812334954,4.48321333579123
1772556175485355300,4.661355224609375,11.387384236717223,4.508819778473675,3.858120658524334
1772556175495286300,4.671286376953125,10.050133762192726,4.589385307312011,3.11252704013288
1772556175505217300,4.68121728515625,8.740078168585896,4.465419612686336,2.2783942836754023
1772556175515148300,4.691148193359375,7.547803151229023,4.298791126637161,1.440832721813023
1772556175525079300,4.701079345703125,6.4258654064238065,4.215673867489397,0.5572384537026286
1772556175535010300,4.71101025390625,5.278753472873568,4.131923278874159,-0.28333383428305386
1772556175544941300,4.72094140625,4.03251539466083,3.9542558046773073,-1.0933940796270967
1772556175554872300,4.730872314453125,2.7116788793206212,3.7867800541490313,-1.6397081114724277
1772556175564803300,4.74080322265625,1.949835844656825,3.703273503422737,-0.9784799987241625
1772556175574734300,4.750734375,1.6768220365971327,3.6122491244122386,0.6917468773916363
1772556175584665300,4.760665283203125,1.6877864982038735,3.2436116268530486,2.4254867329970002
1772556175594596400,4.770596435546875,2.1792104174762965,2.5191952365249395,3.264776872217655
1772556175604528400,4.7805283203125,3.1911101629823446,1.8387775623992084,3.296343684609234
1772556175614459400,4.79045947265625,4.406173350730538,0.9229375597223639,2.7716198455423116
1772556175624390400,4.800390380859375,5.277698410862684,-0.4438593272820115,1.5401428447403014
1772556175634321400,4.8103212890625,5.566822226724028,-2.0987427960544824,0.07538067354634403
1772556175644252400,4.82025244140625,4.622476845052838,-3.8309000586435196,-1.24994570055902
1772556175654183400,4.830183349609375,1.571039941176772,-5.55932047279179,-2.230825161640346
1772556175664114200,4.8401142578125,-3.9601603525459765,-6.465591852134466,-2.2625189614124595
1772556175674045400,4.85004541015625,-10.60498532075882,-5.908505081862211,-0.8953419159840792
1772556175683976400,4.8599765625,-16.548483390069006,-4.760043195007741,1.1415228083062916
1772556175693907200,4.8699072265625,-21.19021380164623,-4.700372277899087,1.3671765339717268
1772556175703838500,4.87983837890625,-24.313328286767003,-4.608615200699866,0.3981009079307318
1772556175713769500,4.88976953125,-25.832467944836615,-4.527949718618393,-0.4566124989364296
1772556175723701200,4.899701171875,-25.756028848278522,-5.563901955363154,-0.6095249596484005
1772556175733632300,4.90963232421875,-24.547048195314407,-6.957872680497169,0.05982135843001306
1772556175743563500,4.9195634765625,-23.07182249777317,-8.168692239326239,1.0727945053212344
1772556175753494300,4.929494384765625,-21.41979763330221,-9.08397869977355,1.9213978318102656
1772556175763425300,4.93942529296875,-19.156511340779065,-9.453065694665908,2.4218474997118116
1772556175773356500,4.9493564453125,-16.6139615321517,-9.089601800352334,2.4922630981966853
1772556175783287300,4.959287353515625,-13.952154060459137,-8.083732567182183,2.112913360226154
1772556175793218300,4.96921826171875,-10.973458567667008,-6.6236079926609985,1.6609692184269427
1772556175803149300,4.9791494140625,-7.824368514290452,-5.006092131513357,1.2732459121257067
1772556175813080300,4.989080322265625,-4.775588262403011,-3.434975033447146,0.9955318904858081
1772556175823011300,4.99901123046875,-1.9359721544772386,-1.952752608886361,0.8374209112826734
1772556175832942300,5.0089423828125,0.8618383633762597,-0.49663084026575083,0.7293680944513529
1772556175842874400,5.018874267578125,3.5224446425855156,0.9238894536197185,0.515414012799412
1772556175852805400,5.028805419921875,5.96466185337007,2.2468971755191682,0.33103089354671533
1772556175862736100,5.038736083984375,8.146051368451118,3.405504316551983,0.24521423924714325
1772556175872667400,5.04866748046875,9.89467665849924,4.492392667546868,-0.02648096049465239
1772556175882598400,5.058598388671875,10.966392867064476,5.381967763632535,-0.2758897288221866
1772556175892529200,5.068529052734375,11.40656356896162,6.028634851586818,-0.20452194417901337
1772556175902460400,5.07846044921875,11.386434973168372,6.481562743726372,0.1760194147288799
1772556175912391400,5.088391357421875,11.150281115472316,6.841609523072838,0.6012282559461891
1772556175922322200,5.098322265625,10.878830318945646,7.235169864964485,1.0812450113456695
1772556175932253400,5.10825341796875,10.674895307809114,7.637415617614984,1.665633410845697
1772556175942184400,5.118184326171875,10.617898578345775,7.798730215165018,2.267537958618253
1772556175952116200,5.1281162109375,10.774824001026152,7.578390597194433,2.5938006879150866
1772556175962047200,5.138047119140625,11.144206763994694,7.209874680188298,2.733582375831902
1772556175971978500,5.147978515625,11.751202351295948,6.907484555518627,2.7558231414735315
1772556175981909200,5.1579091796875,12.396219918477534,6.641368690279125,2.445781917528808
1772556175991840300,5.16784033203125,12.757115423607825,6.4329457200735805,1.8973278049148619
1772556176001771500,5.177771484375,12.628434098637102,6.249540286746621,1.301306177701056
1772556176011702300,5.187702392578125,11.964299158531427,5.993830080187321,0.5241618943352252
1772556176021633300,5.19763330078125,10.867004272073506,5.801375078964233,-0.07095953263584524
1772556176031564300,5.207564208984375,9.600376316782832,5.8579661502361295,-0.30139917740356176
1772556176041495300,5.217495361328125,8.045992911374569,6.002806582847238,-0.21765114607159047
1772556176051426300,5.22742626953125,5.955601764079928,6.12445669400692,-0.015044789722934365
1772556176061357300,5.237357421875,3.312200302171707,5.996607728207111,-0.01950447254553437
1772556176071289300,5.247289306640625,0.5179202965319156,5.396828063634038,-0.6168334560308605
1772556176081220400,5.257220458984375,-2.301450895744562,4.521922128891944,-1.9078005374819038
1772556176091151400,5.2671513671875,-4.465355607539415,3.3848581266254185,-3.5131720795884727
1772556176101082400,5.277082275390625,-5.8277428614079945,1.9816794281631707,-4.484347892779112
1772556176111013400,5.287013427734375,-6.614833734574914,0.32789369149953124,-4.249574091264606
1772556176120944400,5.2969443359375,-7.679866519853472,-1.5017574383750556,-3.404930608317256
1772556176130875400,5.30687548828125,-9.191044405263662,-2.8478707260519265,-2.233933941310644
1772556176140806400,5.316806396484375,-10.683149925935268,-3.617441432358324,-1.0283451227419078
1772556176150737400,5.3267373046875,-11.770680958747864,-4.867509297992289,-1.3271915834553538
1772556176160668400,5.33666845703125,-12.265429638528824,-6.236230138796568,-2.5555180112719533
1772556176170599200,5.34659912109375,-12.879398571974038,-6.8199535715818405,-2.7587492580533026
1772556176180530400,5.356530517578125,-13.663862019246816,-6.817517868867516,-1.5210834856137632
1772556176190461400,5.36646142578125,-13.844990155291557,-6.622653468415141,-0.2633640457807109
1772556176200393500,5.3763935546875,-13.087374967455863,-6.799535052931309,0.049669236119464034
1772556176210324200,5.38632421875,-12.358429409265517,-7.424129425287246,0.27798231718726457
1772556176220255500,5.39625537109375,-12.137747845989464,-8.441852762380242,1.3394839326649903
1772556176230186200,5.406186279296875,-12.073584878158568,-9.292872210100292,2.5674668077409266
1772556176240117200,5.4161171875,-11.849847434443234,-9.827849439895152,2.6946964725986122
1772556176250048500,5.426048583984375,-11.129340034252404,-10.282946492767334,1.658520071709156
1772556176259979300,5.435979248046875,-9.861514393609761,-10.30089365286827,0.6549490324787796
1772556176269910300,5.44591015625,-8.378652502101659,-9.158983964136242,0.2930944730579853
1772556176279841500,5.455841552734375,-6.627077130076289,-6.725777742803096,-0.1255524523604661
1772556176289772300,5.465772216796875,-4.119398728343844,-3.71313380317986,-0.8899549622487276
1772556176299703300,5.475703369140625,-1.7386071693807839,-1.3213105625927448,-2.4369494995146987
1772556176309635300,5.48563525390625,-1.4805086063802242,0.8316250114202499,-4.039768434529006
1772556176319566300,5.49556640625,-0.14151917923390864,3.139118109938502,-4.382447607228159
1772556176329497300,5.505497314453125,1.8622844024538994,4.54140015182197,-4.926026076629758
1772556176339428400,5.515428466796875,3.6934365845412014,5.248244937363267,-4.912741647642851
1772556176349359400,5.525359375,5.3748097085714335,5.9005877328664065,-3.9803997152373194
1772556176359290400,5.535290283203125,7.131917580282687,6.63580345736742,-2.375475332376361
1772556176369221400,5.545221435546875,8.82998464948237,7.496486805489659,-0.37277678932100533
1772556176379152400,5.55515234375,10.470313815462589,8.158267875945567,1.5735260589040816
1772556176389083400,5.56508349609375,12.036771689546107,8.655245337691902,3.0783535523742436
1772556176399014100,5.57501416015625,13.33824241015911,8.957637800449133,3.992869612970948
1772556176408945400,5.5849453125,14.29670867164135,8.869569056373834,4.235451457887888
1772556176418876400,5.59487646484375,14.794298127806186,8.592824829614162,3.90974241695106
1772556176428808200,5.60480810546875,14.88364346768856,8.200399629232287,3.3932796257510778
1772556176438739200,5.6147392578125,14.672745631802082,7.58792648730278,3.0063518537417053
1772556176448670200,5.624670166015625,13.944558783024549,6.748699184185266,2.6925749503999947
1772556176458601200,5.634601318359375,12.744969058740137,6.028833004507422,2.6000597483098504
1772556176468532200,5.6445322265625,12.031832479578256,5.790730350831151,2.6304800210148094
1772556176478463200,5.654463134765625,11.805277640354632,6.287648191344737,2.9408108755558726
1772556176488394200,5.664394287109375,11.613009686136245,7.054081476408243,2.5342586578831074
1772556176498325000,5.674324951171875,11.364273410242795,7.523494054880738,1.130443415082991
1772556176508256300,5.68425634765625,10.755050794541836,7.369886962968111,-0.660987874251604
1772556176518187300,5.694187255859375,9.802717921248078,6.908935338848829,-2.217645069810748
1772556176528118000,5.704117919921875,8.936240792155266,6.537784397163986,-3.238193401196599
1772556176538049300,5.71404931640625,8.27926507615447,5.913685699370503,-3.3483047579929233
1772556176547981300,5.723981201171875,7.854764821597933,5.0173324874520295,-2.7790926656410098
1772556176557912000,5.733912109375,7.7349769971787925,4.049737163096666,-1.8535414162889121
1772556176567843000,5.743843017578125,7.788421587118506,2.8284578773126006,-0.8111454102322458
1772556176577774300,5.7537744140625,7.583808530589938,1.6186322979569434,0.08600348210856318
1772556176587705000,5.763705078125,6.957094097340106,0.4763125671193003,0.6176486448712647
1772556176597636000,5.773635986328125,6.228384685993194,-0.8250508937269448,1.1113435778155922
1772556176607567400,5.7835673828125,4.799732523578405,-2.0665303792357443,2.120487887133658
1772556176617498000,5.793498046875,2.363029692301154,-2.493757136146724,4.356803170622885
1772556176627429000,5.80342919921875,-2.2629028461635112,-2.050530846071243,7.919441584169864
1772556176637360000,5.813360107421875,-9.445281616660951,-1.8431807657942174,11.46182426841259
1772556176647291100,5.823291015625,-16.95616636533737,-0.955571124562621,14.115923065423965
1772556176657222100,5.83322216796875,-22.124092734360694,1.7753671665012836,14.50038532410264
1772556176667153200,5.843153076171875,-25.71136436164379,4.796398995241523,10.177365472877025
1772556176677085200,5.853085205078125,-30.733127525019643,5.854073818972706,3.8035318669855593
1772556176687016200,5.86301611328125,-37.09883276951313,6.387044969642162,0.41307475130930543
1772556176696947200,5.872947265625,-42.12941052298546,5.788980876815319,0.0073687386697158215
1772556176706878200,5.882878173828125,-43.10881669664383,4.280507574188709,0.7136015663251281
1772556176716809200,5.892809326171875,-40.81265104782581,2.5572955423384904,1.4564451553560793
1772556176726740200,5.902740234375,-35.780015777301784,0.9912936683941632,1.2101947779942304
1772556176736671200,5.912671142578125,-29.388381141781807,-0.22242855307385323,0.10692093585771507
1772556176746602200,5.922602294921875,-23.48076102606058,-1.0418612415928392,-1.091514403360337
1772556176756533200,5.932533203125,-18.830711698949337,-1.0615252155490218,-1.7308526097312569
1772556176766464300,5.94246435546875,-15.321798738110065,-0.2803475850138813,-2.0832843840293584
1772556176776395300,5.952395263671875,-12.265050868344305,1.0388793762378394,-2.375376986568421
1772556176786326300,5.962326171875,-8.784632180583477,2.8443013431325554,-2.0353459902904927
1772556176796258300,5.97225830078125,-4.762302079850435,4.667090770544111,-1.1206498238865286
1772556176806189300,5.982189208984375,-0.6839128227651119,6.2237371524482965,-0.42235162515528496
1772556176816120000,5.9921201171875,3.472426519963145,7.578295320126414,0.01992605895847082
1772556176826051300,6.00205126953125,7.680351088500022,8.938560175013542,0.19170579029098153
1772556176835982300,6.011982421875,11.493799953866004,10.279507165968418,0.02877148258462548
1772556176845913000,6.0219130859375,15.016921472799778,11.599158855438231,0.37875308725163337
1772556176855844400,6.03184423828125,18.134279586350917,12.293851430892943,0.9586505320079625
1772556176865775000,6.041775146484375,20.493269647872445,12.481857051491737,1.2926264660306275
1772556176875706000,6.0517060546875,22.211691522836684,12.707217127972841,2.0214276473142205
1772556176885637400,6.061637451171875,23.333786504030225,12.646443218058346,2.7001991616681216
1772556176895568100,6.071568115234375,23.892313536238667,12.333969506269693,3.374937621113658
1772556176905499100,6.0814990234375,24.11902619637251,11.923909864997864,3.958331091292202
1772556176915431200,6.09143115234375,24.045706108617782,11.252888087987898,4.173186432632804
1772556176925362200,6.101362060546875,23.919769698441026,10.540657517755031,4.0947576235622165
1772556176935293200,6.111293212890625,23.651326851558682,10.01862569425106,3.9365114736720916
1772556176945224200,6.12122412109375,23.064034328114985,9.539861934587359,3.5779365204438567
1772556176955155200,6.1311552734375,22.163456776499746,8.988271423643827,3.0692119222804903
1772556176965086200,6.141086181640625,21.058831985545158,8.361086450272799,2.48495277518332
1772556176975017200,6.151017333984375,19.87288850929737,7.671356465661526,2.0530738085523246
1772556176984948200,6.1609482421875,18.216755624985694,6.572947480481862,1.6359487589389086
1772556176994879200,6.170879150390625,16.207011547333,5.507563982069492,1.7603041835345328
1772556177004810000,6.18081005859375,14.322773671746253,4.960050511306524,2.211948465604335
1772556177014741200,6.1907412109375,12.30394729297161,4.69505020609349,2.455713236695528
1772556177024672300,6.20067236328125,10.041631306785344,4.044560052719712,2.0415613576740026
1772556177034604300,6.210604248046875,7.621893054312467,2.5442124811425804,0.6656136343561112
1772556177044535000,6.22053515625,5.015714530861377,0.8701961496159434,-0.9890434783145785
1772556177054466300,6.23046630859375,2.416846038162708,-0.4989560683429241,-2.0798973719395697
1772556177064397000,6.24039697265625,0.4913841717839241,-0.6670167791523038,-1.481988031283021
1772556177074328000,6.250328125,-1.3388941500782965,0.47574017405882474,1.3110048571556805
1772556177084259300,6.26025927734375,-4.5542450203478335,1.9799618105903267,6.185547414785623
1772556177094190000,6.270190185546875,-11.948543955516815,3.288479819366336,12.102498837953805
1772556177104121000,6.28012109375,-24.939262383294103,1.9091748945750295,15.789876853108405
1772556177114052400,6.29005224609375,-36.5761579719305,1.200824380645901,14.991708705610035
1772556177123983000,6.299983154296875,-41.4294666028738,3.4120389790177343,9.863727393484115
1772556177133914000,6.3099140625,-41.63365646555423,7.390890003508329,5.3649838956058025
1772556177143845400,6.319845458984375,-41.66548718957901,10.40742393630743,3.3125720580935476
1772556177153776000,6.329776123046875,-42.85441406555176,11.291907262212037,3.2694740901231762
1772556177163708200,6.339708251953125,-44.65917449979782,10.512020621335505,4.411621679264306
1772556177173639400,6.349639404296875,-45.88381800131798,7.275897596672177,4.391310128119588
1772556177183570200,6.359570068359375,-43.38383190765381,3.9088551127225157,3.2806846354454753
1772556177193501200,6.369501220703125,-36.76737612483501,1.9643088989064097,1.864131199364364
1772556177203432400,6.379432373046875,-28.78188590521812,0.733274673435837,0.7849903206910938
1772556177213363200,6.38936328125,-21.77549089361429,0.43843470841739324,0.2421050211854279
1772556177223294200,6.399294189453125,-16.170716245114804,1.1827525712519884,0.035181057365983724
1772556177233225200,6.40922509765625,-10.831574062252043,2.400518734348565,-0.08614153887238353
1772556177243156200,6.41915625,-5.306177486371993,3.802701845902204,-0.43805926270112394
1772556177253087200,6.429087158203125,-0.06158639534115791,5.553619630801677,-0.6425296228233724
1772556177263018200,6.439018310546875,4.600469011384249,7.486977803388237,-0.3113577133707702
1772556177272949200,6.44894921875,8.903925499483943,9.202073164278268,0.18096012253407387
1772556177282881300,6.45888134765625,12.717301299613714,11.112498789566756,0.6723970108859241
1772556177292812000,6.46881201171875,16.027288601911067,13.019524835544823,1.4407169864788651
1772556177302743300,6.478743408203125,19.436006327551603,14.647225406098364,1.5515969895601271
1772556177312674300,6.48867431640625,23.527616300737858,15.278364085531233,0.9417440400663762
1772556177322605000,6.49860498046875,27.71572499269247,15.460185464537142,0.502398171620816
1772556177332536300,6.508536376953125,30.343263115036486,15.403278751444816,0.6644201867878436
1772556177342467300,6.51846728515625,30.484165623676777,14.796480732542275,1.2037750471450388
1772556177352398000,6.528398193359375,29.18525978511572,13.93924314095974,2.025598503258079
1772556177362329300,6.538329345703125,27.599454236483574,13.333208507645129,3.025852673025429
1772556177372260000,6.548260009765625,26.02602886147499,12.77158117133379,3.6713632844209667
1772556177382191000,6.558191162109375,24.72110478553772,12.135055538165568,3.9144899037390943
1772556177392122400,6.568122314453125,23.688156406784056,11.587215904188156,3.679520579652488
1772556177402053000,6.57805322265625,22.5367722027421,11.25920676961541,3.2349434594899416
1772556177411985200,6.587985107421875,20.940328355717657,10.983646784204243,2.8051094426900147
1772556177421916200,6.597916259765625,19.105429972839353,10.595532432758807,2.109419380630553
1772556177431848000,6.607847900390625,17.36428890106678,9.926916547846794,1.343120389471203
1772556177441778700,6.61777880859375,15.558378127741813,8.780624698507784,0.5003852243632078
1772556177451709700,6.627709716796875,13.759576309639215,7.270992873495817,-0.10695070080831647
1772556177461640700,6.637640625,12.183872468304633,5.834159742712974,-0.1514668650135398
1772556177471571700,6.64757177734375,10.316687434327601,4.930392455145716,0.47255986352227625
1772556177481502700,6.657502685546875,8.020315449282526,4.815004034729301,1.1353503302164376
1772556177491433700,6.667433837890625,5.750830302119255,5.015037654513121,1.4237145598821341
1772556177501364700,6.67736474609375,2.7263597311019896,5.327471034291387,2.211303153438121
1772556177511295700,6.687295654296875,-2.16200852278471,4.922917589220404,4.6788089731276035
1772556177521226800,6.697226806640625,-9.749581958866118,3.747173435425758,9.42296223282516
1772556177531158800,6.70715869140625,-19.718123479521275,1.1177255339376628,14.932327126836777
1772556177541089800,6.71708984375,-27.487303190553188,-0.5053529297731817,17.0522360450387
1772556177551020500,6.7270205078125,-30.01883709964752,1.4522563253641128,14.32800163552761
1772556177560951800,6.736951904296875,-30.66109104733467,2.4837217720836398,8.236488595223426
1772556177570882800,6.7468828125,-32.52765415002107,1.783207796999067,3.0529519846141335
1772556177580813600,6.7568134765625,-35.73839314258098,1.6880679454937577,1.810987199806422
1772556177590744800,6.766744873046875,-37.41423142883777,2.9816829841703174,3.60723889503479
1772556177600675800,6.77667578125,-34.93248475621939,5.357559298563003,6.065978786075115
1772556177610606600,6.786606689453125,-30.1706841961503,7.1149360503435135,7.034184935805201
1772556177620537900,6.796537841796875,-26.278710660123824,7.0722419869989155,6.093889121785759
1772556177630468600,6.806468505859375,-24.044817635345456,5.511269266328215,3.8318241877511143
1772556177640399600,6.816399658203125,-21.90119817121029,3.508072710622847,2.0158115609981118
1772556177650331000,6.826330810546875,-19.311344175094366,1.6891558868609369,2.1780404969140887
1772556177660263000,6.836262939453125,-15.964318058735131,0.10703691778704523,3.400926341111958
1772556177670193700,6.846193603515625,-12.446767033410072,-1.0702629410170017,3.522401387965679
1772556177680124700,6.856124755859375,-9.398934876027703,-2.1255945626229047,2.0312661736309527
1772556177690055700,6.8660556640625,-6.659553166267275,-2.5193074647277593,0.10615073693650774
1772556177699986700,6.875986572265625,-4.333350106582046,-2.0747689230099318,-1.5667361065030097
1772556177709917700,6.885917724609375,-2.5173633449226616,-0.948269861638546,-2.4690792064860463
1772556177719848700,6.8958486328125,-0.9170429487258195,0.7790703560575842,-2.9579496418833733
1772556177729779700,6.90577978515625,0.8720072906911372,2.65778245396018,-3.1575463315546513
1772556177739710700,6.915710693359375,3.15275559014678,4.1966283907577395,-2.859831212958693
1772556177749641700,6.925641845703125,5.545775931563973,5.5072752282559865,-2.237771181385964
1772556177759572700,6.93557275390625,7.949300715860724,6.687700233343243,-1.8661022071763873
1772556177769503500,6.94550341796875,10.833508829706906,7.851995356884598,-1.7166447822891175
1772556177779435500,6.955435546875,14.290260226154327,9.13515476025939,-1.3712050588354467
1772556177789366800,6.96536669921875,17.436472678267954,10.09949079055786,-0.7454870892770588
1772556177799297800,6.9752978515625,19.462972660410404,10.47497362396717,0.05630524006783962
1772556177809228500,6.985228515625,20.402446636652947,10.588303066027164,0.8468678809985518
1772556177819159800,6.995159912109375,20.689559112691878,10.673289041656256,1.6580409098900855
1772556177829090600,7.005090576171875,20.694950742602348,10.535740519618987,2.409921499596536
1772556177839021600,7.015021484375,20.792215185046196,10.14578024804592,3.157675218631327
1772556177848952800,7.024952880859375,20.926309182715414,9.544837384912372,3.937071737903356
1772556177858883600,7.034883544921875,20.960880145359038,8.91448839455247,4.493482216349244
1772556177868814600,7.044814697265625,20.962657091903687,8.294071600142122,4.476019624894857
1772556177878745900,7.054745849609375,20.796386333250997,7.763842441657185,4.102081682839989
1772556177888676600,7.064676513671875,20.288661267518997,7.450687177345157,3.656097910749912
1772556177898607600,7.074607666015625,19.531134927010534,7.307377023041248,3.101184392863512
1772556177908539600,7.08453955078125,18.57036564928293,7.307500357159972,2.3497774120181796
1772556177918470700,7.094470703125,17.24470624383092,7.245654434099793,1.4217862221680582
1772556177928401700,7.104401611328125,15.348098716014622,6.950674877947568,0.33073855953663583
1772556177938332700,7.114332763671875,13.084181139850616,6.290125979635119,-1.0083886686451733
1772556177948263700,7.124263671875,10.577282490319012,5.170500603425502,-1.6190860330738126
1772556177958194700,7.134194580078125,8.285952006572485,4.077988859590888,-1.3571363476030527
1772556177968125700,7.144125732421875,6.257198108023405,3.3892087230503556,-0.6917974385350942
1772556177978056700,7.154056640625,3.630407589176297,3.1052240236431357,0.5113215558540076
1772556177987987700,7.16398779296875,-1.8858353739112614,3.6971401152342556,2.8433126243561504
1772556177997918700,7.173918701171875,-11.22138586526513,4.845152504755556,5.631754425361752
1772556178007849700,7.183849609375,-21.361623676753045,5.372369914203882,7.015028399914502
1772556178017780700,7.19378076171875,-29.12695489566326,4.47624612712711,5.512729402008652
1772556178027712800,7.203712646484375,-33.27334742939472,3.9626384330973026,2.1128170602448284
1772556178037643800,7.213643798828125,-32.777492834198476,2.4372255399771032,-0.8756864175952971
1772556178047574800,7.22357470703125,-31.380543970036506,0.5261207002528011,-1.7139013287998734
1772556178057505500,7.233505615234375,-30.854712754249572,0.23105350234974173,0.6297577464684844
1772556178067436800,7.243436767578125,-30.48954790123701,0.19020802601389586,3.4550320253089066
1772556178077367800,7.253367919921875,-29.01955250556469,-0.46109899670071897,4.44542867179811
1772556178087298600,7.263298583984375,-25.9096669198513,-1.1148575772859155,4.172693096157908
1772556178097229800,7.273229736328125,-22.081792054247856,-1.6423336376704274,3.3709207866877318
1772556178107160800,7.283160888671875,-18.91981855390072,-2.701419935634732,3.3626457102954386
1772556178117091600,7.293091552734375,-16.513269453346727,-3.831787070611119,4.629889751657843
1772556178127022800,7.30302294921875,-15.033276395273207,-4.91492425237894,6.639478931009769
1772556178136953900,7.312953857421875,-13.740857580643892,-6.11104776185751,7.696866754493117
1772556178146884600,7.322884521484375,-11.56163722629547,-6.95839348950088,6.991638171976804
1772556178156816600,7.332816650390625,-8.741481021121144,-7.079594103327393,5.220815078645944
1772556178166748000,7.342747802734375,-6.228478209495544,-6.308844124108552,2.82155876544863
1772556178176678700,7.3526787109375,-4.665695809054374,-4.577803298328817,0.4543631856396794
1772556178186609700,7.362609619140625,-3.941557358884811,-2.562014095292985,-1.7355208938032387
1772556178196540700,7.372540771484375,-3.2949721039950846,-0.40451545114815235,-3.534135957162082
1772556178206471700,7.3824716796875,-2.1685364632487296,2.0314549742013215,-4.5678763630762695
1772556178216402700,7.392402587890625,-0.6924544411391019,4.436922124737501,-4.6740731767773624
1772556178226333700,7.402333740234375,1.1958669043689965,6.595304273718595,-3.9372634610831736
1772556178236264700,7.4122646484375,3.3801568170666694,8.42607827014327,-2.590960788314044
1772556178246195700,7.42219580078125,5.610892839118838,10.239432345211505,-1.1575960642941296
1772556178256126700,7.432126708984375,7.902415046045184,11.805927628695963,-0.1438937994107604
1772556178266057700,7.4420576171875,10.181512071162462,12.971913189542294,0.6255025732420385
1772556178275988700,7.45198876953125,12.652322339224815,13.871550829958915,1.1071923033550382
1772556178285920500,7.46192041015625,15.480398231482505,14.626418764913081,0.7548648662142455
1772556178295851800,7.471851806640625,18.776603676664827,14.864949288612603,-0.09361161902472376
1772556178305782800,7.48178271484375,21.588474284052847,14.630035786366461,-0.6171748898796737
1772556178315713500,7.491713623046875,23.339589637351036,13.77959618436098,-0.6541913459792733
1772556178325644800,7.501644775390625,24.226117620825764,12.5544383035779,-0.024271102425456045
1772556178335575800,7.511575927734375,24.364034391653536,11.355097585618495,0.8942010023206471
1772556178345506600,7.521506591796875,23.78192073215246,10.186376462328433,1.6567624143868684
1772556178355437800,7.531437744140625,22.461121041691303,9.181467014101147,2.6535031692057847
1772556178365368600,7.54136865234375,20.9138074285388,8.512031629499793,4.151047081539034
1772556178375299600,7.551299560546875,19.354405902707576,8.23634889449179,6.232015151450038
1772556178385230800,7.56123095703125,17.804497012364862,7.777809007689356,8.077962751609087
1772556178395161600,7.57116162109375,16.53543919957876,7.260740944072603,8.814873005068302
1772556178405092600,7.581092529296875,15.712737499326467,6.669376641145348,7.962962745988369
1772556178415024600,7.591024658203125,15.154899033904075,5.964309386670589,6.1269888428330415
1772556178424955600,7.60095556640625,14.427286185622215,5.223548303002119,3.981789416030049
1772556178434886700,7.61088671875,13.303168758690356,4.253523121151328,1.569747563278675
1772556178444817700,7.620817626953125,11.42642562277317,3.0578830112755297,-0.536288020132482
1772556178454748700,7.630748779296875,7.782378215301036,2.935001020233333,-1.7550559076175092
1772556178464679400,7.640679443359375,2.3237369618326422,3.9599534317970275,-1.6825749010354278
1772556178474610700,7.650610595703125,-4.478913592770695,5.419658904123306,1.0587285705678164
1772556178484541700,7.660541748046875,-13.886895698606967,6.027986616811156,7.01977062600553
1772556178494472400,7.670472412109375,-24.939150155091284,4.684732810218632,12.29120939195156
1772556178504403700,7.68040380859375,-32.727263699173925,3.246438374711573,13.173435294318198
1772556178514334700,7.690334716796875,-35.47177634208202,3.205982445682585,9.090556909120082
1772556178524265500,7.700265380859375,-34.76616255964041,3.581188507977128,3.121972913870215
1772556178534197500,7.710197509765625,-34.05007648302316,3.352116425235569,-2.025889595159143
1772556178544128800,7.720128662109375,-36.02710253242254,3.4721602702423926,-2.848849507956207
1772556178554059500,7.7300595703125,-40.0822184659481,3.530077913942933,-0.08211206416059284
1772556178563990500,7.739990478515625,-42.353380606412884,2.9321298487111926,3.009500673161447
1772556178573921800,7.749921875,-40.37427365908623,1.8800635125115512,5.16265398157835
1772556178583852500,7.7598525390625,-34.43259929807186,1.00151293765679,6.278501008293032
1772556178593783600,7.769783447265625,-26.180966909730433,0.047345104020833965,5.630329945516586
1772556178603714800,7.77971484375,-17.537651079285144,-1.1499436498448252,3.9255008348360656
1772556178613645600,7.7896455078125,-10.514831002581118,-2.2561218077212573,2.8529297630071637
1772556178623576600,7.79957666015625,-5.526383833351731,-2.8390529210850595,2.630587573042512
1772556178633507600,7.809507568359375,-2.113880159431696,-2.656898072341084,2.545100369893014
1772556178643438600,7.8194384765625,0.1872960110247135,-1.9267554133206606,2.1629680154666304
1772556178653369600,7.82936962890625,1.86386845677495,-0.7871841044083238,1.4489992232643067
1772556178663301600,7.839301513671875,3.45399128408432,0.6668444913253188,0.7156884556017815
1772556178673232600,7.849232666015625,5.188983770099282,2.385119066773355,0.22717034077346324
1772556178683163600,7.85916357421875,6.989537400305271,4.191773936463893,-0.20573007785975933
1772556178693094400,7.869094482421875,8.798532111120224,5.915831479227543,-0.6045486325405538
1772556178703025700,7.879025634765625,10.677753619849682,7.6489049798786635,-1.0872748660944402
1772556178712956700,7.888956787109375,12.53765317299366,9.103461983400583,-1.87575310196653
1772556178722887400,7.898887451171875,13.906055157107113,9.920857393938302,-2.421809944180399
1772556178732818700,7.908818603515625,14.539123927819729,10.302822575104235,-2.1666826520755884
1772556178742749700,7.918749755859375,14.80210500216484,10.449785406696796,-1.3571663043498992
1772556178752680400,7.928680419921875,15.048395638471842,10.602069725573063,-0.42517537733912464
1772556178762611700,7.93861181640625,15.138277569448947,10.622918452334403,0.48778234789967534
1772556178772542500,7.94854248046875,14.912399606573581,10.328707542467116,1.356930595897883
1772556178782474500,7.958474609375,14.580124631249904,9.78928677726686,2.1259566739335654
1772556178792405500,7.968405517578125,14.45303086773157,9.080276338124275,2.9024960502088066
1772556178802336800,7.978336669921875,14.564496854007244,8.382553601193427,3.7284555832132695
1772556178812267500,7.988267578125,14.739204601615667,7.756631195104122,4.54245609061569
1772556178822198500,7.998198486328125,14.89677416741848,7.129234040287137,5.246236520150304
1772556178832129500,8.008129638671875,14.911992779338359,6.411914037960767,5.74434912340641
1772556178842060500,8.018060546875,14.801436309123039,5.543294636142254,5.958672842088341
1772556178851991600,8.027991455078125,14.627587808692454,4.542266997784376,5.864972814127802
1772556178861922600,8.037922607421875,14.60786370204687,3.6268589567840097,5.665001445925236
1772556178871853600,8.047853515625,14.331127658593655,3.1355308991014956,5.440767158603668
1772556178881784600,8.05778466796875,13.618186309742926,2.7934342024654146,4.768273847736418
1772556178891715600,8.067715576171874,12.760506819611788,1.944399498821795,3.8554762814953922
1772556178901646600,8.077646484375,11.611522662448882,0.6883870455697179,3.4166099401950834
1772556178911578600,8.08757861328125,10.182692805379629,-0.972237012681365,3.816839092326164
1772556178921509600,8.097509521484374,8.274017238628863,-2.600765558491647,4.5151381678402425
1772556178931440600,8.107440673828124,4.029602722084522,-2.9237232548937198,4.616318030162155
1772556178941371600,8.11737158203125,-3.5374651015847918,-2.729087402500212,3.753523973496258
1772556178951302700,8.127302734375,-12.772373783016205,-1.2368312213115393,5.147573901346326
1772556178961233700,8.137233642578124,-19.230466219305992,2.1717180158942937,8.051899505069851
1772556178971164700,8.14716455078125,-22.0423204600811,4.921749129962921,7.7944778184175485
1772556178981095700,8.157095703125,-25.82115861531496,5.857439496013522,5.842798976242542
1772556178991026700,8.167026611328126,-26.74696413168907,6.415345181453228,3.1491219098195433
1772556179000957400,8.17695751953125,-26.434586281490326,7.597077762007713,1.6135076484195887
1772556179010888700,8.186888671875,-26.46225053348541,7.148356673908233,1.6743148760817943
1772556179020819700,8.19681982421875,-26.126393608021736,5.5451990084588525,2.0423570380963385
1772556179030750500,8.20675048828125,-24.49239773671627,4.000397085866332,2.0176212407685816
1772556179040682500,8.2166826171875,-22.64667167035341,2.201482455039024,0.9554227290678768
1772556179050613800,8.22661376953125,-19.804377867650985,0.3453645393256098,-0.09316679786667227
1772556179060544500,8.23654443359375,-15.979114645850657,-0.6749353702571242,-0.37059922608621415
1772556179070475500,8.2464755859375,-12.544391541337966,-1.284560210083425,-0.7789643383998424
1772556179080406800,8.25640673828125,-9.961230320858954,-1.7102634106889365,-1.1184439113400877
1772556179090337500,8.266337646484375,-7.83324740179479,-1.7999278995230792,-1.0806715223066508
1772556179100268500,8.2762685546875,-5.677556976115703,-1.632022963797301,-0.9119659377224743
1772556179110199800,8.28619970703125,-3.429527873957157,-1.3800406917199493,-0.8052925925508141
1772556179120130600,8.296130615234375,-1.234979017573595,-1.1076245572924612,-0.7910044664140791
1772556179130061600,8.3060615234375,0.7919324679791927,-0.6877282163348049,-0.7805962504506111
1772556179139992600,8.31599267578125,2.5974118641495703,-0.2449151649690233,-0.7833090165406466
1772556179149923600,8.325923583984375,4.260563687312603,0.18539543810039757,-0.595481711650826
1772556179159854600,8.3358544921875,5.427454672566056,0.9701526076227426,-0.3875829479824751
1772556179169785600,8.34578564453125,6.490338170856237,1.6681465627104044,-0.34205066553726793
1772556179179717600,8.355717529296875,7.1996443780750035,2.2150439474016426,-0.4214588410340249
1772556179189648600,8.365648681640625,7.402220960339903,2.548537943126261,-0.45998840511031447
1772556179199579400,8.375579345703125,7.223323944348096,2.624947521328926,-0.5681682093221694
1772556179209510700,8.3855107421875,6.998340884485841,2.5556173799932003,-0.773570151206106
1772556179219441700,8.395441650390625,6.876800663441419,2.4753110866129395,-0.9480826685033739
1772556179229372400,8.405372314453125,6.762162476870417,2.330751809030771,-1.1495375532619654
1772556179239303700,8.4153037109375,6.548615003257989,2.162745458757132,-1.2137937523342668
1772556179249234700,8.425234619140625,6.287075359892845,1.9897763715095818,-0.8730538040693849
1772556179259165400,8.43516552734375,5.738954570886492,1.9054266479574142,-0.057867009491845964
1772556179269096700,8.4450966796875,4.894934188273549,1.767332036344707,0.7311372230157256
1772556179279027700,8.45502783203125,3.74496920337975,1.6576280913054942,1.4008219062030314
1772556179288958500,8.46495849609375,2.749759895911813,1.5958552334815264,1.9841168844431638
1772556179298890500,8.474890380859375,2.156502911105752,1.6644792723745108,2.183235727469623
1772556179308821800,8.48482177734375,1.8327005805730818,1.9779101387575269,2.011065389384329
1772556179318752500,8.49475244140625,2.069371155619621,2.3064199163287875,1.8029603990867733
1772556179328683500,8.50468359375,2.844092961078882,2.1398525128170847,1.4313395018026231
1772556179338614800,8.51461474609375,3.560674712258577,1.4470426823690532,0.9267030497357249
1772556179348545500,8.524545654296874,4.038588577094674,0.8781348336607218,0.7297802554488182
1772556179358476500,8.5344765625,4.453837019181251,0.4793184709370136,0.7643161467790603
1772556179368407600,8.544407470703124,4.50693674120605,-0.12343845588117837,0.8102274186044931
1772556179378338600,8.554338623046876,3.74495108320117,-0.8092208719104528,0.5706056656021624
1772556179388269600,8.56426953125,2.5148925708949563,-1.3103542842924594,-0.09407236840426922
1772556179398200600,8.57420068359375,1.2883844445466994,-1.3316992701381445,-0.5885080367133021
1772556179408131600,8.584131591796876,0.19066987137198446,-0.7436755098104476,-0.5498864104393869
1772556179418062600,8.5940625,-0.6862474031925201,0.08450666767954826,-0.18900581061728297
1772556179427993600,8.60399365234375,-1.6200754825025796,0.7320072838485241,-0.08623385679833591
1772556179437924600,8.613924560546875,-2.6622669058978556,1.0290198071330785,-0.329358211094141
1772556179447855400,8.62385546875,-3.5982524555027484,1.1285013411045073,-0.5692012786969542
1772556179457786600,8.63378662109375,-4.12869554899931,1.13466980060637,-0.640493367755413
1772556179467717600,8.643717529296875,-4.123307426220179,0.9444231230825185,-0.5933247162800281
1772556179477648400,8.6536484375,-3.666038874527812,0.5350672461658715,-0.40073184095621106
1772556179487579600,8.66357958984375,-2.9131536378234624,-0.02854045030772686,-0.31094767126515505
1772556179497510700,8.6735107421875,-2.004167154303193,-0.4097235411852598,-0.1901867640301585
1772556179507441400,8.68344140625,-1.0735083526790141,-0.6286313727870583,0.07666589105129241
1772556179517372700,8.69337255859375,-0.4030255048513412,-0.8522793846532702,0.34130496173650027
1772556179527303700,8.7033037109375,-0.10924538761675358,-0.9668503512069583,0.30439854188263415
1772556179537234400,8.713234375,0.02213993561565876,-0.9294888810619711,0.04684212293475866
1772556179547165700,8.723165771484375,0.11741466554701327,-0.7676128502368926,-0.31166254153624173
1772556179557097700,8.73309765625,0.23381986179053782,-0.5997244272544979,-0.6260866567403077
1772556179567028500,8.743028564453125,0.4352683168083429,-0.4865732643708586,-0.8741210679747163
1772556179576959500,8.75295947265625,0.6838146230876445,-0.33362843575924633,-0.9579324468664825
1772556179586890800,8.762890869140625,0.988123148599267,-0.17965747897028922,-0.7619577470846474
1772556179596821500,8.772821533203125,1.27314654340446,-0.10938771869689226,-0.4912259124822914
1772556179606752500,8.78275244140625,1.4151491222411394,-0.2026812116831541,-0.261235107460618
1772556179616683500,8.79268359375,1.4548802441269157,-0.3939499257311225,0.012756459590047597
1772556179626614500,8.802614501953125,1.3018512443631887,-0.45801820101588964,0.34799189215451476
1772556179636545500,8.812545654296875,0.8854156383186578,-0.4009785091936588,0.5492766810432076
1772556179646476500,8.8224765625,0.3100865243911743,-0.22994009774774313,0.6485679531395435
1772556179656407600,8.832407470703124,-0.3273357653558254,0.044184009641408915,0.7497900471679866
1772556179666338600,8.842338623046874,-0.9454518816083669,0.30192075359225273,0.8712658246740699
1772556179676269600,8.85226953125,-1.4425848261773586,0.4250257397353649,0.9055769673377275
1772556179686201600,8.86220166015625,-1.7270517561435699,0.5572603732734919,0.7993556037172674
1772556179696132600,8.872132568359374,-1.7198387560248374,0.5533855776667594,0.5850394838199019
1772556179706063600,8.882063720703124,-0.9033201283216475,0.20148411085307597,0.34948812206164
1772556179715994600,8.89199462890625,0.09698504098057746,0.07422785024940967,0.21111337833330035
1772556179725925600,8.901925537109374,0.6446569171756505,-0.15687106214463709,0.0800303990483284
1772556179735856600,8.911856689453124,1.1161199984371661,-0.4765753097087145,0.06129807991907
1772556179745787600,8.92178759765625,1.5779250245153904,-0.6167547647714614,0.17437120913043616
1772556179755718400,8.931718505859376,1.8978911378860472,-0.667422291213274,0.182622320125252
1772556179765649700,8.941649658203126,2.0492355455636977,-0.895033069230616,0.29190467875152826
1772556179775580700,8.95158056640625,2.2166981443494556,-0.7316177000090479,0.39362624673470853
1772556179785511400,8.961511474609376,2.353422490522265,-0.8083093100234866,0.07680646856576204
