time,seconds_elapsed,z,y,x
1772555780686096100,0.07609619140625,0.44301533699035645,0.4335254430770874,0.0808391347527504
1772555780696027100,0.086027099609375,0.40977609157562256,0.3724725842475891,0.10637414455413818
1772555780705959200,0.095959228515625,0.3633665144443512,0.26238495111465454,0.11041123420000076
1772555780715890200,0.10589013671875,0.31104955077171326,0.14871805906295776,0.10569985955953598
1772555780725822200,0.115822265625,0.2578049898147583,0.07482519745826721,0.11674372106790543
1772555780735753000,0.1257529296875,0.19748824834823608,0.0634266585111618,0.13146574795246124
1772555780745685200,0.135685302734375,0.12928122282028198,0.10633604228496552,0.14065231382846832
1772555780755616500,0.145616455078125,0.06293686479330063,0.1666950136423111,0.14049653708934784
1772555780765548500,0.155548583984375,0.019454102963209152,0.2007661610841751,0.13185405731201172
1772555780775479600,0.1654794921875,-0.006318327505141497,0.19945818185806274,0.1326366364955902
1772555780785411300,0.175411376953125,-0.025054996833205223,0.16013528406620026,0.14103998243808746
1772555780795342300,0.18534228515625,-0.039612285792827606,0.12517733871936798,0.12699398398399353
1772555780805274400,0.1952744140625,-0.0629197359085083,0.11492523550987244,0.08115485310554504
1772555780815205400,0.205205322265625,-0.08318163454532623,0.1342213898897171,0.032265856862068176
1772555780825137400,0.215137451171875,-0.10524112731218338,0.16862784326076508,-0.0015669427812099457
1772555780835068400,0.225068359375,-0.12092524766921997,0.22415265440940857,-0.025442693382501602
1772555780845000400,0.23500048828125,-0.11833425611257553,0.30607840418815613,-0.03730254992842674
1772555780854931500,0.244931396484375,-0.11265324056148529,0.3847922384738922,-0.03230234980583191
1772555780864863500,0.254863525390625,-0.09326782822608948,0.44604307413101196,-0.020476317033171654
1772555780874794500,0.26479443359375,-0.05038725584745407,0.48295021057128906,-0.002694949507713318
1772555780884726500,0.2747265625,0.009226805530488491,0.4763149619102478,0.015629462897777557
1772555780894657300,0.2846572265625,0.07499680668115616,0.4202475845813751,0.038698986172676086
1772555780904589300,0.29458935546875,0.13819867372512817,0.3230925500392914,0.05606252700090408
1772555780914520600,0.3045205078125,0.19047269225120544,0.21074846386909485,0.06484703719615936
1772555780924452600,0.31445263671875,0.23293013870716095,0.11123118549585342,0.044516198337078094
1772555780934383400,0.32438330078125,0.26408278942108154,0.03333485499024391,0.0051808166317641735
1772555780944315400,0.3343154296875,0.2875676155090332,-0.03870205581188202,-0.044130004942417145
1772555780954246400,0.344246337890625,0.30031314492225647,-0.11256301403045654,-0.07847470790147781
1772555780964178700,0.3541787109375,0.2917383015155792,-0.17795826494693756,-0.10312865674495697
1772555780974109400,0.364109375,0.2693915367126465,-0.2002454251050949,-0.11411574482917786
1772555780984041500,0.37404150390625,0.24770969152450562,-0.18296124041080475,-0.11618742346763611
1772555780993972500,0.383972412109375,0.22365260124206543,-0.1579558551311493,-0.1129496619105339
1772555781003904300,0.393904296875,0.21379783749580383,-0.127902090549469,-0.10947157442569733
1772555781013835500,0.40383544921875,0.21202950179576874,-0.08654678612947464,-0.11552400141954422
1772555781023767600,0.413767578125,0.21138820052146912,-0.032705120742321014,-0.1221344992518425
1772555781033698600,0.423698486328125,0.21114368736743927,0.025882255285978317,-0.1411212682723999
1772555781043630300,0.43363037109375,0.19607952237129211,0.08237722516059875,-0.14778262376785278
1772555781053561300,0.443561279296875,0.16580472886562347,0.1256430447101593,-0.15010476112365723
1772555781063493400,0.453493408203125,0.13655203580856323,0.14939498901367188,-0.1363958716392517
1772555781073424400,0.46342431640625,0.10504602640867233,0.15108530223369598,-0.11094564944505692
1772555781083356400,0.4733564453125,0.08114761859178543,0.1286012977361679,-0.08028414100408554
1772555781093287400,0.483287353515625,0.04984757676720619,0.08425039052963257,-0.054637059569358826
1772555781103219500,0.493219482421875,0.01342032477259636,0.022330567240715027,-0.02968963421881199
1772555781113150500,0.503150390625,-0.029634352773427963,-0.05222787335515022,-0.005467986688017845
1772555781123082500,0.51308251953125,-0.07019482553005219,-0.12156274169683456,0.01135147362947464
1772555781133013500,0.523013427734375,-0.10383649170398712,-0.1724294275045395,0.018337968736886978
1772555781142945500,0.532945556640625,-0.1358460932970047,-0.1970554143190384,0.011901107616722584
1772555781152876300,0.542876220703125,-0.15939633548259735,-0.190578430891037,0.003556803334504366
1772555781162808300,0.552808349609375,-0.18228965997695923,-0.17724372446537018,-0.006405816413462162
1772555781172739600,0.562739501953125,-0.20909260213375092,-0.1897362470626831,-0.0010519754141569138
1772555781182671600,0.572671630859375,-0.23610079288482666,-0.2051098793745041,0.019407227635383606
1772555781192602400,0.582602294921875,-0.2590899169445038,-0.21593332290649414,0.04033825173974037
1772555781202534400,0.592534423828125,-0.2893791198730469,-0.21494050323963165,0.06356634199619293
1772555781212465400,0.60246533203125,-0.31346455216407776,-0.19887901842594147,0.08353201299905777
1772555781222397400,0.6123974609375,-0.33722686767578125,-0.16662973165512085,0.09694795310497284
1772555781232328400,0.622328369140625,-0.3587206304073334,-0.14352107048034668,0.11479955166578293
1772555781242260500,0.632260498046875,-0.376083642244339,-0.12386588752269745,0.13527792692184448
1772555781252191500,0.64219140625,-0.3804037272930145,-0.10982267558574677,0.15151554346084595
1772555781262123300,0.652123291015625,-0.383129745721817,-0.10472991317510605,0.1623207926750183
1772555781272054500,0.662054443359375,-0.3819196820259094,-0.09942494332790375,0.16412530839443207
1772555781281986600,0.671986572265625,-0.38571763038635254,-0.10173790156841278,0.161085844039917
1772555781291917600,0.68191748046875,-0.3887476623058319,-0.12410053610801697,0.16217634081840515
1772555781301849300,0.691849365234375,-0.39557626843452454,-0.14983785152435303,0.17325349152088165
1772555781311780400,0.7017802734375,-0.4024921655654907,-0.16430959105491638,0.18478406965732574
1772555781321712400,0.71171240234375,-0.403522789478302,-0.16425873339176178,0.18901556730270386
1772555781331643400,0.721643310546875,-0.40365806221961975,-0.15275388956069946,0.18369457125663757
1772555781341575400,0.731575439453125,-0.40885069966316223,-0.13617543876171112,0.17332342267036438
1772555781351506400,0.74150634765625,-0.4056110680103302,-0.1242825835943222,0.15499204397201538
1772555781361438500,0.7514384765625,-0.3961541950702667,-0.13301509618759155,0.1379515379667282
1772555781371369500,0.761369384765625,-0.38195839524269104,-0.16673412919044495,0.134909987449646
1772555781381301500,0.771301513671875,-0.35604557394981384,-0.2081044763326645,0.12719853222370148
1772555781391232500,0.781232421875,-0.3299402892589569,-0.23833394050598145,0.11270597577095032
1772555781401164500,0.79116455078125,-0.2994832992553711,-0.25863733887672424,0.09400845319032669
1772555781411096300,0.801096435546875,-0.2651093602180481,-0.2594585120677948,0.07062523066997528
1772555781421027300,0.81102734375,-0.2287002056837082,-0.24015992879867554,0.03385869413614273
1772555781430959400,0.82095947265625,-0.19562947750091553,-0.21287977695465088,0.009952363558113575
1772555781440890600,0.830890625,-0.16525505483150482,-0.18205475807189941,-0.013987856917083263
1772555781450822400,0.840822509765625,-0.1419745534658432,-0.15010733902454376,-0.03623579442501068
1772555781460753400,0.85075341796875,-0.1269865483045578,-0.12160433083772659,-0.049254391342401505
1772555781470685400,0.860685546875,-0.10927356034517288,-0.09738992154598236,-0.054115038365125656
1772555781480616400,0.870616455078125,-0.0987764447927475,-0.07993556559085846,-0.04552607610821724
1772555781490548500,0.880548583984375,-0.09663122892379761,-0.07568006962537766,-0.03518659994006157
1772555781500479500,0.8904794921875,-0.10134156048297882,-0.09613021463155746,-0.010932126082479954
1772555781510411500,0.90041162109375,-0.115305095911026,-0.1349555253982544,0.023249920457601547
1772555781520342300,0.91034228515625,-0.137141153216362,-0.17507871985435486,0.06052778288722038
1772555781530274300,0.9202744140625,-0.16793878376483917,-0.20024694502353668,0.08388873934745789
1772555781540205600,0.93020556640625,-0.20033694803714752,-0.20340785384178162,0.09222283959388733
1772555781550137600,0.9401376953125,-0.22911539673805237,-0.18116331100463867,0.08155284076929092
1772555781560068400,0.950068359375,-0.25419971346855164,-0.14322738349437714,0.05955140292644501
1772555781570000400,0.96000048828125,-0.27576473355293274,-0.08714671432971954,0.03181760385632515
1772555781579931400,0.969931396484375,-0.2907860279083252,-0.013912448659539223,-0.004776627756655216
1772555781589863400,0.979863525390625,-0.29707902669906616,0.0838417187333107,-0.04231317341327667
1772555781599794400,0.98979443359375,-0.3069622814655304,0.20693781971931458,-0.08664468675851822
1772555781609726500,0.9997265625,-0.30695852637290955,0.32873305678367615,-0.11647728085517883
1772555781619657500,1.009657470703125,-0.3061600923538208,0.4272913336753845,-0.12762421369552612
1772555781629589500,1.019589599609375,-0.30677416920661926,0.4546273350715637,-0.10282988846302032
1772555781639520500,1.0295205078125,-0.3153873682022095,0.40553197264671326,-0.04383420944213867
1772555781649452500,1.03945263671875,-0.3350316286087036,0.28599420189857483,0.052891284227371216
1772555781659383600,1.049383544921875,-0.3629349172115326,0.12696488201618195,0.16479092836380005
1772555781669315300,1.0593154296875,-0.39325013756752014,-0.03773551806807518,0.2658127546310425
1772555781679246300,1.069246337890625,-0.4255681335926056,-0.17298229038715363,0.34274083375930786
1772555781689178400,1.079178466796875,-0.4529995918273926,-0.27299070358276367,0.3899354636669159
1772555781699109600,1.089109619140625,-0.4718036353588104,-0.3203020393848419,0.39801523089408875
1772555781709041400,1.09904150390625,-0.48258236050605774,-0.3329905867576599,0.37670066952705383
1772555781718972400,1.108972412109375,-0.48289287090301514,-0.3142105042934418,0.3261754512786865
1772555781728904400,1.118904541015625,-0.47246065735816956,-0.26321732997894287,0.2594047486782074
1772555781738835500,1.12883544921875,-0.45423611998558044,-0.18602532148361206,0.18778221309185028
1772555781748767500,1.138767578125,-0.43372130393981934,-0.10150724649429321,0.13395410776138306
1772555781758698500,1.148698486328125,-0.41898417472839355,-0.019356191158294678,0.09529832750558853
1772555781768630500,1.158630615234375,-0.40664035081863403,0.06428708136081696,0.07273154705762863
1772555781778561500,1.1685615234375,-0.3864607810974121,0.15621593594551086,0.052112553268671036
1772555781788493600,1.17849365234375,-0.35290056467056274,0.2388816773891449,0.033540114760398865
1772555781798424600,1.188424560546875,-0.31465303897857666,0.29741984605789185,0.016200006008148193
1772555781808356600,1.198356689453125,-0.2686561942100525,0.32774263620376587,-0.011856887489557266
1772555781818287600,1.20828759765625,-0.22256594896316528,0.3353222608566284,-0.04379378259181976
1772555781828219600,1.2182197265625,-0.17177456617355347,0.3172500729560852,-0.08619765192270279
1772555781838150400,1.228150390625,-0.12643717229366302,0.2832859754562378,-0.12717410922050476
1772555781848082400,1.23808251953125,-0.08674369752407074,0.23093098402023315,-0.17665717005729675
1772555781858013700,1.248013671875,-0.04821920767426491,0.1503080427646637,-0.21179944276809692
1772555781867945700,1.25794580078125,-0.013543477281928062,0.05106883496046066,-0.2416313737630844
1772555781877876500,1.26787646484375,0.026569588109850883,-0.05658279359340668,-0.25314897298812866
1772555781887808500,1.27780859375,0.06329737603664398,-0.17622336745262146,-0.250411719083786
1772555781897739800,1.28773974609375,0.09471601247787476,-0.30096450448036194,-0.23734760284423828
1772555781907671800,1.297671875,0.11845096200704575,-0.39913833141326904,-0.22431527078151703
1772555781917602600,1.3076025390625,0.14434488117694855,-0.46890223026275635,-0.21208229660987854
1772555781927534600,1.31753466796875,0.16451866924762726,-0.513729989528656,-0.20194506645202637
1772555781937465600,1.327465576171875,0.18210911750793457,-0.5307384729385376,-0.20298023521900177
1772555781947397400,1.3373974609375,0.19850759208202362,-0.5229675769805908,-0.20681902766227722
1772555781957328600,1.34732861328125,0.21978811919689178,-0.49040427803993225,-0.23096458613872528
1772555781967260700,1.3572607421875,0.2521716058254242,-0.4188259541988373,-0.26533401012420654
1772555781977191700,1.367191650390625,0.28188687562942505,-0.31818002462387085,-0.3063080608844757
1772555781987123500,1.37712353515625,0.3126171827316284,-0.2158319056034088,-0.3525400757789612
1772555781997054500,1.387054443359375,0.3362135887145996,-0.1155492439866066,-0.3955003321170807
1772555782006986500,1.396986572265625,0.3457382321357727,-0.02276335470378399,-0.4259660840034485
1772555782016917500,1.40691748046875,0.3380419611930847,0.06747733056545258,-0.4366898238658905
1772555782026849500,1.416849609375,0.322270005941391,0.1542976200580597,-0.4318903684616089
1772555782036780500,1.426780517578125,0.3055320382118225,0.2376154065132141,-0.4229828715324402
1772555782046712600,1.436712646484375,0.2796940207481384,0.3167741298675537,-0.4135129749774933
1772555782056643600,1.4466435546875,0.2539958357810974,0.37473195791244507,-0.4102625846862793
1772555782066575600,1.45657568359375,0.22845441102981567,0.41613784432411194,-0.42010048031806946
1772555782076506600,1.466506591796875,0.2007274478673935,0.43423670530319214,-0.43068069219589233
1772555782086438700,1.476438720703125,0.18593625724315643,0.4467569887638092,-0.44453126192092896
1772555782096369400,1.486369384765625,0.17438453435897827,0.43940454721450806,-0.4513252377510071
1772555782106301400,1.496301513671875,0.153745636343956,0.40827998518943787,-0.4454047381877899
1772555782116232700,1.506232666015625,0.11649999767541885,0.3559930622577667,-0.4267019033432007
1772555782126164700,1.516164794921875,0.06122633442282677,0.29453298449516296,-0.39045536518096924
1772555782136095500,1.526095458984375,-0.0024354655761271715,0.24706774950027466,-0.34734436869621277
1772555782146027500,1.536027587890625,-0.06049548089504242,0.21301180124282837,-0.2929694950580597
1772555782155958500,1.54595849609375,-0.10942360758781433,0.19038665294647217,-0.22850048542022705
1772555782165890800,1.555890869140625,-0.14583182334899902,0.16412809491157532,-0.15577176213264465
1772555782175821600,1.565821533203125,-0.16321107745170593,0.13659659028053284,-0.08270607143640518
1772555782185753600,1.575753662109375,-0.15989437699317932,0.09925241023302078,-0.01594115048646927
1772555782195684600,1.5856845703125,-0.14508026838302612,0.06038304418325424,0.036494892090559006
1772555782205616400,1.595616455078125,-0.12280604988336563,0.01092115044593811,0.08142392337322235
1772555782215547600,1.605547607421875,-0.10810939967632294,-0.04295752942562103,0.12107066810131073
1772555782225479700,1.615479736328125,-0.08278752863407135,-0.08984913676977158,0.1559266597032547
1772555782235410700,1.62541064453125,-0.054007284343242645,-0.11411825567483902,0.1738811582326889
1772555782245342500,1.635342529296875,-0.023485181853175163,-0.12162405252456665,0.18337379395961761
1772555782255273500,1.6452734375,-0.00034204544499516487,-0.1055377647280693,0.18704335391521454
1772555782265205500,1.65520556640625,0.023362914100289345,-0.08138718456029892,0.17921683192253113
1772555782275136500,1.665136474609375,0.04443943873047829,-0.04942445456981659,0.16926033794879913
1772555782285068500,1.675068603515625,0.061422865837812424,-0.021377556025981903,0.15815076231956482
1772555782294999600,1.68499951171875,0.07827028632164001,0.01528751291334629,0.14359153807163239
1772555782304931600,1.694931640625,0.10038257390260696,0.051890142261981964,0.11771855503320694
1772555782314862600,1.704862548828125,0.12282503396272659,0.08631575852632523,0.09003206342458725
1772555782324794600,1.714794677734375,0.14163391292095184,0.09800533950328827,0.06915729492902756
1772555782334725600,1.7247255859375,0.1515991985797882,0.0943048745393753,0.04925868660211563
1772555782344657700,1.73465771484375,0.16982799768447876,0.08381041884422302,0.02512272447347641
1772555782354588400,1.74458837890625,0.19096018373966217,0.05869868025183678,0.005760745145380497
1772555782364520400,1.7545205078125,0.19932973384857178,0.021654795855283737,-0.02202785387635231
1772555782374451700,1.76445166015625,0.19168460369110107,-0.028737004846334457,-0.04092217981815338
1772555782384383700,1.7743837890625,0.16012054681777954,-0.07893626391887665,-0.052731700241565704
1772555782394314500,1.784314453125,0.11442256718873978,-0.1324910968542099,-0.06510475277900696
1772555782404246500,1.79424658203125,0.07868364453315735,-0.15997940301895142,-0.06760192662477493
1772555782414177500,1.804177490234375,0.05548936873674393,-0.1559324711561203,-0.0689351037144661
1772555782424109600,1.814109619140625,0.052349310368299484,-0.11154550313949585,-0.05400937795639038
1772555782434040600,1.82404052734375,0.02344469353556633,-0.03848114609718323,-0.0288558192551136
1772555782443972600,1.83397265625,0.0032330346293747425,0.05308092385530472,0.004773181863129139
1772555782453903600,1.843903564453125,0.012513084337115288,0.12883853912353516,0.027053985744714737
1772555782463835400,1.85383544921875,0.033648233860731125,0.18694128096103668,0.03325171396136284
1772555782473766700,1.8637666015625,0.046418625861406326,0.22100524604320526,0.014821043238043785
1772555782483698700,1.87369873046875,0.052773524075746536,0.23244498670101166,-0.0011034365743398666
1772555782493629700,1.883629638671875,0.05713897943496704,0.212488055229187,-0.008431656286120415
1772555782503561500,1.8935615234375,0.06363613158464432,0.16816796362400055,-0.0053733522072434425
1772555782513492500,1.903492431640625,0.060429420322179794,0.11090999841690063,0.00027893949300050735
1772555782523424500,1.913424560546875,0.05078040435910225,0.03536108881235123,0.007454496808350086
1772555782533355500,1.92335546875,0.033976923674345016,-0.025529690086841583,0.013019438832998276
1772555782543287600,1.93328759765625,0.024851981550455093,-0.08151810616254807,0.01796550676226616
1772555782553218600,1.943218505859375,0.013982554897665977,-0.13010269403457642,0.023343760520219803
1772555782563150600,1.953150634765625,-0.0055717406794428825,-0.16693948209285736,0.022859062999486923
1772555782573081600,1.96308154296875,-0.03361109644174576,-0.18979980051517487,0.024266809225082397
1772555782583013600,1.973013671875,-0.06149515509605408,-0.2012804001569748,0.02619176357984543
1772555782592944600,1.982944580078125,-0.07928267121315002,-0.17540645599365234,0.04300137236714363
1772555782602876700,1.992876708984375,-0.08922485262155533,-0.12146805226802826,0.07195721566677094
1772555782612807400,2.002807373046875,-0.08508257567882538,0.01205858588218689,0.09375704824924469
1772555782622739500,2.012739501953125,-0.0728008896112442,0.02649039775133133,0.11341769993305206
1772555782632670700,2.022670654296875,-0.07065863907337189,0.02969205006957054,0.10692358016967773
1772555782642601500,2.0326015625,-0.06617031991481781,0.07874725013971329,0.07731593400239944
1772555782652533500,2.042533447265625,-0.06679137051105499,0.08793089538812637,0.060413919389247894
1772555782662464500,2.052464599609375,-0.05295538157224655,0.06543870270252228,0.04941696673631668
1772555782672396500,2.062396484375,-0.0341649167239666,0.051999859511852264,0.03540634363889694
1772555782682328600,2.07232861328125,-0.008588972501456738,0.033149197697639465,0.02150437794625759
1772555782692259600,2.082259521484375,0.012661721557378769,0.010006861761212349,-0.010749432258307934
1772555782702190600,2.092190673828125,0.026574935764074326,-0.018623847514390945,-0.03999318182468414
1772555782712122600,2.10212255859375,0.021857943385839462,-0.05247075855731964,-0.08075392246246338
1772555782722053600,2.1120537109375,0.009151037782430649,-0.0798608735203743,-0.128897026181221
1772555782731985700,2.121985595703125,-0.004801795817911625,-0.09836744517087936,-0.16578073799610138
1772555782741916700,2.131916748046875,0.00491973664611578,-0.08344901353120804,-0.15980251133441925
1772555782751848000,2.141847900390625,0.014755855314433575,-0.033662013709545135,-0.11234179139137268
1772555782761779000,2.151779052734375,0.027846716344356537,0.03468858450651169,-0.04050031304359436
1772555782771711000,2.1617109375,0.03983467072248459,0.09084852784872055,0.03578273952007294
1772555782781642000,2.17164208984375,0.050302937626838684,0.13869816064834595,0.10069950670003891
1772555782791573800,2.18157373046875,0.06699509918689728,0.16753911972045898,0.1551281362771988
1772555782801504800,2.1915048828125,0.07001233845949173,0.1775345504283905,0.1868818700313568
1772555782811436800,2.201436767578125,0.0609823614358902,0.16306880116462708,0.19283616542816162
1772555782821368000,2.2113681640625,0.053320955485105515,0.12762148678302765,0.17154698073863983
1772555782831299800,2.2212998046875,0.05528503656387329,0.09029408544301987,0.13479003310203552
1772555782841230800,2.23123095703125,0.054474249482154846,0.06836886703968048,0.10272404551506042
1772555782851163000,2.241162841796875,0.044295378029346466,0.06565511226654053,0.0818062424659729
1772555782861093600,2.25109375,0.03285176679491997,0.0740886852145195,0.07397855073213577
1772555782871026000,2.26102587890625,0.019232630729675293,0.080075204372406,0.06547827273607254
1772555782880957000,2.27095703125,0.01510637253522873,0.07952781021595001,0.05895927548408508
1772555782890889000,2.280888916015625,0.010106021538376808,0.06805863976478577,0.060355305671691895
1772555782900819700,2.29081982421875,0.0042686015367507935,0.050287336111068726,0.05184248834848404
1772555782910751700,2.300751708984375,0.001905844546854496,0.026945263147354126,0.03766408562660217
1772555782920683000,2.31068310546875,-0.006520312745124102,-0.007687365636229515,0.01618453487753868
1772555782930615000,2.320614990234375,-0.00872461125254631,-0.045890942215919495,0.001240207813680172
1772555782940545800,2.3305458984375,-0.008724246174097061,-0.07647478580474854,-0.009032223373651505
1772555782950477800,2.340477783203125,-0.008680038154125214,-0.09679870307445526,-0.01966436207294464
1772555782960408800,2.350408935546875,-0.01045217178761959,-0.09675022959709167,-0.03450405225157738
1772555782970340900,2.3603408203125,-0.013737980276346207,-0.09680482745170593,-0.05003667250275612
1772555782980271900,2.37027197265625,-0.01131347008049488,-0.09198413789272308,-0.06834499537944794
1772555782990204000,2.380203857421875,-0.009841008111834526,-0.08239942044019699,-0.07913532853126526
1772555783000135000,2.390135009765625,-0.0024129722733050585,-0.07664274424314499,-0.08946628123521805
1772555783010067000,2.40006689453125,0.001627043355256319,-0.06463401764631271,-0.09347300976514816
1772555783019998000,2.409998046875,-0.0031919467728585005,-0.06306621432304382,-0.09101277589797974
1772555783029930000,2.419929931640625,0.001082426868379116,-0.054414935410022736,-0.08906520903110504
1772555783039861000,2.429861083984375,0.00039898185059428215,-0.05193452537059784,-0.08439939469099045
1772555783049792800,2.439792724609375,-0.000092371366918087,-0.05665178596973419,-0.0745084136724472
1772555783059723800,2.449723876953125,0.0034305956214666367,-0.052076540887355804,-0.055669814348220825
1772555783069655800,2.45965576171875,0.006060733459889889,-0.03828802704811096,-0.03618958592414856
1772555783079587000,2.469587158203125,0.0094379261136055,-0.023480821400880814,-0.014301310293376446
1772555783089518800,2.479518798828125,0.011933574452996254,-0.00949869304895401,0.0003149164840579033
1772555783099449900,2.489449951171875,0.004991238471120596,0.0018507745116949081,0.016806939616799355
1772555783109382000,2.4993818359375,0.00339174410328269,0.032097890973091125,0.044433772563934326
1772555783119312600,2.509312744140625,-0.008077152073383331,0.057377010583877563,0.05545539781451225
1772555783129245000,2.519244873046875,-0.01775401271879673,0.08343631029129028,0.0553818941116333
1772555783139176000,2.529176025390625,-0.0319734662771225,0.08749280124902725,0.029899151995778084
1772555783149108000,2.53910791015625,-0.04143913835287094,0.07255806028842926,-0.0044260649010539055
1772555783159038700,2.549038818359375,-0.049733083695173264,0.05501381680369377,-0.043544065207242966
1772555783168970800,2.558970703125,-0.05507298558950424,0.03477885574102402,-0.0745840072631836
1772555783178902000,2.568902099609375,-0.06130065396428108,0.020986007526516914,-0.1083228588104248
1772555783188834000,2.578833984375,-0.06099998205900192,0.0092284195125103,-0.13069073855876923
1772555783198764800,2.588764892578125,-0.0552946962416172,0.00040044449269771576,-0.13436658680438995
1772555783208696800,2.59869677734375,-0.05233219638466835,0.005846608430147171,-0.1321183443069458
1772555783218627800,2.6086279296875,-0.049665775150060654,0.02304130606353283,-0.12916459143161774
1772555783228560000,2.618559814453125,-0.05065753683447838,0.038707882165908813,-0.12928816676139832
1772555783238491000,2.628490966796875,-0.05055742710828781,0.03457528352737427,-0.12105356156826019
1772555783248423000,2.6384228515625,-0.0510551743209362,0.002628270536661148,-0.11545586585998535
1772555783258354000,2.64835400390625,-0.06009472534060478,-0.048611290752887726,-0.11386367678642273
1772555783268285700,2.65828564453125,-0.06801071017980576,-0.09946195781230927,-0.12375865131616592
1772555783278217000,2.668217041015625,-0.07462158054113388,-0.14814835786819458,-0.14824381470680237
1772555783288149000,2.67814892578125,-0.07456805557012558,-0.1950620710849762,-0.17436330020427704
1772555783298080000,2.688080078125,-0.06641820073127747,-0.23962725698947906,-0.20472824573516846
1772555783308011800,2.69801171875,-0.04456590488553047,-0.25531113147735596,-0.21968881785869598
1772555783317942800,2.70794287109375,-0.01913723349571228,-0.2276892513036728,-0.1788530945777893
1772555783327874800,2.717874755859375,0.007505029905587435,-0.1500738114118576,-0.1794712245464325
1772555783337806000,2.72780615234375,0.029666636139154434,-0.03465871140360832,-0.17418637871742249
1772555783347737900,2.73773779296875,0.02452140860259533,0.0835409015417099,-0.15473997592926025
1772555783357668900,2.7476689453125,-0.027120426297187805,0.21339957416057587,-0.10796365886926651
1772555783367601000,2.757600830078125,-0.0562886968255043,0.2861509919166565,-0.05038692057132721
1772555783377531600,2.76753173828125,-0.11539241671562195,0.24932241439819336,-0.0012153536081314087
1772555783387464000,2.7774638671875,-0.15738248825073242,0.05056164413690567,0.03163500502705574
1772555783397395000,2.78739501953125,-0.1821659952402115,-0.0665053129196167,0.018182527273893356
1772555783407327000,2.797326904296875,-0.15644492208957672,-0.13368114829063416,-0.03609509393572807
1772555783417257700,2.8072578125,-0.10431388765573502,-0.207608163356781,-0.09335336834192276
1772555783427189800,2.817189697265625,-0.05127118155360222,-0.2588798701763153,-0.14023378491401672
1772555783437121000,2.82712109375,-0.022649215534329414,-0.27258506417274475,-0.16810114681720734
1772555783447051800,2.8370517578125,-0.014477305114269257,-0.2744588553905487,-0.17439766228199005
1772555783456983800,2.84698388671875,-0.015756037086248398,-0.25820493698120117,-0.15863876044750214
1772555783466915800,2.856915771484375,-0.020487142726778984,-0.22755166888237,-0.11875338852405548
1772555783476846800,2.866846923828125,-0.029460599645972252,-0.18927863240242004,-0.06241138279438019
1772555783486777900,2.87677783203125,-0.035262562334537506,-0.15012910962104797,-0.0036655114963650703
1772555783496710000,2.8867099609375,-0.049334317445755005,-0.1303490698337555,0.06060449033975601
1772555783506641000,2.896640869140625,-0.06659959256649017,-0.1288377344608307,0.11786484718322754
1772555783516573000,2.906572998046875,-0.08182074129581451,-0.14036595821380615,0.16583457589149475
1772555783526503700,2.916503662109375,-0.0921945571899414,-0.14624810218811035,0.1920912116765976
1772555783536436000,2.92643603515625,-0.0982901081442833,-0.13961690664291382,0.19455164670944214
1772555783546367000,2.936366943359375,-0.10257859528064728,-0.12176281213760376,0.18720743060112
1772555783556299000,2.946299072265625,-0.09314066916704178,-0.10172906517982483,0.16690920293331146
1772555783566229800,2.956229736328125,-0.07972366362810135,-0.07166890799999237,0.1356239914894104
1772555783576161800,2.966161865234375,-0.06808458268642426,-0.038060612976551056,0.10019036382436752
1772555783586093000,2.976093017578125,-0.06298249959945679,-0.009702738374471664,0.06356923282146454
1772555783596024800,2.98602490234375,-0.06787057220935822,0.009408082813024521,0.03176358714699745
1772555783605955800,2.995955810546875,-0.07973495125770569,0.034585606306791306,0.009855091571807861
1772555783615888000,3.005887939453125,-0.09501288831233978,0.05893678963184357,-0.00971643440425396
1772555783625819000,3.01581884765625,-0.12588131427764893,0.07389070838689804,-0.006534755229949951
1772555783635750700,3.025750732421875,-0.16735750436782837,0.06878894567489624,0.009924713522195816
1772555783645682000,3.035681884765625,-0.2054353803396225,0.05550137162208557,0.03385241702198982
1772555783655614000,3.045614013671875,-0.2333172857761383,0.040413837879896164,0.06307825446128845
1772555783665545000,3.055544921875,-0.2429904192686081,0.029335886240005493,0.08896950632333755
1772555783675476700,3.065476806640625,-0.2453230619430542,0.019463514909148216,0.11356592923402786
1772555783685408000,3.075407958984375,-0.24819740653038025,0.005096025764942169,0.12977100908756256
1772555783695340000,3.085340087890625,-0.24239443242549896,-0.011063246056437492,0.14158369600772858
1772555783705270800,3.095270751953125,-0.23280146718025208,-0.021976348012685776,0.14666633307933807
1772555783715202800,3.105202880859375,-0.22245770692825317,-0.01934698037803173,0.1524672657251358
1772555783725133800,3.1151337890625,-0.2127251774072647,-0.02000105381011963,0.15260787308216095
1772555783735065900,3.12506591796875,-0.19658105075359344,-0.017596596851944923,0.15351003408432007
1772555783744996900,3.134996826171875,-0.18239706754684448,-0.0185976792126894,0.15474575757980347
1772555783754929700,3.1449296875,-0.16836045682430267,-0.03363209217786789,0.16626518964767456
1772555783764860700,3.154860595703125,-0.15429550409317017,-0.05608680099248886,0.17510847747325897
1772555783774792700,3.164792724609375,-0.14237862825393677,-0.08451255410909653,0.18358160555362701
1772555783784723700,3.1747236328125,-0.13542723655700684,-0.09941747039556503,0.18520213663578033
1772555783794655700,3.18465576171875,-0.13268597424030304,-0.10680901259183884,0.1821957379579544
1772555783804586800,3.194586669921875,-0.12590743601322174,-0.11187754571437836,0.1755269169807434
1772555783814518800,3.204518798828125,-0.11834967881441116,-0.11233125627040863,0.1659923940896988
1772555783824449800,3.21444970703125,-0.10505198687314987,-0.10086287558078766,0.14845681190490723
1772555783834381800,3.2243818359375,-0.09440822899341583,-0.10293025523424149,0.12952499091625214
1772555783844312600,3.2343125,-0.0846746414899826,-0.11446387320756912,0.1155569851398468
1772555783854244600,3.24424462890625,-0.0746360719203949,-0.12073686718940735,0.10189180821180344
1772555783864175900,3.25417578125,-0.06356051564216614,-0.12755349278450012,0.08905110508203506
1772555783874107600,3.264107666015625,-0.05399804934859276,-0.1364438384771347,0.08638827502727509
1772555783884038700,3.27403857421875,-0.03746834397315979,-0.13709205389022827,0.08187315613031387
1772555783893970700,3.283970703125,-0.021609731018543243,-0.12992911040782928,0.06978227198123932
1772555783903901700,3.293901611328125,0.0009349929168820381,-0.10385622829198837,0.05331994593143463
1772555783913833700,3.303833740234375,0.023400593549013138,-0.07186278700828552,0.025181099772453308
1772555783923764700,3.3137646484375,0.04251090809702873,-0.03772585093975067,0.002927192486822605
1772555783933696800,3.32369677734375,0.05693473666906357,-0.009962278418242931,-0.012069782242178917
1772555783943627500,3.33362744140625,0.06803452223539352,0.01317952573299408,-0.018624087795615196
1772555783953559600,3.3435595703125,0.07329731434583664,0.033131010830402374,-0.025941206142306328
1772555783963490800,3.35349072265625,0.07494287937879562,0.047763481736183167,-0.029126079753041267
1772555783973422800,3.3634228515625,0.07234393805265427,0.04961015284061432,-0.03506571054458618
1772555783983353600,3.373353515625,0.06678059697151184,0.03328177332878113,-0.030880818143486977
1772555783993284600,3.38328466796875,0.06361698359251022,-0.00019377842545509338,-0.029314234852790833
1772555784003216600,3.393216552734375,0.06539011746644974,-0.03387051820755005,-0.02430696040391922
1772555784013147600,3.403147705078125,0.06441067904233932,-0.0767260417342186,-0.016583219170570374
1772555784023079700,3.41307958984375,0.05922017619013786,-0.11637545377016068,-0.010928529314696789
1772555784033010700,3.4230107421875,0.051913581788539886,-0.12673966586589813,-0.011132237501442432
1772555784042942700,3.432942626953125,0.04379626736044884,-0.12540888786315918,-0.01602073386311531
1772555784052873700,3.442873779296875,0.03782111406326294,-0.10963249951601028,-0.01862468384206295
1772555784062805800,3.4528056640625,0.03518245369195938,-0.08196758478879929,-0.021883593872189522
1772555784072736800,3.46273681640625,0.028424648568034172,-0.05244407802820206,-0.026819517835974693
1772555784082668800,3.472668701171875,0.024041084572672844,-0.029803480952978134,-0.02463625930249691
1772555784092599600,3.482599609375,0.022870734333992004,-0.011147681623697281,-0.019160468131303787
1772555784102531600,3.492531494140625,0.016873029991984367,0.00528961606323719,-0.014731100760400295
1772555784112462800,3.502462890625,0.01234460063278675,0.013616912066936493,-0.014042804948985577
1772555784122395000,3.512394775390625,0.006266467273235321,0.018854020163416862,-0.009902122430503368
1772555784132325600,3.52232568359375,0.0014547137543559074,0.018584396690130234,-0.011581622064113617
1772555784142257700,3.532257568359375,-0.0009511858224868774,0.02175302430987358,-0.009163472801446915
1772555784152188700,3.542188720703125,0.0061446609906852245,0.026340264827013016,-0.011004582978785038
1772555784162120700,3.55212060546875,0.01407209224998951,0.0383995920419693,-0.016796424984931946
1772555784172051700,3.5620517578125,0.023154810070991516,0.0444437600672245,-0.02191248908638954
1772555784181983700,3.571983642578125,0.03256562352180481,0.04438357055187225,-0.03954208269715309
1772555784191914800,3.581914794921875,0.03758769482374191,0.023809906095266342,-0.048721663653850555
1772555784201846500,3.591846435546875,0.0427963063120842,-0.0007154121994972229,-0.059970855712890625
1772555784211777800,3.60177783203125,0.049559611827135086,-0.014574245549738407,-0.07260838150978088
1772555784221709800,3.611709716796875,0.05319429561495781,-0.017601460218429565,-0.07916881144046783
1772555784231640800,3.621640869140625,0.04996996745467186,-0.020218579098582268,-0.08331084996461868
1772555784241572600,3.631572509765625,0.050845615565776825,-0.01877967268228531,-0.08301710337400436
1772555784251503600,3.641503662109375,0.04943368211388588,-0.012580573558807373,-0.07930754125118256
1772555784261435600,3.651435546875,0.04690474644303322,-0.011173359118402004,-0.07354259490966797
1772555784271366700,3.66136669921875,0.04394969344139099,-0.018661562353372574,-0.06716687232255936
1772555784281298700,3.671298583984375,0.03732508048415184,-0.025886984542012215,-0.061203792691230774
1772555784291229700,3.681229736328125,0.030603161081671715,-0.02591724321246147,-0.05800923705101013
1772555784301161700,3.69116162109375,0.025306666269898415,-0.017274485900998116,-0.057383134961128235
1772555784311092700,3.7010927734375,0.022107306867837906,0.00006652437150478363,-0.061804160475730896
1772555784321024800,3.711024658203125,0.02326977625489235,0.017865493893623352,-0.06527425348758698
1772555784330955800,3.720955810546875,0.022282864898443222,0.020017873495817184,-0.06403612345457077
1772555784340887800,3.7308876953125,0.023759055882692337,0.01361190527677536,-0.0680345967411995
1772555784350818600,3.740818603515625,0.03327004611492157,0.006813539192080498,-0.06927787512540817
1772555784360750600,3.75075048828125,0.0398176945745945,0.01272629015147686,-0.08099818229675293
1772555784370681900,3.760681884765625,0.042906105518341064,0.02245747111737728,-0.08848568052053452
1772555784380614000,3.77061376953125,0.04336630180478096,0.014104200527071953,-0.08798687160015106
1772555784390544600,3.780544677734375,0.037073999643325806,-0.0014835614711046219,-0.08125122636556625
1772555784400475600,3.7904755859375,0.029890120029449463,-0.0145903080701828,-0.07344922423362732
1772555784410407700,3.80040771484375,0.030199958011507988,-0.027377720922231674,-0.07544202357530594
1772555784420338700,3.810338623046875,0.03129131719470024,-0.03470567613840103,-0.09236960858106613
1772555784430270700,3.820270751953125,0.023272935301065445,-0.05743248760700226,-0.12091117352247238
1772555784440201700,3.83020166015625,0.018996965140104294,-0.0751427710056305,-0.14945121109485626
1772555784450133800,3.8401337890625,0.00653333542868495,-0.09396842122077942,-0.17465272545814514
1772555784460064800,3.850064697265625,-0.012193746864795685,-0.11015059053897858,-0.17700135707855225
1772555784469996800,3.859996826171875,-0.03883402794599533,-0.12412957102060318,-0.17859746515750885
1772555784479927800,3.869927734375,-0.06013558804988861,-0.1386595070362091,-0.16847558319568634
1772555784489859800,3.87985986328125,-0.06638552993535995,-0.14106278121471405,-0.15795744955539703
1772555784499790600,3.88979052734375,-0.06898317486047745,-0.1282670944929123,-0.14747978746891022
1772555784509722600,3.89972265625,-0.06533403694629669,-0.08993535488843918,-0.14340856671333313
1772555784519654000,3.90965380859375,-0.05609367415308952,-0.03634749352931976,-0.1284290850162506
1772555784529585700,3.919585693359375,-0.04498928040266037,0.015055499970912933,-0.1085224524140358
1772555784539516700,3.9295166015625,-0.02596818283200264,0.05432620644569397,-0.07899598777294159
1772555784549448700,3.93944873046875,-0.00296507659368217,0.0678492859005928,-0.05037682503461838
1772555784559379700,3.949379638671875,0.009935008361935616,0.0723676085472107,-0.028264064341783524
1772555784569311700,3.959311767578125,0.00502021936699748,0.0759466215968132,-0.01777011901140213
1772555784579242800,3.96924267578125,-0.006959211081266403,0.06943998485803604,-0.015100833028554916
1772555784589174800,3.9791748046875,-0.027116481214761734,0.06584998220205307,-0.022414714097976685
1772555784599105500,3.98910546875,-0.051182400435209274,0.06928412616252899,-0.030704602599143982
1772555784609037600,3.99903759765625,-0.08062205463647842,0.059144407510757446,-0.038063716143369675
1772555784618968800,4.00896875,-0.10742703080177307,0.05821096897125244,-0.04278576374053955
1772555784628900900,4.01890087890625,-0.12895599007606506,0.06763984262943268,-0.044431962072849274
1772555784638831600,4.02883154296875,-0.14181186258792877,0.0759103000164032,-0.04374459385871887
1772555784648763600,4.038763671875,-0.15506036579608917,0.09456261247396469,-0.030716588720679283
1772555784658694700,4.048694580078125,-0.157782644033432,0.11334162950515747,-0.02383311651647091
1772555784668626700,4.058626708984375,-0.15308746695518494,0.12289807945489883,-0.014035077765583992
1772555784678557700,4.0685576171875,-0.14238528907299042,0.11120041459798813,0.00044373050332069397
1772555784688489700,4.07848974609375,-0.12616313993930817,0.09437952935695648,0.015765849500894547
1772555784698420700,4.088420654296875,-0.11140897125005722,0.07846023142337799,0.0342005155980587
1772555784708352800,4.098352783203125,-0.09280730783939362,0.06668677926063538,0.046169959008693695
1772555784718283800,4.10828369140625,-0.08020549267530441,0.053140610456466675,0.05154821276664734
1772555784728215800,4.1182158203125,-0.07092168927192688,0.03555699437856674,0.047533921897411346
1772555784738146800,4.128146728515625,-0.07201278954744339,0.021542644128203392,0.03118024580180645
1772555784748077600,4.13807763671875,-0.0721791535615921,0.0052370913326740265,0.015066700056195259
1772555784758009000,4.148009033203125,-0.06696441769599915,-0.0029814234003424644,-0.0012568794190883636
1772555784767941000,4.157941162109375,-0.06164577230811119,-0.007074217312037945,-0.009702024050056934
1772555784777872100,4.1678720703125,-0.050598450005054474,-0.015358245931565762,-0.01485231053084135
1772555784787803100,4.17780322265625,-0.04706550016999245,-0.016932770609855652,-0.01601836085319519
1772555784797735200,4.187735107421875,-0.03625919297337532,-0.011051179841160774,-0.015560563653707504
1772555784807666200,4.197666259765625,-0.025915123522281647,0.00041018426418304443,-0.01875857636332512
1772555784817598200,4.20759814453125,-0.02305702120065689,0.009603416547179222,-0.02021026611328125
1772555784827529200,4.217529296875,-0.027204755693674088,0.02091512270271778,-0.025986460968852043
1772555784837461200,4.227461181640625,-0.031589385122060776,0.030131788924336433,-0.03337859362363815
1772555784847392300,4.237392333984375,-0.046481527388095856,0.028449151664972305,-0.026104459539055824
1772555784857324000,4.247323974609375,-0.056771714240312576,0.029666215181350708,-0.010462647303938866
1772555784867255300,4.25725537109375,-0.06190478056669235,0.029250647872686386,0.007828050293028355
1772555784877187300,4.267187255859375,-0.05735663324594498,0.02843465656042099,0.030716322362422943
1772555784887118000,4.2771181640625,-0.04926391690969467,0.04447757452726364,0.05277162790298462
1772555784897050000,4.287050048828125,-0.039910897612571716,0.058818697929382324,0.07245878130197525
1772555784906981000,4.296981201171875,-0.028549250215291977,0.06431472301483154,0.0852169618010521
1772555784916913200,4.3069130859375,-0.01790512725710869,0.06404601037502289,0.09535348415374756
1772555784926844200,4.31684423828125,-0.0066317166201770306,0.051000796258449554,0.103727787733078
1772555784936776200,4.326776123046875,0.0012866598553955555,0.03540053591132164,0.1102922186255455
1772555784946707200,4.336707275390625,0.013037968426942825,0.026167377829551697,0.11119614541530609
1772555784956639200,4.34663916015625,0.024039220064878464,0.015761341899633408,0.11127950251102448
1772555784966570200,4.3565703125,0.030742939561605453,-0.0012907572090625763,0.10720499604940414
1772555784976502300,4.366502197265625,0.03903549164533615,-0.024085285142064095,0.09639415889978409
1772555784986433300,4.376433349609375,0.0450504831969738,-0.042509544640779495,0.08417078107595444
1772555784996365300,4.386365234375,0.04492717981338501,-0.06971000880002975,0.06046704947948456
1772555785006296000,4.396296142578125,0.0481097586452961,-0.08131030946969986,0.044768426567316055
1772555785016228000,4.40622802734375,0.050272777676582336,-0.08750268816947937,0.027961749583482742
1772555785026159400,4.416159423828125,0.054062142968177795,-0.08882403373718262,0.01185532845556736
1772555785036091100,4.426091064453125,0.05667230859398842,-0.0819339007139206,-0.006001166999340057
1772555785046022100,4.436022216796875,0.06166190654039383,-0.06514543294906616,-0.028471119701862335
1772555785055954200,4.4459541015625,0.0593542754650116,-0.04318154603242874,-0.04237627983093262
1772555785065885200,4.45588525390625,0.049041103571653366,-0.02057076245546341,-0.04745389148592949
1772555785075816200,4.465816162109375,0.029907889664173126,0.01390545628964901,-0.0539189837872982
1772555785085748200,4.475748291015625,0.01222200132906437,0.060111403465270996,-0.04927034303545952
1772555785095680300,4.48568017578125,-0.010537372902035713,0.09514821320772171,-0.03901105001568794
1772555785105611000,4.495611083984375,-0.03664283826947212,0.11482927203178406,-0.025717809796333313
1772555785115542300,4.505542236328125,-0.0554727204144001,0.11330567300319672,-0.0021869195625185966
1772555785125474300,4.515474365234375,-0.06890587508678436,0.10055849701166153,0.030408885329961777
1772555785135405300,4.5254052734375,-0.07701147347688675,0.07176706194877625,0.06806997954845428
1772555785145337000,4.535337158203125,-0.0798366367816925,0.03960094973444939,0.10100511461496353
1772555785155268000,4.54526806640625,-0.07995861023664474,0.01916465163230896,0.12927404046058655
1772555785165200100,4.5552001953125,-0.07651473581790924,0.020516132935881615,0.14225128293037415
1772555785175131100,4.565131103515625,-0.07666227966547012,0.03665035963058472,0.14347314834594727
1772555785185063200,4.575063232421875,-0.07530654221773148,0.0561487153172493,0.13430093228816986
1772555785194994200,4.584994140625,-0.07330092042684555,0.06257518380880356,0.11901678144931793
1772555785204926200,4.59492626953125,-0.07663318514823914,0.05591641366481781,0.1149551272392273
1772555785214857200,4.604857177734375,-0.07749578356742859,0.0444062277674675,0.10875635594129562
1772555785224789200,4.614789306640625,-0.07551039755344391,0.03691748529672623,0.10800482332706451
1772555785234720300,4.62472021484375,-0.0703718289732933,0.03079141303896904,0.10538853704929352
1772555785244652300,4.63465234375,-0.06187335029244423,0.018136873841285706,0.10492660105228424
1772555785254583000,4.6445830078125,-0.04964384809136391,0.010411575436592102,0.10403203964233398
1772555785264515000,4.65451513671875,-0.03452650457620621,0.017835428938269615,0.09393490850925446
1772555785274446300,4.6644462890625,-0.022475169971585274,0.02081524021923542,0.08742507547140121
1772555785284378400,4.67437841796875,-0.014403345063328743,0.016010183840990067,0.07966174185276031
1772555785294309000,4.68430908203125,-0.007262877654284239,0.01766160875558853,0.05771142989397049
1772555785304241200,4.6942412109375,0.0036426479928195477,0.02777687832713127,0.02973419427871704
1772555785314172200,4.704172119140625,0.016054576262831688,0.02506817877292633,-0.002873550169169903
1772555785324104200,4.714104248046875,0.019875168800354004,0.015958543866872787,-0.022871490567922592
1772555785334035200,4.72403515625,0.021052286028862,0.007539760321378708,-0.03315688669681549
1772555785343967200,4.73396728515625,0.021532652899622917,0.009860841557383537,-0.04190978407859802
1772555785353898200,4.743898193359375,0.014896322041749954,0.018997084349393845,-0.04509466141462326
1772555785363830000,4.753830078125,0.0025581372901797295,0.020173026248812675,-0.038546618074178696
1772555785373761300,4.76376123046875,-0.009676158428192139,0.024160580709576607,-0.032583534717559814
1772555785383693300,4.773693359375,-0.014534526504576206,0.029340654611587524,-0.025763440877199173
1772555785393624300,4.783624267578125,-0.016706867143511772,0.027949418872594833,-0.022454198449850082
1772555785403556000,4.79355615234375,-0.012836881913244724,0.00994524173438549,-0.02071187272667885
1772555785413487000,4.803487060546875,-0.008676225319504738,-0.020229438319802284,-0.015611919574439526
1772555785423418400,4.81341845703125,0.0007857196033000946,-0.0471436083316803,-0.021527066826820374
1772555785433350100,4.82335009765625,0.01345650665462017,-0.06714394688606262,-0.03560107573866844
1772555785443281200,4.83328125,0.018487025052309036,-0.07523065060377121,-0.04693838953971863
1772555785453213200,4.843213134765625,0.018593018874526024,-0.07878516614437103,-0.053119856864213943
1772555785463144200,4.853144287109375,0.011914113536477089,-0.07730574905872345,-0.04846222698688507
1772555785473076200,4.863076171875,0.006781403440982103,-0.07314695417881012,-0.0367288738489151
1772555785483007200,4.87300732421875,-0.004140055272728205,-0.06073226407170296,-0.024873461574316025
1772555785492939300,4.882939208984375,-0.013082150369882584,-0.05059653893113136,-0.002082393504679203
1772555785502870000,4.8928701171875,-0.023674309253692627,-0.04108230024576187,0.02780160680413246
1772555785512802000,4.902802001953125,-0.03616906329989433,-0.016547661274671555,0.0571025013923645
1772555785522733300,4.9127333984375,-0.04362258315086365,0.017169559374451637,0.07888045161962509
1772555785532665300,4.922665283203125,-0.044696372002363205,0.04214867949485779,0.09710606187582016
1772555785542596000,4.93259619140625,-0.042765725404024124,0.05376366898417473,0.09889295697212219
1772555785552528100,4.942528076171875,-0.03684871271252632,0.04659044370055199,0.10255800187587738
1772555785562459100,4.952459228515625,-0.02228940650820732,0.030429644510149956,0.09121696650981903
1772555785572391200,4.96239111328125,-0.0014776014722883701,0.01558997668325901,0.08458836376667023
1772555785582322200,4.972322265625,0.01796727068722248,-0.0009744856506586075,0.08196264505386353
1772555785592254200,4.982254150390625,0.02537352219223976,-0.01867385394871235,0.0832872986793518
1772555785602185200,4.992185302734375,0.02522926777601242,-0.04056546092033386,0.08535157889127731
1772555785612117200,5.0021171875,0.01123808603733778,-0.06390221416950226,0.08800302445888519
1772555785622048300,5.01204833984375,-0.0024681836366653442,-0.07717056572437286,0.09380348026752472
1772555785631980300,5.021980224609375,-0.017677228897809982,-0.07807337492704391,0.09152808040380478
1772555785641911300,5.031911376953125,-0.023794671520590782,-0.08202488720417023,0.09054090827703476
1772555785651843300,5.04184326171875,-0.02878570184111595,-0.07774677872657776,0.08945486694574356
1772555785661774000,5.051774169921875,-0.030615245923399925,-0.06696375459432602,0.08168471604585648
1772555785671706000,5.0617060546875,-0.027019180357456207,-0.046235572546720505,0.06893936544656754
1772555785681637400,5.071637451171875,-0.023900572210550308,-0.027447883039712906,0.05233391374349594
1772555785691569200,5.081569091796875,-0.021483752876520157,-0.018181681632995605,0.029171600937843323
1772555785701500200,5.091500244140625,-0.024910641834139824,-0.013240319676697254,0.006365512497723103
1772555785711431200,5.10143115234375,-0.02032334730029106,-0.006056709215044975,-0.02899247780442238
1772555785721363200,5.11136328125,-0.020075349137187004,0.006421007215976715,-0.05892452225089073
1772555785731294200,5.121294189453125,-0.020511042326688766,0.010525736957788467,-0.08057229220867157
1772555785741226200,5.131226318359375,-0.025399645790457726,0.02283497340977192,-0.0978369489312172
1772555785751160600,5.14116064453125,-0.02854537032544613,0.044293925166130066,-0.10320055484771729
1772555785761092600,5.151092529296875,-0.02942528948187828,0.05777765437960625,-0.10122914612293243
1772555785771023600,5.161023681640625,-0.02983914501965046,0.057099077850580215,-0.09388681501150131
1772555785780955600,5.17095556640625,-0.028001783415675163,0.041367411613464355,-0.09015370905399323
1772555785790886700,5.18088671875,-0.02521798200905323,0.019697001203894615,-0.08449502289295197
1772555785800818700,5.190818603515625,-0.018713362514972687,0.0074158478528261185,-0.0779380053281784
1772555785810749400,5.20074951171875,-0.014933803118765354,0.005117541179060936,-0.07744664698839188
1772555785820681500,5.210681396484375,-0.011019835248589516,0.010172568261623383,-0.07938002049922943
1772555785830612700,5.22061279296875,-0.009893851354718208,0.013595262542366982,-0.0791187658905983
1772555785840544800,5.230544677734375,-0.010879725217819214,0.019547536969184875,-0.08264315128326416
1772555785850475500,5.2404755859375,-0.014751428738236427,0.033971481025218964,-0.08330787718296051
1772555785860407600,5.250407470703125,-0.0189778171479702,0.04505850374698639,-0.07275870442390442
1772555785870338600,5.260338623046875,-0.01668643392622471,0.032216738909482956,-0.04935910925269127
1772555785880270600,5.2702705078125,-0.010674853809177876,0.015467295423150063,-0.019125668331980705
1772555785890201600,5.28020166015625,-0.004145581740885973,0.009569991379976273,0.019250482320785522
1772555785900133600,5.290133544921875,-0.0008142436854541302,0.004564724862575531,0.04244408756494522
1772555785910064600,5.300064697265625,-0.007178931962698698,-0.004508663900196552,0.06124813109636307
1772555785919996400,5.309996337890625,-0.01489400677382946,-0.021311448886990547,0.07012169808149338
1772555785929927700,5.319927734375,-0.0248787309974432,-0.02330375835299492,0.06109597533941269
1772555785939859700,5.329859619140625,-0.027608830481767654,-0.011998683214187622,0.04894286394119263
1772555785949790700,5.339790771484375,-0.029112184420228004,-0.0021465858444571495,0.03512664884328842
1772555785959721500,5.349721435546875,-0.030213886871933937,0.0010624118149280548,0.032532889395952225
1772555785969653500,5.359653564453125,-0.028278302401304245,-0.0016881003975868225,0.033125974237918854
1772555785979584800,5.369584716796875,-0.02674979716539383,-0.0004617655649781227,0.0336630642414093
1772555785989516800,5.379516845703125,-0.017588788643479347,0.009523756802082062,0.03057992458343506
1772555785999447600,5.389447509765625,-0.009716683067381382,0.012391844764351845,0.027574172243475914
1772555786009379600,5.399379638671875,-0.0016430439427495003,-0.0025769835337996483,0.030399253591895103
1772555786019310600,5.409310546875,0.004324417095631361,-0.01568351313471794,0.027728566899895668
1772555786029242600,5.41924267578125,0.014310205355286598,-0.022382428869605064,0.02821246348321438
1772555786039173600,5.429173583984375,0.01939823292195797,-0.025351043790578842,0.023623328655958176
1772555786049105700,5.439105712890625,0.019199028611183167,-0.02612762153148651,0.02575305849313736
1772555786059036700,5.44903662109375,0.014785735867917538,-0.02746029943227768,0.026678970083594322
1772555786068968400,5.458968505859375,0.011282880790531635,-0.01903938502073288,0.02503473311662674
1772555786078899700,5.468899658203125,0.01031605526804924,-0.009931875392794609,0.022721050307154655
1772555786088831700,5.478831787109375,0.009544004686176777,0.0026329196989536285,0.013916106894612312
1772555786098762500,5.488762451171875,0.015597496181726456,0.021383507177233696,0.007151209749281406
1772555786108694500,5.498694580078125,0.017694469541311264,0.042547114193439484,0.0054787443950772285
1772555786118625500,5.50862548828125,0.011020542122423649,0.046038635075092316,0.011922907084226608
1772555786128557600,5.5185576171875,-0.0004318496212363243,0.022341828793287277,0.029581530019640923
1772555786138488600,5.528488525390625,-0.0050257910043001175,-0.0163939967751503,0.03950433433055878
1772555786148420600,5.538420654296875,-0.012100478634238243,-0.06019473820924759,0.045455701649188995
1772555786158351600,5.5483515625,-0.024271389469504356,-0.10467671602964401,0.042447660118341446
1772555786168283600,5.55828369140625,-0.033109091222286224,-0.1346585899591446,0.03722626715898514
1772555786178214700,5.568214599609375,-0.04340672492980957,-0.14704729616641998,0.025142459198832512
1772555786188146700,5.578146728515625,-0.05655847489833832,-0.1466052085161209,0.014550535008311272
1772555786198077700,5.58807763671875,-0.07208096235990524,-0.14256080985069275,0.00804483238607645
1772555786208008400,5.598008544921875,-0.08843490481376648,-0.14228729903697968,0.013496589846909046
1772555786217940500,5.6079404296875,-0.10005373507738113,-0.12358060479164124,0.02916862815618515
1772555786227871700,5.617871826171875,-0.10551720857620239,-0.10576298832893372,0.0523381270468235
1772555786237803800,5.6278037109375,-0.10788144171237946,-0.08260126411914825,0.0708899050951004
1772555786247734500,5.637734619140625,-0.10305818915367126,-0.05545113608241081,0.0923970639705658
1772555786257666600,5.64766650390625,-0.09865256398916245,-0.0326334685087204,0.09779074043035507
1772555786267597600,5.65759765625,-0.09719954431056976,-0.025877827778458595,0.10115671157836914
1772555786277529600,5.667529541015625,-0.10213731974363327,-0.04664228484034538,0.1018962562084198
1772555786287460600,5.677460693359375,-0.10371444374322891,-0.0798654854297638,0.10691951215267181
1772555786297392600,5.687392578125,-0.10158727318048477,-0.09459373354911804,0.10247182846069336
1772555786307323600,5.69732373046875,-0.09024167060852051,-0.09116891026496887,0.08568672090768814
1772555786317255700,5.707255615234375,-0.0761987715959549,-0.08729320019483566,0.0630839616060257
1772555786327186700,5.717186767578125,-0.0637383759021759,-0.08919123560190201,0.03899727016687393
1772555786337118700,5.72711865234375,-0.048621971160173416,-0.08963941782712936,0.014852005988359451
1772555786347049700,5.7370498046875,-0.03960264101624489,-0.08058999478816986,-0.002321653999388218
1772555786356981500,5.7469814453125,-0.03947554901242256,-0.06599719822406769,-0.005832210183143616
1772555786366912500,5.75691259765625,-0.04217386618256569,-0.03748911991715431,0.002110135741531849
1772555786376844500,5.766844482421875,-0.055845316499471664,-0.0173665601760149,0.02634698525071144
1772555786386775800,5.77677587890625,-0.0734860971570015,0.0025181975215673447,0.05901411920785904
1772555786396707600,5.78670751953125,-0.08987569808959961,0.028575608506798744,0.0972571074962616
1772555786406638600,5.796638671875,-0.1084429919719696,0.0622456893324852,0.13520395755767822
1772555786416570600,5.806570556640625,-0.11563877016305923,0.09380213171243668,0.17061235010623932
1772555786426501600,5.816501708984375,-0.12554599344730377,0.12121856957674026,0.19962163269519806
1772555786436432600,5.8264326171875,-0.13565224409103394,0.11981438100337982,0.2394932359457016
1772555786446364700,5.83636474609375,-0.14585134387016296,0.09903079271316528,0.2798781991004944
1772555786456295700,5.846295654296875,-0.15055596828460693,0.07938334345817566,0.305969774723053
1772555786466227500,5.8562275390625,-0.1552649736404419,0.07544933259487152,0.3256523907184601
1772555786476158700,5.86615869140625,-0.15253795683383942,0.08347641676664352,0.32880061864852905
1772555786486090800,5.8760908203125,-0.14347974956035614,0.10053982585668564,0.3246857821941376
1772555786496021500,5.886021484375,-0.1362183541059494,0.1195075660943985,0.30860522389411926
1772555786505953500,5.89595361328125,-0.12627863883972168,0.12207725644111633,0.29532909393310547
1772555786515884500,5.905884521484375,-0.1286534070968628,0.11828401684761047,0.2794470489025116
1772555786525816600,5.915816650390625,-0.12638865411281586,0.10737010836601257,0.2634928524494171
1772555786535747600,5.92574755859375,-0.127263605594635,0.09961143136024475,0.2538522779941559
1772555786545679600,5.9356796875,-0.12902049720287323,0.08972471207380295,0.2407386153936386
1772555786555610600,5.945610595703125,-0.1347787231206894,0.08025984466075897,0.21744424104690552
1772555786565542700,5.955542724609375,-0.13866427540779114,0.0655333623290062,0.19710780680179596
1772555786575473700,5.9654736328125,-0.14514660835266113,0.05434921383857727,0.17221315205097198
1772555786585405700,5.97540576171875,-0.15784455835819244,0.05015553534030914,0.15378807485103607
1772555786595336700,5.985336669921875,-0.17330145835876465,0.04613408073782921,0.13229653239250183
1772555786605268700,5.995268798828125,-0.18171972036361694,0.05122843757271767,0.11599986255168915
1772555786615199500,6.005199462890625,-0.19133886694908142,0.05773501470685005,0.09221193194389343
1772555786625131500,6.015131591796875,-0.20334865152835846,0.058054860681295395,0.07594161480665207
1772555786635062800,6.025062744140625,-0.21288512647151947,0.05881164222955704,0.06222302466630936
1772555786644994800,6.034994873046875,-0.21773049235343933,0.05718764662742615,0.04782731086015701
1772555786654925600,6.044925537109375,-0.21826928853988647,0.056190259754657745,0.03414050489664078
1772555786664856600,6.054856689453125,-0.20833195745944977,0.05612820386886597,0.020354386419057846
1772555786674788600,6.06478857421875,-0.20275470614433289,0.059215936809778214,-0.0003364700824022293
1772555786684719600,6.0747197265625,-0.18683353066444397,0.05965881422162056,-0.023639393970370293
1772555786694651600,6.084651611328125,-0.17139996588230133,0.054418496787548065,-0.051385268568992615
1772555786704582700,6.094582763671875,-0.15169256925582886,0.04416505992412567,-0.07878093421459198
1772555786714514700,6.1045146484375,-0.13789978623390198,0.03644402325153351,-0.10507060587406158
1772555786724445700,6.11444580078125,-0.1240561455488205,0.02543824352324009,-0.12425628304481506
1772555786734377700,6.124377685546875,-0.11085543036460876,0.013277420774102211,-0.14223051071166992
1772555786744308700,6.134308837890625,-0.09378056228160858,0.008375341072678566,-0.15723182260990143
1772555786754237700,6.14423779296875,-0.07913889735937119,0.015621194615960121,-0.16876204311847687
1772555786764168400,6.15416845703125,-0.05749352648854256,0.023814143612980843,-0.1698073446750641
1772555786774100500,6.1641005859375,-0.039397332817316055,0.0326349176466465,-0.16554801166057587
1772555786784031700,6.17403173828125,-0.022843126207590103,0.03677746653556824,-0.15879769623279572
1772555786793963800,6.1839638671875,-0.008776767179369926,0.03077988512814045,-0.14527533948421478
1772555786803894500,6.19389453125,0.003658597357571125,0.00821704976260662,-0.1306641697883606
1772555786813826600,6.20382666015625,0.0217575840651989,-0.01953788846731186,-0.1122407466173172
1772555786823757600,6.213757568359375,0.035468339920043945,-0.03218470886349678,-0.09517599642276764
1772555786833689600,6.223689697265625,0.04882265254855156,-0.037603601813316345,-0.08168913424015045
1772555786843620600,6.23362060546875,0.05432740971446037,-0.05324834585189819,-0.07257846742868423
1772555786853552600,6.243552734375,0.05398689582943916,-0.06800395995378494,-0.06029445305466652
1772555786863483600,6.253483642578125,0.06072256341576576,-0.06646518409252167,-0.05774367228150368
1772555786873415400,6.26341552734375,0.05835403874516487,-0.06131245940923691,-0.06247926503419876
1772555786883346400,6.273346435546875,0.05792633816599846,-0.053768791258335114,-0.06247899681329727
1772555786893277700,6.283277587890625,0.058829229325056076,-0.04305737093091011,-0.07341695576906204
1772555786903209700,6.293209716796875,0.053707171231508255,-0.035018086433410645,-0.08107300847768784
1772555786913140500,6.303140380859375,0.0527261346578598,-0.04008942097425461,-0.08682448416948318
1772555786923072500,6.313072509765625,0.05227126553654671,-0.0571909062564373,-0.08272454142570496
1772555786933003800,6.323003662109375,0.051475536078214645,-0.07356996834278107,-0.0745847076177597
1772555786942935600,6.332935546875,0.04880065470933914,-0.07878230512142181,-0.06817980110645294
1772555786952866600,6.342866455078125,0.04033506661653519,-0.07347243279218674,-0.0633823424577713
1772555786962798600,6.352798583984375,0.02549460157752037,-0.06113000959157944,-0.0496782511472702
1772555786972729600,6.3627294921875,0.01787589304149151,-0.03842023015022278,-0.038601454347372055
1772555786982661400,6.372661376953125,0.006166239734739065,-0.006876952014863491,-0.033732399344444275
1772555786992592600,6.382592529296875,0.0004412163980305195,0.017837274819612503,-0.026770515367388725
1772555787002524700,6.392524658203125,-0.005549298133701086,0.030682500451803207,-0.02481708861887455
1772555787012455400,6.402455322265625,-0.0007677865214645863,0.026588216423988342,-0.030941782519221306
1772555787022387500,6.412387451171875,0.0009867041371762753,0.01773347333073616,-0.03676691651344299
1772555787032318700,6.422318603515625,0.006562419701367617,0.00874817930161953,-0.05251558870077133
1772555787042250800,6.432250732421875,0.007734743412584066,0.017029810696840286,-0.058978013694286346
1772555787052181500,6.442181396484375,0.013186711817979813,0.055762484669685364,-0.05366770923137665
1772555787062113500,6.452113525390625,0.01617397926747799,0.1062413677573204,-0.0366399884223938
1772555787072044500,6.46204443359375,0.013704267330467701,0.1323184072971344,-0.027748316526412964
1772555787081976600,6.4719765625,-0.0006424481980502605,0.13970601558685303,-0.03754368796944618
1772555787091907600,6.481907470703125,-0.023781228810548782,0.12079308927059174,-0.05461184307932854
1772555787101838600,6.491838623046875,-0.037466149777173996,0.08955766260623932,-0.08082719892263412
1772555787111770600,6.5017705078125,-0.044870421290397644,0.06770610809326172,-0.10903014987707138
1772555787121701400,6.511701416015625,-0.04243522509932518,0.05003045126795769,-0.12170439213514328
1772555787131633400,6.52163330078125,-0.03166509047150612,0.037444762885570526,-0.11610494554042816
1772555787141564700,6.531564697265625,-0.017199864611029625,0.02929203025996685,-0.09414558112621307
1772555787151496700,6.54149658203125,0.005848949775099754,0.03479929640889168,-0.06539718061685562
1772555787161427500,6.551427490234375,0.020577561110258102,0.035794518887996674,-0.036950357258319855
1772555787171359500,6.561359375,0.0346563421189785,0.05213150382041931,-0.00680033303797245
1772555787181290800,6.571290771484375,0.04535719007253647,0.06408137828111649,0.016157446429133415
1772555787191222800,6.581222900390625,0.04920712113380432,0.053100958466529846,0.03643905743956566
1772555787201153500,6.591153564453125,0.04209088906645775,0.036000803112983704,0.03511706367135048
1772555787211085600,6.60108544921875,0.03604784235358238,0.021660147234797478,0.025475047528743744
1772555787221016600,6.6110166015625,0.025458844378590584,0.024055393412709236,-0.0015927888453006744
1772555787230948600,6.620948486328125,0.018970193341374397,0.04267401248216629,-0.02279241569340229
1772555787240879600,6.630879638671875,0.010952213779091835,0.05227497220039368,-0.029908915981650352
1772555787250811600,6.640811767578125,0.0035518701188266277,0.043191879987716675,-0.014281862415373325
1772555787260742700,6.65074267578125,-0.0012838980183005333,0.03563862293958664,-0.004087814129889011
1772555787270674400,6.66067431640625,-0.0022221074905246496,0.02568364329636097,0.003841368481516838
1772555787280605400,6.67060546875,0.0005427864380180836,0.012365974485874176,0.012317944318056107
1772555787290537500,6.680537353515625,0.009441886097192764,-0.001024685800075531,0.019904538989067078
1772555787300468700,6.69046875,0.023776352405548096,-0.01214950904250145,0.02485828474164009
1772555787310399500,6.7003994140625,0.041278257966041565,-0.020688939839601517,0.025541339069604874
1772555787320331500,6.71033154296875,0.055502999573946,-0.028570566326379776,0.02520764246582985
1772555787330262800,6.7202626953125,0.059150297194719315,-0.039040420204401016,0.009234600700438023
1772555787340194600,6.730194580078125,0.058438438922166824,-0.03737035393714905,0.004053686745464802
1772555787350125600,6.74012548828125,0.05426822975277901,-0.02751709520816803,0.009042990393936634
1772555787360057600,6.7500576171875,0.0509326234459877,-0.005607269704341888,0.018749946728348732
1772555787369988600,6.759988525390625,0.03902379795908928,0.015062091872096062,0.027951989322900772
1772555787379920400,6.76992041015625,0.024568159133195877,0.02636880613863468,0.036819517612457275
1772555787389851600,6.7798515625,0.013415919616818428,0.022950226441025734,0.04276808723807335
1772555787399783700,6.78978369140625,0.007488787639886141,0.012917565181851387,0.05226491764187813
1772555787409714400,6.79971435546875,0.008631570264697075,0.015520986169576645,0.05555859953165054
1772555787419646500,6.809646484375,0.006546049378812313,0.013414161279797554,0.0569775328040123
1772555787429577500,6.819577392578125,0.003727152943611145,0.008943254128098488,0.05804947763681412
1772555787439509500,6.829509521484375,0.0026879869401454926,0.011579517275094986,0.05764681100845337
1772555787449440500,6.8394404296875,-0.0032229581847786903,0.0067477356642484665,0.06710127741098404
1772555787459372500,6.84937255859375,-0.001758752390742302,-0.0017307037487626076,0.07677920162677765
1772555787469303600,6.859303466796875,0.0013026716187596321,-0.016686473041772842,0.07916943728923798
1772555787479235600,6.869235595703125,0.005606339778751135,-0.030544497072696686,0.0815817266702652
1772555787489166600,6.87916650390625,0.015282528474926949,-0.030886374413967133,0.08844955265522003
1772555787499098600,6.8890986328125,0.027409233152866364,-0.018792694434523582,0.0930701419711113
1772555787509029600,6.899029541015625,0.028867797926068306,-0.002955353818833828,0.09012468159198761
1772555787518960400,6.90896044921875,0.018259095028042793,-0.0012085866183042526,0.08128032088279724
1772555787528892400,6.918892333984375,0.00859685055911541,-0.0060872044414281845,0.06839656829833984
1772555787538823700,6.92882373046875,-0.0038145454600453377,-0.0010751355439424515,0.04814829304814339
1772555787548755700,6.938755615234375,-0.0058573572896420956,0.0008392464369535446,0.03074619546532631
1772555787558686500,6.9486865234375,-0.007215569261461496,0.010209579020738602,0.020177708938717842
1772555787568618500,6.958618408203125,-0.006776866037398577,0.02324620634317398,0.011750312522053719
1772555787578549500,6.968549560546875,-0.004704660270363092,0.03689970076084137,-0.0007226020097732544
1772555787588481800,6.978481689453125,-0.003234180621802807,0.044100068509578705,-0.015867948532104492
1772555787598412500,6.98841259765625,-0.003779063234105706,0.04034394770860672,-0.03077179566025734
1772555787608344600,6.998344482421875,-0.007911266759037971,0.03363482654094696,-0.045006267726421356
1772555787618275600,7.008275634765625,-0.011981908231973648,0.02610660158097744,-0.05909465253353119
1772555787628207600,7.01820751953125,-0.01922142505645752,0.0254063680768013,-0.07006458938121796
1772555787638138600,7.028138671875,-0.020633164793252945,0.029699381440877914,-0.0758359283208847
1772555787648070700,7.038070556640625,-0.022407764568924904,0.03607665002346039,-0.06904710829257965
1772555787658001700,7.048001708984375,-0.023157978430390358,0.03402921184897423,-0.05241246148943901
1772555787667933400,7.057933349609375,-0.023767413571476936,0.02757382206618786,-0.028057599440217018
1772555787677864400,7.067864501953125,-0.02180706150829792,0.027627350762486458,-0.0031426632776856422
1772555787687796500,7.07779638671875,-0.02105739526450634,0.025851503014564514,0.018246494233608246
1772555787697727700,7.087727783203125,-0.016775032505393028,0.023805130273103714,0.03293835371732712
1772555787707658500,7.097658447265625,-0.012680687941610813,0.02594391256570816,0.03890623152256012
1772555787717590500,7.107590576171875,-0.006392166018486023,0.026948191225528717,0.03579752519726753
1772555787727521500,7.117521484375,-0.0014786110259592533,0.0251225046813488,0.028685707598924637
1772555787737453600,7.12745361328125,0.0016141179949045181,0.024118494242429733,0.014090785756707191
1772555787747384600,7.137384521484375,0.004520842339843512,0.01375005766749382,0.0016275262460112572
1772555787757316600,7.147316650390625,0.004554397892206907,0.0014393292367458344,-0.0060469042509794235
1772555787767247600,7.15724755859375,0.010870703496038914,-0.008728111162781715,-0.01077292300760746
1772555787777179400,7.167179443359375,0.018831957131624222,-0.011119629256427288,-0.004785338416695595
1772555787787110700,7.177110595703125,0.02665482647716999,-0.007849161513149738,0.008110549300909042
1772555787797042700,7.187042724609375,0.029164055362343788,0.0032032225281000137,0.012191577814519405
1772555787806973400,7.196973388671875,0.029712993651628494,0.012308042496442795,0.016362911090254784
1772555787816905500,7.206905517578125,0.028652790933847427,0.016471361741423607,0.018476927652955055
1772555787826836500,7.21683642578125,0.022146036848425865,0.011550094932317734,0.014132730662822723
1772555787836768500,7.2267685546875,0.011272881180047989,0.0017331503331661224,0.02011871710419655
1772555787846699500,7.236699462890625,0.004582847934216261,-0.01171337440609932,0.01897653378546238
1772555787856631600,7.246631591796875,-0.002430054359138012,-0.014471877366304398,0.018057476729154587
1772555787866562600,7.2565625,-0.008791986852884293,-0.01454587560147047,0.01945914328098297
1772555787876493600,7.26649365234375,-0.015465868636965752,-0.01980641856789589,0.029885152354836464
1772555787886425600,7.276425537109375,-0.013722051866352558,-0.007759520784020424,0.04537660628557205
1772555787896356600,7.286356689453125,-0.006919805891811848,0.013103149831295013,0.04956682398915291
1772555787906288600,7.29628857421875,-0.003134946571663022,0.03157086670398712,0.056579459458589554
1772555787916219400,7.306219482421875,-0.0022110959980636835,0.03149523586034775,0.05731742084026337
1772555787926151400,7.3161513671875,-0.009388616308569908,0.02420453168451786,0.05367445945739746
1772555787936082700,7.326082763671875,-0.0071342503651976585,0.011108703911304474,0.05025842413306236
1772555787946014700,7.3360146484375,-0.01195558998733759,-0.0007749693468213081,0.03985147923231125
1772555787955945500,7.345945556640625,-0.016223305836319923,-0.002905764617025852,0.032728321850299835
1772555787965877500,7.35587744140625,-0.017125165089964867,0.0009364243596792221,0.020613672211766243
1772555787975808500,7.36580859375,-0.017058320343494415,0.012533959001302719,0.016484174877405167
1772555787985740500,7.375740478515625,-0.014322641305625439,0.019049299880862236,0.010464008897542953
1772555787995671600,7.385671630859375,-0.01140834391117096,0.010261403396725655,0.021924922242760658
1772555788005603600,7.395603515625,-0.0006202408112585545,0.017770877107977867,0.023381607607007027
1772555788015534600,7.40553466796875,0.0029896735213696957,0.022820232436060905,0.019827352836728096
1772555788025466600,7.415466552734375,-0.0017400756478309631,0.02358800359070301,0.004428595304489136
1772555788035397600,7.425397705078125,-0.00959906354546547,0.018912291154265404,-0.009689087979495525
1772555788045329700,7.43532958984375,-0.012908488512039185,0.007113931700587273,-0.023053603246808052
1772555788055260700,7.4452607421875,-0.013551907613873482,-0.006184030324220657,-0.023670392110943794
1772555788065191400,7.45519140625,-0.01059377659112215,-0.020712532103061676,-0.01855730265378952
1772555788075123500,7.46512353515625,-0.005320717580616474,-0.025157613679766655,-0.009035968221724033
1772555788085054700,7.4750546875,-0.005482810549438,-0.02411467954516411,-0.0021351398900151253
1772555788094986800,7.48498681640625,0.0010565812699496746,-0.012480128556489944,0.010372395627200603
1772555788104917500,7.49491748046875,0.004990682937204838,-0.004743724130094051,0.022403135895729065
1772555788114849500,7.504849609375,0.0031363237649202347,0.0013906005769968033,0.042448483407497406
1772555788124780500,7.514780517578125,0.004436632618308067,0.00005187466740608215,0.06230241805315018
1772555788134712600,7.524712646484375,0.004197746515274048,0.004902023822069168,0.0771213099360466
1772555788144643600,7.5346435546875,0.00039594247937202454,0.01469341479241848,0.09032042324542999
1772555788154575600,7.54457568359375,0.002927010413259268,0.025089062750339508,0.09403447061777115
1772555788164506600,7.554506591796875,0.003016804810613394,0.030373461544513702,0.09317255765199661
1772555788174438400,7.5644384765625,-0.0014578383415937424,0.02535632997751236,0.09025373309850693
1772555788184369700,7.57436962890625,-0.0033415358047932386,0.02578154392540455,0.08696575462818146
1772555788194301700,7.5843017578125,-0.011610118672251701,0.02652163989841938,0.08311961591243744
1772555788204232700,7.594232666015625,-0.015048619359731674,0.026921605691313744,0.0802292451262474
1772555788214164500,7.60416455078125,-0.020809568464756012,0.018258078023791313,0.08675877749919891
1772555788224095500,7.614095458984375,-0.016803283244371414,0.019492490217089653,0.0908140242099762
1772555788234027500,7.624027587890625,-0.01442800834774971,0.022473102435469627,0.09539119899272919
1772555788243958500,7.63395849609375,-0.010247230529785156,0.00825926847755909,0.09613949060440063
1772555788253889500,7.6438896484375,-0.010396900586783886,-0.0011640610173344612,0.08573159575462341
1772555788263821600,7.653821533203125,-0.00940560083836317,-0.0103060994297266,0.06819711625576019
1772555788273752600,7.663752685546875,-0.012552391737699509,-0.023931365460157394,0.04122542217373848
1772555788283684600,7.6736845703125,-0.0094654131680727,-0.03278375789523125,0.012230284512043
1772555788293615600,7.68361572265625,-0.005075991153717041,-0.045543231070041656,-0.00449569895863533
1772555788303547600,7.693547607421875,-0.0020529967732727528,-0.05843762308359146,-0.008797994814813137
1772555788313478400,7.703478515625,-0.0032732572872191668,-0.05361597239971161,-0.009555929340422153
1772555788323410400,7.713410400390625,-0.009514177218079567,-0.039373453706502914,-0.007484298199415207
1772555788333341700,7.723341796875,-0.01892152801156044,-0.030108049511909485,-0.005260558798909187
1772555788343273700,7.733273681640625,-0.02566112019121647,-0.024050356820225716,-0.0042682234197855
1772555788353204500,7.74320458984375,-0.024451246485114098,-0.011941762641072273,-0.010690170340240002
1772555788363136500,7.753136474609375,-0.0216872226446867,-0.0002876352518796921,-0.021550066769123077
1772555788373067500,7.763067626953125,-0.017375566065311432,-0.0015899203717708588,-0.0341566726565361
1772555788382999600,7.77299951171875,-0.009763935580849648,-0.007151981815695763,-0.04655591398477554
1772555788392930600,7.7829306640625,0.00011665839701890945,-0.013913480564951897,-0.0680747851729393
1772555788402862600,7.792862548828125,0.006462658289819956,-0.016972539946436882,-0.06831968575716019
1772555788412793600,7.802793701171875,0.013118429109454155,-0.014078482985496521,-0.06713777035474777
1772555788422724600,7.812724609375,0.02787066623568535,-0.012047477066516876,-0.0660250186920166
1772555788432656600,7.82265673828125,0.035194624215364456,-0.03411416336894035,-0.06854623556137085
1772555788442587600,7.832587646484375,0.03834262117743492,-0.066495880484581,-0.04981229081749916
1772555788452519700,7.842519775390625,0.04750389605760574,-0.08431615680456161,-0.02881433069705963
1772555788462450400,7.852450439453125,0.05525071918964386,-0.07463838160037994,-0.02252090349793434
1772555788472382500,7.862382568359375,0.04898137226700783,-0.05818270891904831,-0.015933044254779816
1772555788482313700,7.872313720703125,0.03592430427670479,-0.0516611710190773,-0.011675229296088219
1772555788492245800,7.882245849609375,0.018343981355428696,-0.04924515634775162,-0.009491438046097755
1772555788502176500,7.892176513671875,0.0062425765208899975,-0.050896309316158295,-0.0047901589423418045
1772555788512108500,7.902108642578125,0.004498471971601248,-0.05574486404657364,0.00814721081405878
1772555788522039600,7.91203955078125,0.009594532661139965,-0.06283010542392731,0.020478341728448868
1772555788531971600,7.9219716796875,0.016965629532933235,-0.09427538514137268,0.030999690294265747
1772555788541902600,7.931902587890625,-0.00465655792504549,-0.1883407086133957,0.06723960489034653
1772555788551834600,7.941834716796875,0.03335367515683174,-0.22737786173820496,0.18504373729228973
1772555788561765600,7.951765625,0.07379960268735886,0.06642603129148483,0.15524640679359436
1772555788571697400,7.961697509765625,0.06819605082273483,0.1736219972372055,0.11418099701404572
1772555788581628700,7.971628662109375,0.03387672081589699,0.16793803870677948,0.09250155091285706
1772555788591559700,7.9815595703125,0.01570543833076954,0.16342425346374512,0.06929902732372284
1772555788601491700,7.99149169921875,0.023337963968515396,0.12049378454685211,0.003666178323328495
1772555788611422500,8.00142236328125,0.05905122309923172,-0.0001657828688621521,-0.07591626793146133
1772555788621354500,8.0113544921875,0.10514737665653229,-0.21904323995113373,-0.106160968542099
1772555788631285800,8.02128564453125,0.14871004223823547,-0.36850810050964355,-0.12294899672269821
1772555788641217500,8.031217529296875,0.15001264214515686,-0.4000561535358429,-0.1405854970216751
1772555788651148500,8.0411484375,0.12738296389579773,-0.41536933183670044,-0.19281435012817383
