time,seconds_elapsed,z,y,x
1772445426793885400,0.072885498046875,0.4836620530992746,0.21400562917608767,-0.12179120013080537
1772445426803817500,0.0828173828125,0.3053647565662861,0.09786675571855157,-0.20451454632384702
1772445426813749500,0.09274951171875,0.27781623990535737,-0.006936703928001224,-0.10207912184973247
1772445426823682600,0.1026826171875,0.16224223378896713,0.08935622660256921,0.03661889216635609
1772445426833614600,0.112614501953125,0.10542904419898987,0.14124529419597237,0.11636449890695512
1772445426843547600,0.122547607421875,0.09389701183736324,0.16330723267197608,0.14291319087557494
1772445426853479700,0.132479736328125,0.09316577495336532,0.18920900503918528,0.12747607736680655
1772445426863412700,0.142412841796875,0.1628670876890421,0.171152539344877,0.12717604410746133
1772445426873344800,0.1523447265625,0.2856231142640114,0.14094408275969325,0.11640083059566095
1772445426883276500,0.162276611328125,0.43302667536139483,0.18303506564460695,0.10829469929579645
1772445426893209300,0.172209228515625,0.5384598112136125,0.19788564796969293,0.07454378433078528
1772445426903141400,0.182141357421875,0.5726140097498893,0.16269479986205695,-0.029786833639629185
1772445426913074400,0.192074462890625,0.4849643678694963,0.1712901942498982,-0.16490023748446256
1772445426923006500,0.20200634765625,0.29042554610967636,0.16450645239390432,-0.23481575922640038
1772445426932939500,0.211939453125,0.06431669708788394,0.13130765488632024,-0.187563740316499
1772445426942871600,0.22187158203125,-0.17656243556439877,0.09941650591120123,-0.07820575917074456
1772445426952803600,0.231803466796875,-0.4564741864442825,0.006241634335927665,0.05437343175504356
1772445426962736600,0.241736572265625,-0.7244973466098308,-0.10454104585070162,0.13418816049238666
1772445426972668700,0.251668701171875,-0.9201046743839979,-0.15595917146410793,0.13626544169047847
1772445426982601700,0.261601806640625,-1.058235964745283,-0.15432287549916654,0.08491846335083246
1772445426992533800,0.27153369140625,-1.1117419294834137,-0.16198164662402123,0.07520246743522584
1772445427002466600,0.281466552734375,-1.1223673683941364,-0.19632113859932868,0.07827869654279201
1772445427012398600,0.291398681640625,-1.0548819781422614,-0.23582933844942597,0.031118954459647647
1772445427022330600,0.30133056640625,-0.9381886126071214,-0.2708082973720506,-0.01672525818974245
1772445427032263400,0.311263427734375,-0.8019564338654279,-0.29149967814721167,-0.014715283773932605
1772445427042195500,0.321195556640625,-0.6683750618934631,-0.31286205351911484,-0.021308695256174542
1772445427052128500,0.33112841796875,-0.5731453401476144,-0.3363400328055024,-0.006332527489773929
1772445427062060500,0.341060546875,-0.5816682538211345,-0.30899814463257785,0.010399059976055286
1772445427071993600,0.35099365234375,-0.5923603282272816,-0.23737521618455648,0.02175755326852668
1772445427081925600,0.360925537109375,-0.6082447105795145,-0.1508790186556056,0.06151731672689784
1772445427091857700,0.370857666015625,-0.58760758074224,-0.08562186237983405,0.09447842845451086
1772445427101790700,0.380790771484375,-0.5114508082568645,-0.02196322734188288,0.10445108427861705
1772445427111722500,0.390722412109375,-0.38858021539151666,0.04460055455304682,0.11275662887440993
1772445427121655600,0.400655517578125,-0.21938509372472761,0.09170925600212067,0.11612586784549057
1772445427131587600,0.410587646484375,-0.028034254351258277,0.12635737553518264,0.09585001820181496
1772445427141520400,0.420520263671875,0.11444587886929511,0.15500523174013942,0.08079706343873404
1772445427151452400,0.430452392578125,0.24185820681750772,0.1986071671772748,0.04905344230867922
1772445427161384700,0.440384765625,0.30197862125933167,0.2262829634796828,-0.0036524763592518865
1772445427171317500,0.4503173828125,0.35767537404000754,0.2313893832406029,-0.01060499434431549
1772445427181249500,0.46024951171875,0.4002677305757999,0.2219009124705568,0.06504442684054375
1772445427191182600,0.4701826171875,0.40193478700518603,0.20417360566537826,0.06343203234099783
1772445427201114600,0.480114501953125,0.40446752035319805,0.19271306763738394,0.03664249223765218
1772445427211047700,0.490047607421875,0.4478554111808538,0.13657679092828184,0.06908622674436773
1772445427220979500,0.4999794921875,0.5014145674109458,0.09592325696796178,0.06664443678255193
1772445427230911500,0.509911376953125,0.45647477096617217,0.0846858601713553,0.04917992279913742
1772445427240844500,0.519844482421875,0.3059516165435314,0.10081329403184354,0.055285833892226216
1772445427250776600,0.529776611328125,0.185275318852067,0.10942739312015473,0.040899069686606525
1772445427260709600,0.539709716796875,0.14833938064277172,0.07836674015242606,0.049923471175436857
1772445427270641700,0.5496416015625,0.12674772655963898,0.023815759873390196,0.07915600910028442
1772445427280574500,0.559574462890625,0.09291267697513103,0.0006692410310730338,0.1243227461687289
1772445427290506500,0.569506591796875,-0.003970657196640968,-0.0077566420087590805,0.14756602165009824
1772445427300438500,0.5794384765625,-0.10670973165929316,-0.0031334757201373574,0.09339474313734099
1772445427310371600,0.58937158203125,-0.24286709159910677,0.05433441491890698,0.012484748242888598
1772445427320303600,0.5993037109375,-0.2951280247122049,0.0701336762709543,0.030732448493246918
1772445427330236700,0.609236572265625,-0.2797358097910881,0.07514262700676917,0.04455568336485885
1772445427340168400,0.61916845703125,-0.2427133623421192,0.07780556260570884,0.02931992623064434
1772445427350100500,0.6291005859375,-0.23805881453454494,0.06889982362706214,0.05001840118358377
1772445427360033500,0.639033447265625,-0.22052608045339583,0.05360642943792045,0.06645128426405135
1772445427369965600,0.648965576171875,-0.18262801921367644,0.07267700407821685,0.07752522956067696
1772445427379898600,0.658898681640625,-0.18509937776327132,0.09230148627422749,0.038278237930033356
1772445427389830700,0.66883056640625,-0.1640431457310915,0.09706449942495673,0.04405343293114565
1772445427399763700,0.678763671875,-0.12787819189429284,0.1265818684734404,0.07969239926561712
1772445427409695700,0.68869580078125,-0.13988017985522747,0.14222926373202352,0.10080715655200183
1772445427419627800,0.698627685546875,-0.08983516922593117,0.1316349140793085,0.09915276780794374
1772445427429560600,0.708560546875,-0.003606500059366226,0.10116623565535991,0.131873526874464
1772445427439492400,0.718492431640625,0.040498599126935,0.08410612405464053,0.13428572084903717
1772445427449425400,0.72842529296875,0.028082185146212576,0.07782799363322555,0.1091121074927505
1772445427459357400,0.738357421875,-0.02491056937277317,0.04702116929609328,0.09399227977222763
1772445427469290500,0.74829052734375,-0.05383095890879631,0.020382460956461727,0.09005313195870257
1772445427479222500,0.758222412109375,-0.030087095227837563,-0.005394260258972644,0.10281120811710133
1772445427489154600,0.768154541015625,0.0128401923507452,-0.011195347753167151,0.09096475777775048
1772445427499087600,0.778087646484375,0.05643500392735004,-0.019592516155168414,0.04654004384879954
1772445427509019600,0.78801953125,0.07028525010347365,-0.04217606735248118,0.018810727260867133
1772445427518952700,0.79795263671875,-0.042806291547417635,-0.043654396276734765,0.02043683975851163
1772445427528884700,0.807884765625,-0.17274258501529693,-0.02493522888999432,0.026722651162883266
1772445427538817500,0.817817626953125,-0.24261633170843122,-0.02825772437620908,0.03178757900279015
1772445427548749600,0.82774951171875,-0.23397476009130477,-0.045088338069990276,0.03903493804885074
1772445427558681600,0.837681640625,-0.20593699860870837,-0.04392882930394262,0.023072508324612863
1772445427568614400,0.847614501953125,-0.18617255995273588,-0.029147403224930167,-0.010397881799121387
1772445427578546400,0.85754638671875,-0.16991291454732418,-0.022602219365164638,-0.0360432682524668
1772445427588479500,0.8674794921875,-0.16779636078476906,-0.016249270141869783,-0.049667966610984875
1772445427598411500,0.87741162109375,-0.10783552081882954,-0.004153320287168026,-0.035879994848999196
1772445427608344600,0.887344482421875,-0.00540624295771122,-0.009844444600865244,-0.024069542838213963
1772445427618276600,0.897276611328125,0.10378653768897056,-0.004521715208142996,-0.035100238081580026
1772445427628208600,0.907208740234375,0.13625906674861907,0.03847381530106067,-0.07648262517256661
1772445427638141700,0.9171416015625,0.12511807953119278,0.057562985043972725,-0.10634626864176243
1772445427648073700,0.92707373046875,0.08572714938521385,0.029590324686840176,-0.05105262133583892
1772445427658003500,0.93700341796875,0.06193652395308017,0.022959800631180406,-0.031714061675430276
1772445427667935500,0.946935546875,0.08864099100530147,0.017456161713600156,-0.06030016405605711
1772445427677867800,0.95686767578125,0.11436872197985648,0.00515329110994935,-0.09513214312288909
1772445427687800600,0.966800537109375,0.052720951840281485,-0.02365099776573479,-0.09494969009491615
1772445427697732600,0.976732666015625,0.002263268756866455,-0.008212532550096512,-0.10672708465289324
1772445427707665700,0.986665771484375,-0.03762567403912544,-0.007010317153483629,-0.07796748430230654
1772445427717597700,0.99659765625,-0.05780103158354759,-0.017577815331891178,-0.026529722406668586
1772445427727530800,1.00653076171875,-0.04354045104086399,-0.052267143658176064,-0.014860327400965614
1772445427737462500,1.016462646484375,0.01896656627655029,-0.08286087323389947,-0.02862829298796132
1772445427747394600,1.02639453125,0.042321138378977774,-0.09118329589925706,-0.043594199655251575
1772445427757327600,1.03632763671875,-0.05571136582791805,-0.074373177004233,-0.07437794451089576
1772445427767259600,1.046259765625,-0.1788169364929199,-0.06134966397583484,-0.03550490075917914
1772445427777192700,1.056192626953125,-0.22498598247170448,-0.05867167693823576,0.0267547907336615
1772445427787124700,1.066124755859375,-0.22351006470024584,-0.06050532210618257,0.03328483182322234
1772445427797057500,1.0760576171875,-0.17614274884760378,-0.06296520941369235,0.014180720239505172
1772445427806989600,1.085989501953125,-0.07250818684995174,-0.07093319261819124,-0.006670335476240143
1772445427816921600,1.095921630859375,-0.000716039314866066,-0.06468589572645723,-0.05150308221681043
1772445427826854700,1.105854736328125,-0.013629881423711776,-0.04629464511983096,-0.06577719809450208
1772445427836786400,1.115786376953125,-0.09092997872531414,-0.009155366358160971,-0.06196167666064575
1772445427846719500,1.125719482421875,-0.09176818311512469,0.015224968595430254,-0.02716202896083705
1772445427856651500,1.135651611328125,-0.01981236945092678,0.0135395727917552,0.01774431273890659
1772445427866583600,1.14558349609375,0.06842471692860126,0.015497282730787992,0.037051545679289845
1772445427876516600,1.1555166015625,0.09587854104340075,0.008441007543727756,0.04526286351983435
1772445427886448600,1.16544873046875,0.06397767439186573,0.00653100920394063,0.055105737218121065
1772445427896381700,1.175381591796875,0.01843991205394268,0.014250570605322718,0.06622242111135274
1772445427906313700,1.185313720703125,-0.03805120597481727,-0.005882336036860942,0.0652277109855786
1772445427916246500,1.19524658203125,-0.0594213262617588,-0.024377704605087636,0.05898570219031535
1772445427926178800,1.2051787109375,-0.0855026929795742,0.011266367162764072,0.07076538003692404
1772445427936110600,1.215110595703125,-0.069708326998353,0.010240531246364116,0.07912218902907334
1772445427946043400,1.22504345703125,-0.04373217422068119,-0.005000365570560097,0.05205759256072342
1772445427955975400,1.234975341796875,-0.002768295669555664,0.0037641017738729715,-0.0012133761114440857
1772445427965908500,1.244908447265625,0.03524374733865261,0.0026905542582273483,-0.01463215380143374
1772445427975840500,1.254840576171875,0.059839843934774394,0.0063292030215263365,-0.03374873670765664
1772445427985772500,1.2647724609375,0.07671382184624671,-0.004425634422525763,-0.048444913922320115
1772445427995705600,1.27470556640625,0.06128887369930744,-0.021780308523029087,-0.05969127034351695
1772445428005637600,1.2846376953125,0.03194002961814403,-0.010833382572978735,-0.06254759592297486
1772445428015570700,1.29457080078125,-0.029591420665383335,0.01456599323004484,-0.06347609981158749
1772445428025502700,1.304502685546875,-0.07275602413117885,-0.01495126622058451,-0.07509248142184223
1772445428035435800,1.314435791015625,-0.10849252342283724,-0.0325892142418772,-0.07026973744051065
1772445428045367800,1.324367919921875,-0.13544482775628566,-0.02778539415672421,-0.06589769636874553
1772445428055299600,1.334299560546875,-0.13190730127990244,-0.027295345617458222,-0.07274177184354048
1772445428065232600,1.344232666015625,-0.11310440113246441,-0.009663681206479669,-0.08891030033282003
1772445428075164700,1.35416455078125,-0.10557342110574244,0.005378258972242474,-0.11795466330838389
1772445428085097500,1.364097412109375,-0.13777707009613513,0.039796734467893835,-0.13402363584674895
1772445428095029500,1.374029541015625,-0.1431201846897602,0.04213043811246753,-0.10738162130517885
1772445428104962600,1.383962646484375,-0.10778934358954428,0.02371763326115906,-0.11738920231219381
1772445428114894600,1.39389453125,-0.07633154453039169,0.01877367405295372,-0.16590945105962454
1772445428124826600,1.40382666015625,-0.019672084197402,-0.001199950374290347,-0.16080531458733602
1772445428134759700,1.413759765625,0.04065642003715038,-0.0184461225990206,-0.1308266116374172
1772445428144691700,1.423691650390625,0.042049920222163195,-0.017956731646880508,-0.16732775689233093
1772445428154624800,1.433624755859375,0.027091420543193814,0.001746624471619725,-0.19712516672490163
1772445428164556500,1.443556640625,-0.026314006429910657,0.0014467647422105074,-0.13196473055556415
1772445428174488600,1.453488525390625,-0.09977847109138965,0.041819034075737,-0.05849558515239041
1772445428184421600,1.463421630859375,-0.07571721202433108,0.05536284465119242,-0.0447966205478413
1772445428194353700,1.473353759765625,0.010513795229792594,0.02459624272659421,-0.05112293292596005
1772445428204286500,1.483286376953125,0.09132862265408039,0.0242626999232918,-0.06678107790742069
1772445428214218500,1.493218505859375,0.1570142700076103,0.044360096860677004,-0.07855808887290767
1772445428224150800,1.50315087890625,0.19490473246276377,0.025024843402206898,-0.0387990469337441
1772445428234083600,1.51308349609375,0.20574235281944273,0.005628434341028332,-0.02136595100190025
1772445428244015600,1.523015625,0.1963379801362753,0.028572160620242357,-0.05620521832604426
1772445428253948700,1.53294873046875,0.1434118611127138,0.06784604025781155,-0.060269841983029614
1772445428263880400,1.54288037109375,0.07957622554004191,0.10273206019997597,-0.020430035558389497
1772445428273813800,1.552813720703125,0.04069324491620063,0.10123583029285073,0.0054218241193331775
1772445428283745500,1.56274560546875,0.004627659800648689,0.11010770353451371,0.014845189197338186
1772445428293677600,1.572677490234375,-0.02411152794957161,0.13359481597542763,0.03323659963416867
1772445428303610600,1.582610595703125,-0.02978606645464897,0.14270079023391008,0.0046129280223976814
1772445428313542700,1.592542724609375,-0.016109423279762267,0.11063048529960215,-0.012615082924556919
1772445428323475700,1.602475830078125,-0.0010229133069515229,0.08537292912006378,-0.011953696406376547
1772445428333407700,1.61240771484375,-0.01674012239873409,0.06990830654986202,-0.051473084370768626
1772445428343340500,1.622340576171875,-0.013888240098953246,0.03450359649583697,-0.058688997965794985
1772445428353272600,1.6322724609375,-0.0007172083586454391,0.010932239837571979,-0.05141948188685346
1772445428363204600,1.64220458984375,-0.015993687945604323,-0.006367123879119753,-0.09304858744763769
1772445428373137700,1.6521376953125,-0.03998421986401081,0.014354542436450719,-0.12269255115101113
1772445428383069400,1.6620693359375,-0.07315408353805541,0.019272563485801218,-0.1281966832589358
1772445428393002500,1.67200244140625,-0.11120762760043143,0.012310323257744312,-0.135591022160789
1772445428402934500,1.6819345703125,-0.10382570065557956,0.0017410715136677026,-0.0831563673154451
1772445428412866600,1.691866455078125,-0.09886369433403014,0.016631766653433442,-0.03986345216170884
1772445428422799600,1.701799560546875,-0.06860416514873505,0.047197366113215684,-0.021671002929657696
1772445428432731600,1.711731689453125,-0.059897711601853365,0.054945861348137254,0.010322487608506344
1772445428442664700,1.721664794921875,-0.06106675538122654,0.0508692595589906,-0.005593933849805034
1772445428452596700,1.7315966796875,-0.03215864080488682,0.0518501603551209,-0.02563426683770958
1772445428462528800,1.74152880859375,-0.022267945909500122,0.05191007384881377,-0.014912783673987722
1772445428472461800,1.7514619140625,-0.0044493806242942805,0.06129362293966114,-0.002043981716688722
1772445428482393600,1.7613935546875,0.03211012548804283,0.0696887455150485,0.006858715921500697
1772445428492326400,1.771326416015625,0.045643560799956316,0.07144501459784805,0.010773322948813438
1772445428502258400,1.781258544921875,0.02389057867527008,0.07978577663749456,0.013488344928016885
1772445428512191500,1.79119140625,0.02147065805196762,0.1041331591695547,0.00933125721460674
1772445428522123500,1.80112353515625,0.07208850013315678,0.10517923415638505,0.012170526627986691
1772445428532055600,1.8110556640625,0.09256196384131908,0.08065612973123788,0.021556222010147758
1772445428541988600,1.820988525390625,0.10400807148516178,0.08080430603027343,-0.000948665327229537
1772445428551920600,1.830920654296875,0.09535948560535908,0.08012414174638688,-0.027801413709763436
1772445428561853700,1.840853759765625,0.08395546353757381,0.05067066824696958,-0.022726142572355456
1772445428571785700,1.85078564453125,0.05283493360877037,0.038167891157045955,0.000656719476217404
1772445428581717500,1.860717529296875,0.008542787417769431,0.009192045106738805,0.01344966601859778
1772445428591650800,1.87065087890625,-0.047646717315912246,0.010477701003104448,0.027496759074227883
1772445428601582600,1.88058251953125,-0.12398644515275954,0.028714710896089672,0.02274554595914669
1772445428611515600,1.890515625,-0.14714637146592138,0.028207345895841715,0.03204710672181099
1772445428621447700,1.90044775390625,-0.15568565175235272,0.03480360235571861,0.03312692414803896
1772445428631379700,1.910379638671875,-0.12910568786263465,0.005565890498831868,0.021306092307134532
1772445428641312500,1.9203125,-0.06989186687171459,-0.009572130465507507,0.04110152888956945
1772445428651244300,1.930244384765625,-0.04495850114524364,-0.0019523761767894028,0.027835758937359786
1772445428661177300,1.94017724609375,-0.059435939309000964,0.01002418508194387,0.023388214077125304
1772445428671109000,1.950109130859375,-0.06482932278513907,0.021996654687449334,0.023105045187612996
1772445428681042400,1.96004248046875,-0.049587329989671705,0.026751521064341068,0.013224232365423813
1772445428690974200,1.96997412109375,-0.01485445478260517,0.03463723281286657,-0.007523175746179185
1772445428700906200,1.97990625,0.0018108488142490385,0.04625584747940301,-0.01564308440964669
1772445428710839300,1.98983935546875,-0.0051543140232563015,0.05323693853840231,-0.006295099822524935
1772445428720771300,1.999771240234375,-0.042816812941432,0.05105353008471429,-0.010192746581882238
1772445428730704400,2.009704345703125,-0.043372693258523935,0.048949178216606375,0.02326977989580482
1772445428740636400,2.019636474609375,-0.037782325905561444,0.05632635592110455,0.06561908948991912
1772445428750568400,2.029568359375,-0.0002969371199607849,0.03830561912730336,0.04776404181895777
1772445428760501500,2.03950146484375,0.012220599147677421,0.02976765401512384,0.010299111299496143
1772445428770433500,2.04943359375,-0.04381926798224449,0.050514527837187045,0.0023909867897629737
1772445428780366300,2.059366455078125,-0.07609305959939956,0.04326280314326286,0.003622830139659345
1772445428790298000,2.069298095703125,-0.07318915485143661,0.0032469460319727657,0.008574904155661351
1772445428800230100,2.079230224609375,-0.03033727059662342,-0.00407645565867424,0.05175915303684305
1772445428810163200,2.0891630859375,0.013149404430389403,-0.015449790327250957,0.0452717363794567
1772445428820095200,2.09909521484375,0.05144084890186786,-0.029216596003621816,0.0033175544496159997
1772445428830028300,2.1090283203125,0.04424538443982601,-0.009823913269490003,-0.005019431030633859
1772445428839960300,2.118960205078125,-0.025996611043810843,0.031461890712380404,0.019190365095064044
1772445428849892400,2.128892333984375,-0.07831132017076015,0.03563033550344407,0.07926070245062
1772445428859825400,2.138825439453125,-0.08127776876091956,0.005232128499820828,0.12471941733611747
1772445428869757400,2.14875732421875,-0.03915712139010429,-0.009897489962354301,0.10081532159214839
1772445428879690500,2.1586904296875,0.04001403048038482,-0.011373188538104295,0.06942393426613416
1772445428889622300,2.168622314453125,0.06955284417569636,-0.014345190086215733,0.030948127937386744
1772445428899555300,2.178555419921875,0.03507598955631256,0.0030764848358929156,-0.014197758139274081
1772445428909487400,2.1884873046875,-0.008689502412080764,0.010709025540947914,-0.044968552181799896
1772445428919419400,2.19841943359375,-0.04007306719124317,0.009946370605379342,-0.01910507969809696
1772445428929352200,2.208352294921875,-0.07871580931842327,0.009021364714950323,0.014855623826384544
1772445428939284200,2.2182841796875,-0.076095982208848,-0.026383637600019574,0.02855323215748649
1772445428949217300,2.22821728515625,-0.043997547158598896,-0.03269333220347762,0.0029592927635880184
1772445428959149300,2.2381494140625,-0.10158230564296244,-0.005414864655584097,-0.006532146281679161
1772445428969081300,2.248081298828125,-0.20944354542493818,0.014730755337700246,0.00039125064017716795
1772445428979014400,2.258014404296875,-0.24129414319396017,0.012856705094128847,0.03958733406749088
1772445428988946200,2.2679462890625,-0.18958499874472617,0.02620601601079106,0.05422949323970824
1772445428998879500,2.27787939453125,-0.08995324264764785,0.017168869204819203,0.01744816107023507
1772445429008811300,2.287811279296875,0.019962007054686544,-0.005310892824456096,0.02103889273831155
1772445429018743300,2.297743408203125,0.119705406832695,-0.007200871289521456,0.020803700309526173
1772445429028676400,2.30767626953125,0.16839666476547718,-0.0012957388989627361,-0.0038179097537649792
1772445429038608400,2.3176083984375,0.05609656575322151,0.014382380291447042,-0.023728351017995735
1772445429048541200,2.327541259765625,-0.038781858336925504,0.03031169776394963,-0.04102847735309042
1772445429058473500,2.337473388671875,-0.06582359451949596,0.046037455488368864,0.01753953371469397
1772445429068405500,2.347405517578125,-0.0495136802315712,0.041313057314977045,0.03054082577812951
1772445429078338300,2.35733837890625,-0.003859598037600517,0.021613792849704622,-0.01578972177214455
1772445429088270300,2.367270263671875,0.05534603964686394,0.013992869517207145,-0.05824130899722222
1772445429098203400,2.377203369140625,0.12831366070210934,0.013548486750572918,-0.07271740458726417
1772445429108135200,2.38713525390625,0.13478431802093982,-0.00008826280534267425,-0.06385555498269387
1772445429118068200,2.397068115234375,0.058683659636974334,-0.006584858283028006,-0.05930900672739371
1772445429128000300,2.407000244140625,-0.013253449326753616,-0.00813164933361113,-0.028245444849948398
1772445429137932300,2.416932373046875,-0.06447919417321682,-0.010330839878320694,-0.00028610976526979355
1772445429147865300,2.426865234375,-0.11818272731006145,-0.020271219134330748,0.030438762776297517
1772445429157797400,2.43679736328125,-0.12282967633306979,-0.017472893652692435,0.02325238123643212
1772445429167730400,2.44673046875,-0.06882394537925719,-0.023583704683184624,0.01569084624124225
1772445429177662500,2.456662353515625,-0.061655953446030615,-0.00471921054162085,-0.0015305066360626369
1772445429187594500,2.466594482421875,-0.11679156521260738,-0.005894830192252993,-0.026579242370510472
1772445429197527300,2.47652734375,-0.13442659062445164,-0.017615443928539753,0.0007625316379824652
1772445429207459300,2.486459228515625,-0.09749182145893573,-0.004518938729166984,0.0008478398678358643
1772445429217392000,2.49639208984375,-0.07898001321256161,-0.002294102286547422,-0.011914971831184812
1772445429227324200,2.50632421875,-0.08774784155786038,-0.005844634374976158,-0.012952438819874077
1772445429237256200,2.516256103515625,-0.05629004249870777,0.0004436521142721176,-0.02016247979653999
1772445429247189200,2.526189208984375,0.011109423035383224,0.016250293055176734,-0.037116925365966745
1772445429257121300,2.536121337890625,0.08668634980618953,0.015675050450488923,-0.04974786344678141
1772445429267054300,2.546054443359375,0.13409341314733028,0.01626351786293089,-0.05787310130591504
1772445429276986400,2.555986328125,0.13234393913149833,0.012633271601796149,-0.04315890894394833
1772445429286918400,2.56591845703125,0.04005903866589069,0.023293489564955232,-0.023441640747815833
1772445429296851500,2.5758515625,-0.026830723780393598,0.029195260954648253,-0.008989295926119667
1772445429306783200,2.585783203125,-0.05019815536439418,0.022772388300299644,-0.020135098599269985
1772445429316716500,2.595716552734375,-0.049320203486084936,0.008667071384564042,-0.0018682347074267453
1772445429326648300,2.6056484375,-0.01775368335545063,-0.034184520609304304,-0.007708512567693833
1772445429336580400,2.615580322265625,-0.0027852468043565747,-0.04485810951068997,-0.03886399736215826
1772445429346513200,2.62551318359375,-0.037197219493985176,-0.044576881416514516,-0.03918190877148881
1772445429356445400,2.635445556640625,-0.07164192540943622,-0.052602293896675104,-0.003613879648223519
1772445429366378200,2.645378173828125,-0.08958148672580718,-0.05708448081202805,0.01654395365595119
1772445429376310300,2.655310302734375,-0.10187807371914386,-0.04003295437656343,-0.014052061491692438
1772445429386243300,2.665243408203125,-0.05897592058181762,-0.03719173960126936,-0.0325441170081147
1772445429396175400,2.67517529296875,-0.04988426710963249,-0.05050247207321226,-0.027499206759640946
1772445429406107400,2.685107421875,-0.04844400517344474,-0.04311396925710141,-0.026335375728213692
1772445429416040400,2.69504052734375,-0.03534253153800964,-0.02797412166185677,-0.008953279331244993
1772445429425972200,2.70497216796875,-0.001744213318824768,-0.018699878164380786,0.01925364643948851
1772445429435905300,2.7149052734375,-0.027906244057416915,-0.0005283347230404615,0.07089430821279528
1772445429445837300,2.72483740234375,-0.0448252301543951,0.0036668519444763657,0.0664738614220405
1772445429455769300,2.734769287109375,-0.007646130838990211,0.01509147840887308,-0.012970725678524468
1772445429465702400,2.744702392578125,0.04533727132976055,0.006171674372255802,-0.06888911500337999
1772445429475634400,2.754634521484375,0.07044073292613029,-0.023626009454950688,-0.09672153120618313
1772445429485567200,2.764567138671875,0.07438216402828693,-0.04285078827627003,-0.10172273702695965
1772445429495499300,2.774499267578125,0.056369537475705146,-0.053434872263297434,-0.09933467284664511
1772445429505431300,2.784431396484375,0.06637655222713947,-0.03557422140203416,-0.11130706938691437
1772445429515364400,2.7943642578125,-0.027955928418040274,-0.016212810589000582,-0.07921621485492214
1772445429525296000,2.804296142578125,-0.2248492043495178,0.008257029278948903,-0.017206671331403776
1772445429535229200,2.814229248046875,-0.3052776628047228,0.0007311638187617063,0.04645444335800129
1772445429545161200,2.8241611328125,-0.2884375871628523,0.005666282133385539,0.04147241716173011
1772445429555093200,2.83409326171875,-0.18239947115480898,0.008637114637717604,0.00463211906334618
1772445429565026300,2.8440263671875,-0.009795417827367783,-0.020723712142184377,0.023322834390448403
1772445429574958300,2.853958251953125,0.150440736836195,-0.05028831786587834,0.023956613665784242
1772445429584891400,2.863891357421875,0.18496201511919497,-0.028685484801605342,-0.01001213274290203
1772445429594823400,2.873823486328125,0.10875263566374778,0.012508695374056696,-0.009820881062187254
1772445429604755500,2.88375537109375,0.018155249893665314,0.023421499858796595,0.04322937123111915
1772445429614688500,2.8936884765625,-0.0003489595681428909,0.019706278727948664,0.05832074004213791
1772445429624620300,2.903620361328125,0.004071779483556747,0.025543971905484793,0.023777583287470042
1772445429634553300,2.91355322265625,0.04058510836660862,0.0063860477752983565,0.006983431429846677
1772445429644485000,2.923485107421875,0.07882277682423591,-0.018232260652631522,-0.0083004060547275
1772445429654417200,2.933417236328125,0.05305529836118221,0.008946326717361808,-0.05118213403359986
1772445429664350000,2.943349853515625,-0.023930326163768768,0.0037949353035539386,-0.04978502625254914
1772445429674282000,2.953281982421875,-0.06760580176115036,-0.013308175188675522,-0.0033877644333930217
1772445429684215000,2.963215087890625,-0.0674906509488821,-0.019236688454821706,0.00014877109572407788
1772445429694147000,2.97314697265625,-0.05916296758651733,-0.028862448803707957,-0.019834311854676344
1772445429704079000,2.9830791015625,-0.05489946492314338,-0.021786884394288063,-0.019038020652631528
1772445429714012200,2.99301220703125,-0.03447159392237663,-0.01713840100131929,-0.004647107711568242
1772445429723944000,3.00294384765625,-0.037519291055202485,-0.02015709123536944,-0.011358387119550024
1772445429733877200,3.012877197265625,-0.0438712904304266,-0.02214512324742973,-0.005720523938117549
1772445429743809000,3.02280908203125,-0.0408253468632698,-0.002282923305407166,0.015500561533262952
1772445429753741000,3.032740966796875,-0.015054361268877983,0.007454699920117855,0.008701087818597443
1772445429763674000,3.042674072265625,0.0001432078629732132,0.008573620947450398,-0.011509334189340005
1772445429773606100,3.052606201171875,0.033064065212011336,-0.020774273285642266,-0.016455334657581987
1772445429783539000,3.0625390625,0.05123100554347038,0.001610869262740016,-0.0033227808972937055
1772445429793471000,3.072470947265625,0.07336451141834259,0.0326378756891936,-0.017240119226567912
1772445429803403300,3.0824033203125,0.07280921562314033,0.035694559846073386,-0.0449262382768793
1772445429813336000,3.092336181640625,0.057577159699797625,0.03692147129252553,-0.02818173653054982
1772445429823268000,3.10226806640625,0.019452303966879844,0.039767435308173296,0.009138650402089115
1772445429833201200,3.112201171875,-0.058388476082682605,0.04265424279086292,-0.009399753590265753
1772445429843133000,3.1221328125,-0.0858645120292902,0.03333667160831392,-0.03438908500438556
1772445429853066000,3.13206591796875,-0.08763912048637866,0.018714637342095376,-0.03101877060435945
1772445429862998000,3.141998046875,-0.06430091499686241,0.005735840238258242,-0.02788189735073829
1772445429872930000,3.151929931640625,-0.06759820297658443,-0.009039338763058185,-0.04750989352795295
1772445429882863000,3.161863037109375,-0.052689972180128095,-0.023459493781626223,-0.03806392389249522
1772445429892795100,3.171795166015625,-0.01384323191344738,-0.025275676358118653,-0.00843879960362101
1772445429902728200,3.181728271484375,0.003478489765524864,-0.018948446097970008,-0.01953805058815051
1772445429912660200,3.19166015625,-0.008240589600801467,0.004389174869656563,-0.04794512487375177
1772445429922592300,3.20159228515625,-0.03312134835720062,0.01237052901238203,-0.048842475572274995
1772445429932525000,3.211525146484375,-0.031361937469244004,0.012658332977816461,-0.03279273974063108
1772445429942457000,3.22145703125,-0.032737317475676535,0.0076417469248175615,-0.028469127220741935
1772445429952390000,3.231389892578125,-0.01958791304528713,0.016317074681073428,-0.035436799392453394
1772445429962322000,3.241322021484375,0.00014379238486289978,0.024476269608736036,-0.05191503315172158
1772445429972254000,3.25125390625,0.000011105915904045104,0.027954320982843634,-0.081435260877572
1772445429982187000,3.26118701171875,0.007840192106366157,0.0524841474097222,-0.0783463092857506
1772445429992119000,3.271119140625,-0.018431728747487067,0.05644238351620733,-0.020420897837285883
1772445430002052000,3.281052001953125,-0.048909284597635265,0.03253821470700204,0.017392295847286004
1772445430011984100,3.290984130859375,-0.04122808244526386,0.023414777857065198,0.03477415934881428
1772445430021916200,3.300916259765625,-0.02381868248283863,0.036548400196433066,0.014045691116410308
1772445430031849200,3.31084912109375,-0.006406944432854652,0.020021116830781102,0.02361908195724245
1772445430041781000,3.320781005859375,-0.0104220252931118,0.002444616673141718,0.04418012348415795
1772445430051714300,3.33071435546875,-0.006356091028451919,0.015251856602355836,0.01545813346391078
1772445430061646000,3.34064599609375,-0.011716741278767585,0.0075859981495887034,0.014021118364157155
1772445430071578000,3.350578125,-0.015274141499400137,-0.012558964256569742,0.013592444623308256
1772445430081511000,3.360510986328125,-0.006827800193428993,0.006780819246545434,0.030807312960899433
1772445430091443000,3.37044287109375,0.04958148477077484,0.01890329178199172,0.027647652486735022
1772445430101376000,3.3803759765625,0.06882102276980877,0.016432371623814106,0.013422010826691984
1772445430111308000,3.39030810546875,0.04465396524071693,0.04064670236073434,0.024017789818090385
1772445430121240000,3.400239990234375,-0.04107727579772472,0.04782689618840814,0.06736676884088665
1772445430131173000,3.410173095703125,-0.08976151946783065,0.026898382189124822,0.0863654472887516
1772445430141105200,3.420105224609375,-0.09119476714134216,0.023979718263447282,0.06426310373712331
1772445430151038200,3.4300380859375,-0.052665422260761256,0.010488953049480915,0.04959035763039719
1772445430160970000,3.439969970703125,-0.03729308108389377,0.020150953755527733,0.022049184025707654
1772445430170902000,3.449902099609375,-0.0560708467900753,0.0291746565580368,-0.0043113375602057205
1772445430180835000,3.4598349609375,-0.10216448944509028,0.04209668197333812,-0.015101474646502173
1772445430190767000,3.46976708984375,-0.14046353270113468,0.04120791644006967,-0.007516887569287791
1772445430200700200,3.4797001953125,-0.12945347838699817,0.04599975382648408,0.0037267882710555564
1772445430210632200,3.489632080078125,-0.07910860802829266,0.04577946213930845,0.0063574153358582405
1772445430220564200,3.499564208984375,0.00002396539747714996,0.04015395040772855,-0.0384436028258875
1772445430230497000,3.5094970703125,0.07567395740449429,0.04237447600141167,-0.07875257026539184
1772445430240429000,3.519428955078125,0.12349544676542282,0.032234190259128805,-0.08970260148798115
1772445430250362000,3.529362060546875,0.11093114874660968,0.029874183129519224,-0.09369335162458009
1772445430260294000,3.5392939453125,0.05631809954941273,0.05190298652090132,-0.05781566746367607
1772445430270226000,3.549225830078125,0.011554828715324402,0.039898952733352776,-0.013732296051993035
1772445430280159000,3.559158935546875,-0.007341010412573814,0.038386721539497376,0.0031796301165362816
1772445430290091000,3.569091064453125,-0.013804653468728065,0.03714263976253569,0.026357831871905362
1772445430300024000,3.579024169921875,-0.012479542344808577,0.02994578706100583,0.04971800716463476
1772445430309956000,3.5889560546875,-0.008918050470948218,0.01926452630981803,0.05084033485860563
1772445430319888100,3.59888818359375,-0.03426525769531727,0.008652969793975352,0.041912986836349586
1772445430329821200,3.6088212890625,-0.05155073901712894,-0.0021373773548752067,0.029719586222851646
1772445430339753200,3.618753173828125,-0.07243862874507903,-0.014874255461618304,0.026728532914398237
1772445430349686300,3.628686279296875,-0.07930442286133765,-0.0053037324313074345,0.03695647867382504
1772445430359618300,3.638618408203125,-0.08189736196398735,-0.012867226488143205,0.04547281190950889
1772445430369550000,3.648550048828125,-0.09936521411538124,-0.004854381228610873,0.0527612290517427
1772445430379483000,3.65848291015625,-0.08138415174484252,0.0014998101036995649,0.040646405533212235
1772445430389415000,3.668414794921875,-0.0439496163636446,0.005017535901069641,0.02439385202229023
1772445430399348000,3.678347900390625,0.017341595423221588,-0.00738061177060008,-0.006819662552746013
1772445430409280000,3.688280029296875,0.05310147559046745,0.0031227351304143666,-0.02574169556782581
1772445430419212000,3.6982119140625,0.06419394749104976,0.011919935700669885,-0.03130592383253388
1772445430429145000,3.70814501953125,0.014018003958463667,-0.0000047492403537034985,-0.039519355998351234
1772445430439077000,3.7180771484375,-0.03682663261592388,0.019031448206305503,-0.029612025061994788
1772445430449010200,3.72801025390625,-0.025707272708415982,0.013092778872326016,-0.034297255702200345
1772445430458942200,3.737942138671875,0.009860299757122992,-0.005552592625841498,-0.04639996865782887
1772445430468874000,3.7478740234375,0.04354571173787117,-0.001235094752907753,-0.0593381140908692
1772445430478807000,3.75780712890625,0.0513607694029808,0.0075589640121906995,-0.05650616946741938
1772445430488739000,3.767739013671875,0.026003040784597396,0.00670855772793293,-0.04365100787640549
1772445430498672000,3.777672119140625,-0.007410568517446517,0.0030103607971221206,-0.02546173241555225
1772445430508604200,3.787604248046875,-0.03756254567503929,0.017404212330654263,-0.017894512031669727
1772445430518536200,3.7975361328125,-0.05651391438245773,0.02931472261585295,-0.02169488612874411
1772445430528469000,3.807468994140625,-0.06952420260310173,0.037825726655870674,-0.0034714024376124144
1772445430538401000,3.817401123046875,-0.05743395183682441,0.03617043372951448,-0.018881504641869103
1772445430548334000,3.827333984375,-0.03977437650561332,0.031181247140094636,-0.024330477063031864
1772445430558266000,3.83726611328125,-0.013854337829351424,0.026549203425273296,-0.0069082221856107935
1772445430568198000,3.847197998046875,-0.02041325795352459,-0.00543386161699891,0.04140811518728733
1772445430578131000,3.857130859375,-0.02940437366068363,-0.030278964538127184,0.03624006033304613
1772445430588063000,3.86706298828125,-0.0209095170378685,-0.029153467639535663,0.0034897418119013307
1772445430597996000,3.87699609375,0.006910802301764488,-0.013257248719036578,-0.029330842633591963
1772445430607928000,3.886927978515625,-0.000730067840218544,-0.01932334382496774,-0.033150537919066844
1772445430617860000,3.896860107421875,-0.010919453421235084,-0.038775647791847584,-0.05555533501598984
1772445430627793200,3.906793212890625,-0.006741290953755378,-0.04480426043160259,-0.034707950828364115
1772445430637725200,3.91672509765625,0.01557341670691967,-0.04542860287502408,-0.01014037707382813
1772445430647658000,3.926657958984375,0.008282675176858902,-0.0517448733497411,-0.011045070828590542
1772445430657590300,3.93659033203125,-0.04106383179426193,-0.032820027323067186,-0.029380298665352165
1772445430667522300,3.946522216796875,-0.09884498963356017,-0.012593889439478517,-0.014034722197824158
1772445430677455400,3.956455322265625,-0.1580780998468399,-0.0005645750802010297,0.006014492782857268
1772445430687387400,3.966387451171875,-0.17957681494951247,0.0016334464207291603,0.02726736619856674
1772445430697319400,3.9763193359375,-0.16628186456859112,0.012020984922349452,0.03816143858337309
1772445430707252500,3.98625244140625,-0.10943769531846045,0.010546455390378831,0.014006509883492254
1772445430717184500,3.9961845703125,-0.04762976618111133,0.012720000037178396,-0.01445116664476227
1772445430727117600,4.00611767578125,-0.045212768167257306,0.028337694277241823,-0.029675861245556732
1772445430737049300,4.01604931640625,-0.038186230531334873,0.023592764772474763,-0.004864034972945228
1772445430746981400,4.0259814453125,-0.002122398981451988,0.008617021697759629,-0.0031723281594924625
1772445430756914400,4.03591455078125,0.05931085162460804,0.009036781479790807,-0.015754915320244617
1772445430766846500,4.045846435546875,0.09662029932141303,0.008594663735479116,-0.05805027537057176
1772445430776779500,4.055779541015625,0.10152093084454536,-0.0035951018825173377,-0.07678495085369795
1772445430786711600,4.065711669921875,0.07220131285786628,0.011561916043236852,-0.039321034114388746
1772445430796643600,4.0756435546875,0.005574585261940956,-0.0008453647829592228,-0.01929382546953857
1772445430806576400,4.085576416015625,-0.07265256375670433,0.014519523739814758,-0.011908893716847523
1772445430816508400,4.09550830078125,-0.07193126374483108,0.011597060421854257,0.018507648094487374
1772445430826441500,4.10544140625,-0.03752688983976841,-0.015277575565502046,-0.003925639877980574
1772445430836373200,4.115373291015625,0.021183657804131506,-0.026041911490261554,-0.024457738438202068
1772445430846305300,4.12530517578125,0.07088087790906429,-0.008558861769735812,-0.03803487132794689
1772445430856238300,4.13523828125,0.03469663484990597,0.013982713449373841,-0.029045719249011014
1772445430866170400,4.14517041015625,-0.08297346676290035,0.024159970201179385,-0.00795589547448326
1772445430876103400,4.155103515625,-0.15812895325124263,0.054770066389814014,0.02880914771389216
1772445430886035500,4.165035400390625,-0.1552548591196537,0.0347137321151793,0.06371783157901373
1772445430895967500,4.174967529296875,-0.10150514875352382,0.004338175334781408,0.03022604247422423
1772445430905900500,4.184900634765625,-0.026935353198647496,-0.010080299183353781,0.012672398035787045
1772445430915832600,4.19483251953125,0.04203589169681072,-0.0007442424960434436,-0.0005263619616627693
1772445430925765600,4.204765625,0.05750701707303524,0.007019742568954825,-0.051233928152918815
1772445430935697700,4.21469775390625,0.0316799173772335,0.01683598398864269,-0.065250119180209
1772445430945629400,4.22462939453125,0.007080313649773597,0.025587372655794024,-0.033870970281260085
1772445430955562200,4.234562255859375,-0.013794132074713706,0.01699453555122018,-0.027687934264773503
1772445430965494300,4.244494384765625,-0.010421440771222115,0.011914967264607548,-0.04325759724518284
1772445430975427300,4.25442724609375,-0.010799626433849335,0.004811930326372385,-0.039292177912662735
1772445430985359400,4.264359375,0.0039472763210535045,-0.0095990915376693,-0.027438092256127856
1772445430995291400,4.27429150390625,0.029179917255043982,0.002388721767440438,-0.04200313563810196
1772445431005224400,4.284224365234375,0.04696808740198612,0.01136025599129498,-0.042570327367074785
1772445431015156500,4.294156494140625,0.01493687236905098,0.03057502487525344,-0.03441477656806819
1772445431025089500,4.304089599609375,-0.04876023151576519,0.0336011677633971,-0.012522395105846226
1772445431035021600,4.314021484375,-0.10578384898602962,0.04046272409595549,0.014912509679351933
1772445431044953300,4.323953369140625,-0.09606500352621078,0.03753353877626359,0.03637049091283697
1772445431054886400,4.333886474609375,-0.049527124235033984,0.020936916501447557,0.031264600874879395
1772445431064818400,4.343818359375,-0.0059475102275609966,0.003489522616192698,0.01609115697070956
1772445431074751500,4.35375146484375,0.007455576702952385,0.027502558627352118,-0.005455867952830158
1772445431084683500,4.36368359375,-0.006353168419003487,0.030019729080051183,-0.018886454811622388
1772445431094615600,4.373615478515625,-0.019109189617633818,0.04144201745688915,-0.003053304889705032
1772445431104548400,4.38354833984375,-0.02636310626864433,0.03163710114881396,0.029354734965832904
1772445431114480400,4.39348046875,-0.015370587611198425,0.020989815732464192,0.017054928535525687
1772445431124412400,4.403412353515625,-0.013651508733630179,0.028640841942280528,0.01990449101405684
1772445431134345500,4.413345458984375,-0.0059796589314937585,0.02610927763804793,0.021240657821530475
1772445431144277200,4.42327734375,0.01533200916647911,0.004932122639939189,-0.006980702899931929
1772445431154210300,4.433210205078125,0.04419920721054077,-0.003222103851661086,-0.03385591427602339
1772445431164142300,4.443142333984375,0.052637365210056304,-0.014633943899720907,-0.028668634131504223
1772445431174074400,4.453074462890625,0.02460895607769489,-0.03469802308939397,-0.010644207543274387
1772445431184007400,4.46300732421875,0.016501637467741966,-0.04725464925840497,-0.0280169515900081
1772445431193939500,4.472939453125,-0.009395604854822158,-0.025500863416120408,-0.05092057418769691
1772445431203872500,4.48287255859375,-0.03512041321992874,-0.029105536844581364,-0.03407791386309545
1772445431213804500,4.492804443359375,-0.08275485557615757,-0.018632438951358198,-0.02450110265589319
1772445431223736600,4.502736572265625,-0.14519231478869915,-0.008582096514850854,0.012638354202290064
1772445431233669600,4.512669677734375,-0.2097650324642658,-0.013729177079722285,0.03903822141790297
1772445431243601700,4.5226015625,-0.22077859390974044,-0.005346548659726977,0.0375851639322238
1772445431253534500,4.532534423828125,-0.1759124472230673,0.0042779695801436896,0.054550080663315015
1772445431263466200,4.54246630859375,-0.0907616364210844,-0.0061903060074895615,0.013271501006674952
1772445431273398300,4.552398193359375,0.009276362389326095,-0.016459990283101796,-0.03926691104066558
1772445431283331300,4.562331298828125,0.07843231620192527,-0.023860037406533956,-0.049148089189035814
1772445431293263400,4.572263427734375,0.07387479902803898,-0.015802110896259547,-0.053147680219216266
1772445431303196400,4.582196533203125,0.04513678032159805,0.009150909378752112,-0.04816422011768445
1772445431313128400,4.59212841796875,0.03767068222463131,0.02141388636343181,-0.025811646398343144
1772445431323060500,4.602060546875,0.04504208777546882,0.02624861304350197,-0.018493414073158056
1772445431332993500,4.61199365234375,0.02924538370668888,0.008239785883203149,-0.01521947043640539
1772445431342925600,4.621925537109375,0.016017653343081473,-0.0013520721960812807,-0.009005564357619731
1772445431352858600,4.631858642578125,0.0026467151165008545,-0.014608151871338486,-0.0051429432458709925
1772445431362790400,4.641790283203125,-0.01610708519220352,-0.019676614242047072,-0.011742757069435901
1772445431372722400,4.651722412109375,-0.032461423143744464,-0.027933862716704606,-0.0024590013915207235
1772445431382655500,4.661655517578125,-0.033548633858561515,-0.03217939133197069,-0.0068219093087594955
1772445431392587500,4.67158740234375,-0.05411971272230148,-0.03507540503442287,-0.011351104570459574
1772445431402519600,4.68151953125,-0.07621171754300594,-0.029517770907282827,-0.012059814528818241
1772445431412452400,4.691452392578125,-0.08726853360831736,-0.020137802013009784,-0.02193994693099521
1772445431422384400,4.70138427734375,-0.10213467882871627,-0.008436331368610262,-0.021030965160182675
1772445431432317400,4.7113173828125,-0.1382148769915104,-0.011350465249642729,-0.023521973691741003
1772445431442249500,4.72124951171875,-0.1294827044814825,0.02223302072659135,-0.008971470291772856
1772445431452181200,4.73118115234375,-0.09295125541985035,0.02857267207689583,-0.004305067649623379
1772445431462114300,4.7411142578125,-0.022265023300051687,0.02735452845878899,-0.022848152383673003
1772445431472046300,4.75104638671875,0.05820727429687977,0.026623291574791073,-0.04639902794291265
1772445431481979400,4.7609794921875,0.10514321299493312,0.014604060218110679,-0.05482954605866689
1772445431491911400,4.770911376953125,0.13665303450226782,-0.007086597260087728,-0.038123462926852515
1772445431501843500,4.780843505859375,0.1354910049855709,0.0029046354003250596,-0.03307196539067663
1772445431511776500,4.790776611328125,0.08589724525511264,0.010601838839426636,-0.03349580312620382
1772445431521708500,4.80070849609375,0.03572480885386467,0.0019433160874992607,-0.02140152007220313
1772445431531641600,4.8106416015625,-0.016443185278773306,-0.0008846738800406456,-0.015695723345759322
1772445431541573600,4.82057373046875,-0.0736643711477518,0.00709390378370881,0.005754796100477687
1772445431551505400,4.83050537109375,-0.11455050828754901,-0.011707681189477443,0.01664178572394885
1772445431561438500,4.8404384765625,-0.12305354821681976,-0.03220218768566847,-0.014865793593949638
1772445431571370200,4.850370361328125,-0.12636954089701175,-0.0399349008295685,-0.02309231357020326
1772445431581303300,4.86030322265625,-0.08808686425387859,-0.045879342317208645,-0.02850169833307154
1772445431591235300,4.8702353515625,-0.04541384369730949,-0.054537426677718756,-0.04183746934814844
1772445431601167400,4.88016748046875,-0.004941548055410385,-0.049813101569563145,-0.056205204626312476
1772445431611100400,4.890100341796875,0.015683306822180748,-0.035834041381999845,-0.07028324080947786
1772445431621032400,4.900032470703125,0.0011555997759103774,-0.01027289914600551,-0.06460969781824387
1772445431630964500,4.909964599609375,-0.03196808666884899,0.009535305586457252,-0.06211442410352174
1772445431640897500,4.9198974609375,-0.07039806282818317,0.021136311531066893,-0.03624348526599351
1772445431650829600,4.92982958984375,-0.10936989077925681,0.03385200071930885,0.007289700350444763
1772445431660763000,4.939762939453125,-0.10534370400309562,0.03185183987803757,0.031190864351810885
1772445431670695000,4.94969482421875,-0.08041559897363186,0.015134806093946098,0.03110219968766905
1772445431680627000,4.959626953125,-0.006778115832805633,0.018920754373446105,0.005247440233384259
1772445431690559700,4.969559814453125,0.08258709779381751,0.019525953724980352,-0.025312012613401748
1772445431700492000,4.979491943359375,0.13934943397939203,0.012770268919691442,-0.036768230659305116
1772445431710424800,4.9894248046875,0.15857202084362507,0.013628347053751348,-0.046374322759918866
1772445431720356600,4.999356689453125,0.11804185753464698,0.001912263362109661,-0.05899555686404928
1772445431730288600,5.00928857421875,0.0582493598729372,0.00839439192302525,-0.0545419978215592
1772445431740221700,5.0192216796875,-0.01117839661836624,0.024534137275815007,-0.001565577949443832
1772445431750153700,5.02915380859375,-0.08956102845966815,0.028926600081101057,0.03396516050389036
1772445431760086800,5.039086669921875,-0.16675474277734756,0.02172455974780023,0.05849179945983923
1772445431770018800,5.049018798828125,-0.20579028361439702,0.03323438027761876,0.07320189103542361
1772445431779950800,5.058950927734375,-0.1798240677088499,0.02088584390133619,0.06259317949721589
1772445431789884000,5.0688837890625,-0.12483692450225352,0.01908442050255835,0.026825015558814627
1772445431799816000,5.07881591796875,-0.0668371554762125,0.033850027957931156,-0.006157198322331532
1772445431809748000,5.088748046875,-0.0027951836764812466,0.016372019738703964,-0.01402086720240768
1772445431819681000,5.098680908203125,0.05655716900229454,0.004453253081813454,-0.005685877316421829
1772445431829612800,5.10861279296875,0.09311024537384509,-0.007116261745989322,-0.030264063796517436
1772445431839545600,5.118545654296875,0.09636895490884781,-0.0015375117655843495,-0.0415561773218913
1772445431849478000,5.128477783203125,0.0838122556746006,-0.0010131225652992724,-0.030398394233291035
1772445431859410000,5.138409912109375,0.05162088164389133,0.021188991566374896,-0.015552072524791582
1772445431869342700,5.1483427734375,0.024491467177867886,0.04268668375574052,-0.0032281408668030052
1772445431879274800,5.158274658203125,0.00438449869453907,0.04061711094006896,0.004648442293773405
1772445431889207800,5.168207763671875,-0.007762450695037841,0.026612624050304293,0.01105569268730469
1772445431899139800,5.178139892578125,0.023203765454888343,0.016656681898981333,-0.0050888201721478255
1772445431909072000,5.18807177734375,0.030889059260487555,0.022329101512208578,-0.02925977755822241
1772445431919005000,5.1980048828125,0.01453296774327755,0.01617635103613138,-0.034793158593517726
1772445431928936700,5.207936767578125,-0.02294774486720562,0.013545198814943432,-0.020721378621202893
1772445431938869800,5.217869873046875,-0.07261515435576439,0.022708017827197908,0.003948669127118773
1772445431948801800,5.2278017578125,-0.08476035017967223,0.01918481213711202,0.014037617407809011
1772445431958733800,5.23773388671875,-0.05846095679700374,0.015916457990929483,0.013722436811681836
1772445431968667000,5.2476669921875,-0.012685878571867941,0.005133928822353482,0.021663970400672406
1772445431978599000,5.257598876953125,-0.01885901424884796,0.005044643103703856,0.007308838875754736
1772445431988531000,5.267531005859375,-0.008720482072234153,0.019289879946783182,-0.0027370054821483788
1772445431998463700,5.277463623046875,-0.000824175864458084,0.030524390666559337,0.002800257143820636
1772445432008396000,5.28739599609375,-0.013704115703701973,0.017921295007318257,-0.008533142806589603
1772445432018328800,5.297328857421875,0.02795826650559902,-0.0004313771545886993,-0.023334520261664875
1772445432028260600,5.307260498046875,0.07492343129813671,-0.010682429794967174,-0.00738864894658327
1772445432038192600,5.317192626953125,0.06776888336837292,-0.010601984969899057,-0.0028749709144234655
1772445432048125700,5.327125732421875,0.02679974412024021,-0.01342164550051093,-0.016871272214443886
1772445432058057700,5.3370576171875,-0.019583236870169638,-0.01795863134302199,0.014998039388202596
1772445432067990800,5.34699072265625,-0.0345686245560646,-0.010152779897674918,0.030101144302787722
1772445432077922800,5.3569228515625,-0.01704991900026798,0.0006475041233003139,0.009808231643168255
1772445432087854800,5.366854736328125,-0.017932547053694722,-0.02090608297176659,0.014385083705186843
1772445432097788000,5.376787841796875,-0.028874796828627584,-0.0343592926543206,0.0199889293109416
1772445432107720000,5.386719970703125,-0.10232698653042316,-0.046226548319682474,0.04553849299028515
1772445432117651700,5.396651611328125,-0.16560498822033404,-0.02952960747554898,0.05138623720437754
1772445432127585000,5.4065849609375,-0.14011632669866084,-0.010429477947205305,0.03893739595850929
1772445432137516800,5.416516845703125,-0.05724515126645565,-0.037433366337418554,0.008923379666614346
1772445432147449900,5.426449951171875,0.04163081802725792,-0.06285254281945526,-0.04295536289559677
1772445432157382000,5.4363818359375,0.09217033417522907,-0.05650668092407286,-0.05431795240787323
1772445432167314000,5.44631396484375,0.0462152232080698,-0.03480184879004955,-0.05948312118528411
1772445432177246700,5.456246826171875,-0.02030862853527069,-0.03391483682245016,-0.052579492976400063
1772445432187178800,5.4661787109375,-0.05575345140397548,-0.02782872184179723,-0.014345126154134049
1772445432197111800,5.47611181640625,-0.04795476035177707,-0.03547580252885818,-0.011834727935516275
1772445432207043800,5.4860439453125,-0.04733166001737117,-0.038672187417373056,-0.03992610103518236
1772445432216976000,5.495975830078125,-0.04526186800599098,-0.02777903748117387,-0.06167279498297721
1772445432226909000,5.505908935546875,-0.06630465603470802,-0.018637188191711902,-0.03526245203912258
1772445432236840700,5.5158408203125,-0.12187632113099098,-0.0064252838071435685,-0.016386559720709917
1772445432246772700,5.525772705078125,-0.11913783607780933,0.008554039464145898,-0.003961058251233772
1772445432256705800,5.535705810546875,-0.05335515809059143,-0.0023919366378337146,0.02681252596999984
1772445432266637800,5.545637939453125,0.04208382249176502,-0.015145181357488035,-0.0007926162489922717
1772445432276571000,5.55557080078125,0.1086602812051773,-0.01972264534085989,-0.04414521656755823
1772445432286503000,5.5655029296875,0.11536416275799274,-0.018586700113490222,-0.05378257145611569
1772445432296435000,5.57543505859375,0.06124094290435314,-0.014339783258736133,-0.0814426404664293
1772445432306368000,5.585367919921875,-0.016891513568162916,-0.009892667656764387,-0.08957493825401179
1772445432316300000,5.595300048828125,-0.09065876056849956,-0.011773732163012028,-0.04952586385970935
1772445432326232800,5.60523291015625,-0.14136369641125202,-0.013179580372944474,-0.006132940663909539
1772445432336164600,5.61516455078125,-0.14202479066848753,-0.014247574930638074,0.00479159535781946
1772445432346096600,5.6250966796875,-0.10023615173101424,-0.01697794974260032,0.023260240315902046
1772445432356029700,5.63502978515625,-0.07357669286429881,-0.01670095943212509,0.025890675584459677
1772445432365961700,5.644961669921875,-0.04887012163102627,-0.0015492022033780813,0.017814030673983506
1772445432375893800,5.654893798828125,-0.03283668619692325,-0.00416347635500133,0.02468928673833143
1772445432385826800,5.664826904296875,-0.02994680997431278,0.002809504462778568,0.037593187408475205
1772445432395758800,5.6747587890625,-0.010862170276045798,0.0007750029604882002,0.04370441399749834
1772445432405692000,5.68469189453125,0.010802549043297766,-0.009942352017387747,0.03393470600012224
1772445432415624000,5.6946240234375,0.032358547291159626,-0.005899433302134275,0.00025516207115724684
1772445432425555700,5.7045556640625,0.0409475119382143,-0.0004864683426916599,-0.0019711311096092684
1772445432435488800,5.71448876953125,0.051069677501916884,-0.004946881817653775,-0.006541635629232041
1772445432445420800,5.7244208984375,0.017333412116765975,0.02347980591729283,-0.018939956830837764
1772445432455353900,5.734353759765625,-0.01970949359834194,0.040951311330497266,-0.01394357788222842
1772445432465286000,5.744285888671875,-0.014535305830836296,0.029073095879703758,-0.014997393217519856
1772445432475218000,5.754218017578125,0.0038379707276821134,0.010923472009226678,-0.02610934613670688
1772445432485150700,5.764150634765625,0.004409633135795593,0.01004025943391025,-0.03587957472389098
1772445432495082800,5.774082763671875,-0.03738835815191269,0.007556625924631953,-0.02955240839582402
1772445432505014800,5.784014892578125,-0.027875264397263524,0.007759308889880776,-0.023978266091877594
1772445432514947800,5.79394775390625,-0.017447978407144547,0.00018025193773210047,-0.046592787816189224
1772445432524880000,5.8038798828125,0.02073825212419033,-0.0033317747712135314,-0.03673439688836224
1772445432534813000,5.81381298828125,0.025173019701242444,0.009412555989623069,-0.034501952528022226
1772445432544744700,5.82374462890625,0.015531915652751922,0.022656506835669277,-0.032309447452425956
1772445432554676700,5.8336767578125,0.023403087419271468,0.019696780247241256,-0.007576654932508245
1772445432564609800,5.84360986328125,0.012287234643101691,0.02149381973184645,-0.01331386514394544
1772445432574541800,5.853541748046875,0.018407178828120232,0.025560849975049493,-0.029013136720238253
1772445432584473900,5.863473876953125,0.007186112111806869,0.027070085494220256,-0.00721889100340195
1772445432594407000,5.873406982421875,-0.024468086302280423,0.01878339172936976,-0.0132329271285329
1772445432604339000,5.8833388671875,-0.03340425695180893,0.008826938121393322,-0.02212009840402752
1772445432614272000,5.89327197265625,-0.028388474616408345,0.010204656215384602,-0.016732660611486063
1772445432624204000,5.9032041015625,-0.03037117286622524,0.0021499445755034682,-0.017047379983309654
1772445432634135800,5.9131357421875,-0.045237902608513826,0.007901201578602194,-0.016860351244919
1772445432644068600,5.923068603515625,-0.04801145897507667,0.020757249085605143,-0.02288551155226305
1772445432654000000,5.933000244140625,-0.0644406157284975,0.026024083572626113,-0.007958639987418428
1772445432663933000,5.942932861328125,-0.07824468467533588,0.03401091760806739,-0.004619403428956866
1772445432673865000,5.952864990234375,-0.049881929022073744,0.04092909949868917,-0.0031166250500362365
1772445432683797200,5.96279736328125,-0.018636895930767058,0.037881256235390896,-0.009287340441066771
1772445432693730000,5.97272998046875,0.014585574713349342,0.02377988484241068,0.0017580957137048243
1772445432703662000,5.982662109375,0.031385318344831464,0.0043831104550510645,0.004492397782113403
1772445432713594000,5.992593994140625,0.006887421426177025,0.01875518854819238,-0.007917376395268365
1772445432723527200,6.002527099609375,-0.012511106526851654,0.024172172095626592,0.005684438844583928
1772445432733459000,6.012458984375,-0.0004541735082864761,-0.0013802753772586584,0.01461084615192376
1772445432743392000,6.02239208984375,0.028247020319104192,-0.017347367576882242,0.022048412274150178
1772445432753324000,6.032323974609375,0.027491233515739438,-0.028737872575968503,0.023911648862762376
1772445432763256000,6.042256103515625,0.013846154522895813,-0.025941519855707883,0.026545678027626127
1772445432773189000,6.052189208984375,-0.016022329518198965,-0.020187559438869355,0.054028143715020266
1772445432783121200,6.06212109375,-0.027390695750713345,-0.02177088310755789,0.060239985700882966
1772445432793053200,6.07205322265625,-0.04940729724764824,-0.014713073550537227,0.03495053654573858
1772445432802986200,6.081986328125,-0.0541015925437212,-0.005223141475766897,0.005200518652005121
1772445432812918300,6.091918212890625,-0.022867665368318555,-0.01160977377295494,0.015568786197574808
1772445432822851000,6.10185107421875,0.004229600393772125,-0.0222367470536381,-0.02262512531671673
1772445432832783000,6.111783203125,0.014615385329723358,-0.0007405892342329024,-0.0428558389107231
1772445432842715100,6.121715087890625,0.023689503145217894,0.018568506869673727,-0.01030502958362922
1772445432852648000,6.13164794921875,-0.010037994411587715,0.001716959985718131,0.029468196144513785
1772445432862580000,6.141580078125,-0.04908347212076187,0.016102043690904976,0.03232657211716287
1772445432872513000,6.151512939453125,-0.04972352358996868,0.016433321471884844,0.05391487433258444
1772445432882445000,6.161445068359375,-0.006795651489496231,0.008042728941142559,0.058771045659482476
1772445432892377000,6.171377197265625,0.021368951243162154,-0.015317615314945578,0.03739060490792617
1772445432902310100,6.18131005859375,0.035789690783619876,-0.020767989675328134,0.006401071814494207
1772445432912242200,6.1912421875,0.04128887272179126,-0.02863901531137526,-0.0026468521138187494
1772445432922174200,6.20117431640625,0.054363458350300785,-0.031184023619070647,-0.0017089776086620986
1772445432932107300,6.211107177734375,0.03096738519370556,-0.03287000394463539,0.00811872591995634
1772445432942039000,6.2210390625,0.002023614782094955,-0.02519939625151455,0.03316469430858269
1772445432951972000,6.23097216796875,-0.06470540414452552,-0.014636574248224496,0.050576697220047935
1772445432961904000,6.240904052734375,-0.1366372524112463,0.005617109229415655,0.06648992207427509
1772445432971836200,6.250836181640625,-0.17064356690943241,0.008240151209384202,0.08114878121954389
1772445432981769000,6.26076904296875,-0.1524970848441124,-0.020007161370664835,0.07629338621078059
1772445432991701200,6.270701171875,-0.13035539566278456,-0.029247648729011415,0.03845484573910944
1772445433001633300,6.28063330078125,-0.08515197984576225,-0.02792816362828016,0.006795688022114336
1772445433011566000,6.290566162109375,-0.0638701223641634,-0.03900952961295843,0.00873125919457525
1772445433021498000,6.300498046875,-0.014890695139765738,-0.04087495815865695,0.0017339659194462
1772445433031431200,6.31043115234375,-0.011076689809560775,-0.040640564880892634,0.002900470681861043
1772445433041363000,6.320363037109375,-0.016840075641870497,-0.03391096436493098,-0.002743398690316826
1772445433051295000,6.330294921875,-0.02355155597925186,-0.022097338582947847,-0.0001605151908006519
1772445433061228000,6.34022802734375,-0.021762334474921225,0.003861205472797155,0.01565670194304548
1772445433071160000,6.35016015625,-0.028965982243418693,0.0076790101952850815,0.02709669037335552
1772445433081093000,6.360093017578125,-0.023466800305247306,-0.0075401131812483065,-0.002437456279993057
1772445433091025200,6.370025146484375,0.0014940379500389099,-0.012378346992656587,0.00006682729166932403
1772445433100957200,6.379957275390625,0.026507483175396918,-0.023540596193820238,-0.005949382524238899
1772445433110890200,6.38989013671875,0.04037935666143894,-0.045939621137082574,-0.027615526615688574
1772445433120822300,6.399822265625,0.03272971869111061,-0.048097968214750285,-0.01467212048564106
1772445433130754000,6.409754150390625,-0.010120996519923209,-0.03443754552230239,-0.017057462985906748
1772445433140687000,6.41968701171875,-0.055414428707957264,-0.01981507286466658,-0.0047589123643469065
1772445433150619100,6.429619140625,-0.09018705140352248,-0.000152779408916831,0.007452526229340582
1772445433160552000,6.439552001953125,-0.10319090988337994,0.005877221470326185,0.01257491987752728
1772445433170484000,6.44948388671875,-0.06158230368793011,-0.029011574950814245,0.01989981940551661
1772445433180416000,6.459416015625,-0.002599368843436241,-0.023685849883407353,0.013622675364790483
1772445433190349000,6.46934912109375,0.05030863000154495,-0.009983195484429597,0.0036039519092533733
1772445433200281000,6.479281005859375,0.07233399932682513,0.006909487127512693,-0.023358946883445603
1772445433210213000,6.489213134765625,0.053663201126456256,0.01694426666870713,-0.033453877380350605
1772445433220146200,6.499146240234375,0.019447043269872663,0.0269238819565624,0.0021463552457746116
1772445433230078200,6.509078125,-0.003707622346282005,0.027301994553953407,0.02504091775417328
1772445433240011300,6.51901123046875,-0.025671616873145103,0.023074366921558974,0.010391931548947467
1772445433249943000,6.528943115234375,-0.026539047357439994,0.013770093612000345,-0.010869011008786037
1772445433259875000,6.538875,-0.0179641112357378,-0.004661708200722933,-0.026059538478497415
1772445433269808000,6.54880810546875,-0.017018354818224907,0.0032445348791778086,-0.033189408624731
1772445433279740200,6.558740234375,-0.000058452188968658445,-0.005369052752479911,-0.03899201222257689
1772445433289672200,6.568672119140625,-0.020488661277294158,-0.00008921265341341495,-0.035693363402830434
1772445433299605200,6.578605224609375,-0.03930675899386406,-0.005025207750871777,-0.029019465996325013
1772445433309537300,6.588537353515625,-0.046325697845220566,0.0030971622977405784,-0.01877930920929648
1772445433319470000,6.598469970703125,-0.04422375712990761,-0.0013761106587946415,-0.02652860816181637
1772445433329402000,6.608402099609375,-0.029379239219427106,-0.00438354884646833,-0.04010211062263697
1772445433339334000,6.618333984375,-0.028765491235256194,0.0004066811047494411,-0.0453497654851526
1772445433349267000,6.628266845703125,-0.02785188352167606,-0.009390928679704666,-0.019440503931231794
1772445433359199000,6.638198974609375,-0.030282910060882566,0.004658054938912391,-0.018995207849144935
1772445433369131000,6.648131103515625,-0.03333879050016403,0.00811206785030663,-0.006115660735545679
1772445433379064000,6.65806396484375,-0.016356091517210007,0.006685030721873045,0.009930935574229806
1772445433388996000,6.66799609375,0.011942366728186606,0.006402560518682003,0.013049661249807104
1772445433398929200,6.67792919921875,0.005973813712596893,0.017218699695914982,-0.027239715573238208
1772445433408861200,6.687861083984375,-0.018135960671305656,0.0346030382823199,-0.06054234791463241
1772445433418793200,6.697793212890625,-0.028171032473444938,0.04743972350172698,-0.04272762768748216
1772445433428726300,6.707726318359375,-0.0007815057665109634,0.04312675567343831,-0.025958306593727318
1772445433438658000,6.717657958984375,0.03896832081973552,0.027073446495085952,-0.026608094005659222
1772445433448590000,6.727590087890625,0.06517360617816448,0.01312346627153456,-0.000981613182183355
1772445433458523100,6.737523193359375,0.0538619385689497,0.00016556582525372503,0.010538829206349328
1772445433468455200,6.747455078125,-0.0011778116077184677,-0.006370557945221662,0.009084292149636894
1772445433478388000,6.757387939453125,-0.05478899028599262,0.011759557507187128,0.013046829971903933
1772445433488320000,6.767320068359375,-0.07206628830134869,0.015198665110394357,0.04331758380411192
1772445433498252000,6.777251953125,-0.05955518177449703,-0.01132131222039461,0.02695423142905347
1772445433508185000,6.78718505859375,-0.039844519132375716,-0.01368446115516126,-0.002702893149992451
1772445433518117000,6.7971171875,-0.04036006743907928,-0.01388597507663071,-0.006887996814912185
1772445433528049000,6.807048828125,-0.04192600158154964,-0.014521277305483818,0.011814045907091349
1772445433537982200,6.816982177734375,-0.06521569175422191,-0.00882847249135375,0.013362553990725426
1772445433547914000,6.8269140625,-0.10311024586260319,0.00801978645697236,0.018500464868452398
1772445433557847000,6.836846923828125,-0.13555471787154674,0.031897578715905546,0.05874432204933837
1772445433567779000,6.846779052734375,-0.12913666752278805,0.03601078618839383,0.08080044270590879
1772445433577711000,6.856711181640625,-0.09042086015939713,0.023163798770681022,0.0754530903285835
1772445433587644200,6.86664404296875,-0.04703355385363102,0.021258330475538968,0.06458343999898061
1772445433597576200,6.876576171875,0.010793196693062782,0.03268807150647044,0.027749153799563643
1772445433607508200,6.88650830078125,0.03831307178139686,0.009730170571431516,-0.012890497765876353
1772445433617441300,6.896441162109375,0.02157353390455246,0.006072451781481504,-0.037188561263494194
1772445433627373300,6.906373291015625,-0.0026677579045295712,0.010549597195535897,-0.021358804308483376
1772445433637306000,6.91630615234375,-0.026817279776930807,0.019394874691218138,0.001019607105012983
1772445433647238100,6.926238037109375,-0.03799100022017955,0.025152196108922362,0.0036298809349536894
1772445433657170700,6.936170654296875,-0.01818973668515682,0.026433468091115353,0.01496313932146877
1772445433667103700,6.946103759765625,0.017829671201109884,0.02395999064967036,-0.003148271430470049
1772445433677035800,6.956035888671875,0.04971650932729244,0.009185103909298777,-0.020005051611969246
1772445433686967800,6.9659677734375,0.042587680360674854,-0.0017356646861881016,-0.033679201435670256
1772445433696900900,6.97590087890625,0.028030747219920157,-0.003661445116996765,-0.02115232195095159
1772445433706832600,6.98583251953125,0.009454057043790817,-0.013377587163075804,-0.01401997671984136
1772445433716765700,6.995765625,-0.04508768048286438,-0.028207199765369294,-0.004670466895913705
1772445433726697700,7.00569775390625,-0.08742518547475338,-0.027550343291833996,0.012287536037201062
1772445433736629800,7.015629638671875,-0.10138590628802775,-0.019719430470466613,0.02632520367735997
1772445433746562800,7.025562744140625,-0.1140460658967495,-0.011809607193991541,0.04489904430927708
1772445433756494800,7.035494873046875,-0.11001169581413268,-0.0298510945148766,0.02299024143521674
1772445433766427000,7.045427001953125,-0.11500292823016643,-0.030229207112267613,0.027038356915395707
1772445433776359700,7.055359619140625,-0.0821785169929266,-0.03680332480557263,0.0339223716749344
1772445433786291700,7.065291748046875,-0.05715981107056141,-0.04143960630409419,0.024295990271540356
1772445433796224800,7.075224853515625,-0.05283318004310131,-0.037804756933078165,0.03056500580473803
1772445433806156500,7.085156494140625,-0.016764087796211243,-0.04283149905391037,0.02464071205598302
1772445433816088600,7.095088623046875,0.011835983744263649,-0.031288726102560754,0.006713946289103477
1772445433826021600,7.105021728515625,0.07194996844530105,-0.01619118327908218,-0.0056634599886368955
1772445433835953700,7.11495361328125,0.11062485927641391,-0.025045959255471824,-0.014542210495658217
1772445433845885700,7.1248857421875,0.10360124424993991,-0.0454496456630528,-0.04518501251065172
1772445433855818800,7.13481884765625,0.06037351242005825,-0.040528336678072804,-0.06930752764511854
1772445433865750800,7.144750732421875,-0.008138882791996002,-0.03251256880909204,-0.04600820199442096
1772445433875683800,7.154683837890625,-0.07524667190313339,-0.017892434239014984,-0.04127382128313183
1772445433885615900,7.164615966796875,-0.10190087007284164,0.014569427296146749,-0.05436989722424186
1772445433895547600,7.174547607421875,-0.0856114140510559,0.033153058669716115,-0.050975131086260075
1772445433905480700,7.184480712890625,-0.051341480180621145,0.027443594981729984,-0.06573284749612211
1772445433915412700,7.194412841796875,-0.022720950374007225,0.02979293458685279,-0.09316629554317332
1772445433925344800,7.2043447265625,-0.020009937849640846,0.03878682677298784,-0.07554170932695269
1772445433935277800,7.21427783203125,-0.03706570206880569,0.04432181067690253,-0.07251552990619092
1772445433945209900,7.2242099609375,-0.04079436720311642,0.026699717811867592,-0.05429826589329168
1772445433955142700,7.234142578125,-0.03031096711158752,0.015950433325767517,-0.032380923519749194
1772445433965074700,7.24407470703125,-0.028216040658950805,-0.005808247887343168,-0.039291068234387785
1772445433975006700,7.2540068359375,-0.043804070413112635,-0.021630890114977954,-0.04410283416397869
1772445433984939800,7.263939697265625,-0.06691197427809238,-0.013849296328052877,-0.035279110912978646
1772445433994871600,7.27387158203125,-0.06000175649821758,-0.028280995653942227,-0.009257237563747913
1772445434004803600,7.283803466796875,-0.0640524931937456,-0.05549143946692347,0.016639237573835997
1772445434014736600,7.293736572265625,-0.07054360877871513,-0.07135726324915885,0.03358330331314355
1772445434024668700,7.303668701171875,-0.04624737191200256,-0.07083966911584139,0.04464828441860154
1772445434034601700,7.313601806640625,-0.016692191603779792,-0.06358757909573615,0.031028960921522228
1772445434044533800,7.32353369140625,0.03537526476383209,-0.06781674109809101,0.020322803191095588
1772445434054465800,7.3334658203125,0.06525017854571342,-0.04796213994063437,-0.012833068490214644
1772445434064398800,7.34339892578125,0.06661328359246253,-0.029029548998922107,-0.04150947493622079
1772445434074331000,7.353330810546875,0.03103343616724014,-0.01883570643849671,-0.03200368770519271
1772445434084263000,7.363262939453125,-0.028683658170700073,0.0017964549627155066,0.001577405384555459
1772445434094196000,7.373196044921875,-0.08505728729963302,0.028513635366037487,0.03381203403510153
1772445434104127700,7.383127685546875,-0.1145902557760477,0.050937575554847715,0.0524142422449775
1772445434114059800,7.393059814453125,-0.11153846698999405,0.059352644939720624,0.05820188573570922
1772445434123992600,7.40299267578125,-0.0866308202266693,0.026597426481172443,0.043073052724823355
1772445434133924600,7.412924560546875,-0.03294306918084621,0.01853957303613424,0.036405119268223644
1772445434143857700,7.422857666015625,-0.009168225839734078,0.024337518725171682,0.04163355797361582
1772445434153789700,7.432789794921875,-0.013058803537487984,0.007110562657564878,0.05173619685294106
1772445434163721700,7.4427216796875,0.008217793247103691,0.0039641543906182046,0.0753551555125974
1772445434173654800,7.45265478515625,0.029988311028480527,-0.003028334845229983,0.0751394121363759
1772445434183586800,7.4625869140625,0.06738309892117977,0.0015223141964524982,0.07828150955438613
1772445434193518600,7.4725185546875,0.07445522926449775,0.022372063871100543,0.0440222249421291
1772445434203451600,7.48245166015625,0.0765881496399641,0.044765097464993596,0.0234343593403697
1772445434213383700,7.4923837890625,0.04776888239085674,0.05202208285592496,0.0172465010182932
1772445434223316700,7.502316650390625,0.03606383154988289,0.028766221887618303,-0.004223700375948101
1772445434233248800,7.512248779296875,0.05103928236365318,0.025057576628029345,-0.007390384245943278
1772445434243180800,7.522180908203125,0.051989130434393876,0.02590411045476794,-0.01203589023053646
1772445434253113900,7.53211376953125,0.023823358657956123,0.01320149994380772,-0.035658301222603765
1772445434263046000,7.5420458984375,0.011862871751189231,0.012438479682058095,-0.0406393410381861
1772445434272978000,7.55197802734375,-0.026444354811310765,0.021157792710512876,-0.05634422037135809
1772445434282910700,7.56191064453125,-0.06913608006834983,0.007183335632830858,-0.07803590076286346
1772445434292842800,7.5718427734375,-0.09398995081782341,0.0029786504846066233,-0.05590228529013693
1772445434302775600,7.581775634765625,-0.13825579352378844,-0.005728899040818214,-0.03208230589935556
1772445434312707600,7.59170751953125,-0.12127718619406222,-0.023830665181577206,-0.026684995166771114
1772445434322639600,7.6016396484375,-0.08783201270997523,-0.016817498483881352,-0.0427820521553047
1772445434332572700,7.61157275390625,-0.004790156885981559,-0.011787906818836926,-0.051469545273389664
1772445434342504700,7.621504638671875,0.025657003825902937,-0.015280790435895322,-0.08489572179606183
1772445434352436700,7.631436767578125,0.024891280150413513,-0.010311039199307561,-0.09023699149247258
1772445434362369800,7.641369873046875,-0.0040296939074993135,-0.02149374666661024,-0.05572972346851602
1772445434372301800,7.6513017578125,-0.04020166200697422,-0.012084332482144236,-0.02616595799503848
1772445434382233600,7.661233642578125,-0.046186581635475156,0.002729424963891506,-0.024870438291784376
1772445434392167000,7.6711669921875,-0.01893617113828659,-0.0004220978695899248,-0.031615930496621876
1772445434402098700,7.6810986328125,0.030821839243173596,0.001147051143273711,-0.027201639452017843
1772445434412031700,7.69103173828125,0.07215162849724292,0.007336041976511478,-0.0374320328968577
1772445434421963800,7.7009638671875,0.05731763198077678,0.01134615440070629,-0.056744617865793406
1772445434431895800,7.710895751953125,0.019158873978257177,0.0027514906652271747,-0.046589244152233
1772445434441828600,7.72082861328125,-0.008715221375226973,0.01620112015120685,0.0010138166850432752
1772445434451761000,7.730760986328125,-0.0531166731595993,0.01987644766308367,0.03707803182741627
1772445434461693000,7.74069287109375,-0.07750467996299266,0.025695947596803305,0.031869813926145435
1772445434471625700,7.750625732421875,-0.06543722555041313,0.019105244094878435,0.01168214488942176
1772445434481557800,7.760557861328125,-0.06804010152518748,0.017268822447955606,0.018778642489016055
1772445434491489500,7.770489501953125,-0.04895312373936176,0.007891849228367208,0.04464274972695857
1772445434501422600,7.780422607421875,-0.024923428854346275,-0.008229191423952578,0.030004768972937017
1772445434511354600,7.790354736328125,-0.010008768317103385,-0.0028426760800182816,0.01308477822896093
1772445434521287700,7.80028759765625,0.012777648508548735,-0.012282923794165252,0.016743720861617475
1772445434531219700,7.8102197265625,0.024845687443017957,-0.018427198702841995,0.014686386473011225
1772445434541151700,7.82015185546875,0.01059504377245903,-0.0054449675329029555,0.023610958016291258
1772445434551084800,7.830084716796875,0.005197568643093109,-0.008036153069883584,0.029480818164069205
1772445434561016800,7.840016845703125,-0.0049719431936740876,-0.0142747551985085,0.05196178576974198
1772445434570948900,7.849948974609375,-0.00011807342171669006,-0.015485957619175313,0.09415807392634451
1772445434580882000,7.8598818359375,-0.04722060085833072,0.0017242665093392133,0.055880822377
1772445434590813700,7.869813720703125,-0.08271043191254139,0.004987725284695625,0.002353321660496294
1772445434600745700,7.879745849609375,-0.07666706009507179,0.03917991774380207,0.000046688685938715934
1772445434610678800,7.8896787109375,-0.05403554157018661,0.025266250942647457,-0.004245345952175557
1772445434620610800,7.89961083984375,0.0008534019589424133,-0.014582944364845751,0.035097215007431806
1772445434630543600,7.909543701171875,0.062165656533837314,-0.03193820298723876,0.06108799909865483
1772445434640475600,7.9194755859375,0.06610182693898678,-0.009812734288349747,0.038200697448104615
1772445434650407700,7.92940771484375,-0.0219376910418272,0.01433591080121696,0.019733258066419512
1772445434660339700,7.939339599609375,-0.1518038418829441,0.03994987920299172,-0.028663793559605254
1772445434670272000,7.94927197265625,-0.2187935575723648,0.044851168313249944,-0.08851596725299023
1772445434680204000,7.9592041015625,-0.16643325573801993,0.011303995759412646,-0.06350499711250886
1772445434690136800,7.96913671875,-0.07231880175769329,-0.009429872450605035,0.005043729788251221
1772445434700068900,7.97906884765625,0.007695230677723884,-0.032988442692533135,0.07541336110639385
1772445434710001000,7.9890009765625,0.03919569983482361,-0.05510667793303728,-0.005425897506251931
1772445434719934000,7.998933837890625,0.02283259405493736,-0.03665821724645793,-0.04993475518785417
1772445434729866000,8.008865966796876,-0.0461713840663433,-0.00017418752312660217,0.03225747067001648
1772445434739799000,8.018799072265624,-0.1285024612724781,0.02209485436491668,0.054826765013113614
1772445434749730800,8.028730712890624,-0.15670856505930422,0.028004589865356682,0.004726955456659197
1772445434759662800,8.038662841796874,-0.10684709430336951,0.03919730727002024,-0.01405811677314341
1772445434769596000,8.048595947265625,0.004783727145195007,0.006921689021959901,0.004609128630114719
1772445434779528000,8.05852783203125,0.12894494434297085,-0.026366394204273818,-0.03783208333142102
1772445434789460000,8.0684599609375,0.1987029557019472,-0.03343304465487599,-0.030774785231053828
1772445434799393000,8.07839306640625,0.11103519364297389,-0.0217270439658314,-0.021415557730710133
1772445434809325000,8.088324951171876,-0.06433072561323643,0.015695508716627955,-0.011548353308765217
1772445434819257000,8.098257080078126,-0.15505261454582214,0.06030110477097332,0.01187103679133579
1772445434829190000,8.10818994140625,-0.15390519807636738,0.053583413888514037,0.02664210587311536
1772445434839122200,8.1181220703125,-0.08452887951135635,0.022523893431946634,0.020405001581832765
1772445434849055000,8.128054931640625,0.05281447534263134,-0.0008990677315741777,-0.024766210732329635
1772445434858986800,8.13798681640625,0.13622107282578944,-0.027685221717879176,-0.035720306208683175
1772445434868918800,8.147918701171875,0.11900514960885047,-0.05668685979656875,0.005379519347567111
1772445434878851800,8.157851806640625,0.026308161211013793,-0.04398629511222243,0.0404629706911277
1772445434888784000,8.167783935546876,-0.08539397190809249,-0.0004989624980837106,0.021266796909784898
1772445434898716000,8.1777158203125,-0.15007190352380276,0.004631239997223019,-0.011090581337595358
1772445434908649000,8.18764892578125,-0.12863339417576788,-0.013726254470273851,-0.030085341662168502
1772445434918581000,8.1975810546875,-0.08131517816185951,-0.027370529745519158,-0.04210434468998574
1772445434928513000,8.207512939453125,-0.034088147562742234,-0.04772796585857868,-0.0001602046635467559
1772445434938446000,8.217446044921875,-0.017362053689360616,-0.05472381609529257,0.010591911100456491
1772445434948377900,8.2273779296875,-0.004456979408860206,-0.04785663373954594,0.0134659960988909
1772445434958311000,8.237310791015625,0.004731120175123215,-0.031982699716091155,0.012685494979377836
1772445434968243000,8.247242919921876,-0.028808161333203314,-0.01515365692488849,0.02178222648547962
1772445434978175000,8.257175048828126,-0.07982756995260715,0.0024972236432135105,0.044540138735854995
1772445434988108000,8.26710791015625,-0.10987725577950477,0.046295960294082755,0.011290396492322906
1772445434998040000,8.2770400390625,-0.09651683894693851,0.051902840390428896,-0.041788666336936876
1772445435007972000,8.28697216796875,-0.026791560813784598,0.02753302683085203,-0.023958575010718776
1772445435017905000,8.29690478515625,0.04964110600352287,0.01443009189069271,-0.009905234877392649
1772445435027837000,8.3068369140625,0.08159516414701938,-0.0059922261521220205,-0.012806454477924853
1772445435037769000,8.31676904296875,0.0886094268232584,-0.0023272739037871358,-0.04003881786176935
1772445435047701800,8.32670166015625,0.09313888694643974,0.006508212850242853,-0.03609112141560763
1772445435057633800,8.3366337890625,0.10269874245226382,-0.011019991186261176,-0.0115892424415797
1772445435067565800,8.34656591796875,0.08194646180272101,-0.020284517007321118,-0.004904348717024549
1772445435077499000,8.356498779296874,0.03560322830080986,-0.025035364796221257,-0.008979169541038572
1772445435087431000,8.366430908203125,0.018430559703707695,-0.03824687467738986,0.0013766129822935908
1772445435097364000,8.376364013671875,-0.0023690672188997268,-0.0615377338938415,0.033261149553535506
1772445435107296000,8.3862958984375,-0.04387772017121315,-0.0641921939253807,0.04698386035985313
1772445435117228000,8.39622802734375,-0.06990531087517737,-0.06184168527647853,0.03787563934535719
1772445435127161000,8.4061611328125,-0.11053484290540218,-0.05485752547755837,0.034352278391644356
1772445435137092900,8.4160927734375,-0.08700608327984809,-0.03135390029326081,0.020896949817240235
1772445435147025000,8.42602490234375,-0.027238720059394834,-0.0414065808173269,-0.015617173650255426
1772445435156958000,8.4359580078125,-0.01400222186744213,-0.04688756951168179,-0.0025447160467505455
1772445435166890000,8.445889892578125,-0.06009060382544994,-0.03679178049825132,0.003697164884349331
1772445435176822000,8.455822021484375,-0.12048632807731628,-0.016985402396693824,-0.029147476290166376
1772445435186754800,8.4657548828125,-0.11590250741839409,-0.0027330051604658365,-0.02845961275701411
1772445435196687000,8.47568701171875,-0.08024316501617432,0.012971709775924682,0.007670854288293049
1772445435206620000,8.485619873046875,-0.026541969966888426,0.005405877631530166,0.027697624541725963
1772445435216552000,8.495552001953126,0.05291501310765743,-0.010736132743582129,-0.017387498657871037
1772445435226484000,8.50548388671875,0.10167056844830512,-0.0011245470505207777,-0.086062162626395
1772445435236417000,8.5154169921875,0.09615501989722251,0.028622867894172666,-0.036313385864160955
1772445435246348800,8.525348876953124,0.10931260763406753,0.000181274851039052,0.008195280021196232
1772445435256280800,8.53528076171875,0.1104249527901411,-0.02629018716290593,0.007445658097136766
1772445435266214000,8.5452138671875,0.05366086303889751,-0.006404898606240749,0.018561794001096858
1772445435276146000,8.55514599609375,-0.044216742867231366,0.04052775215618312,-0.003520337879564613
1772445435286078000,8.565077880859375,-0.03640226972401142,0.03983063673749566,-0.020004348359070716
1772445435296011000,8.575010986328126,0.03917290348112583,0.016371873608231544,0.014085169176850466
1772445435305943000,8.584943115234376,0.10283610509634017,0.0013305179513990878,0.06804956347327679
1772445435315875000,8.594875,0.09387480000555515,-0.01584412340708077,-0.010460950797703117
1772445435325808000,8.60480810546875,0.004879004213213921,0.012605068420618771,-0.09273732040822505
1772445435335740000,8.614739990234375,-0.04690612808167934,-0.020915143061056733,-0.16966454754313454
1772445435345673000,8.6246728515625,-0.13582593602836132,-0.050505394682660694,-0.12398717580512165
1772445435355605000,8.63460498046875,-0.1735842965364456,0.029055998614430426,0.126447611101903
1772445435365537000,8.644537109375,-0.2044324392646551,-0.006020648529008031,0.06942156421253458
1772445435375469800,8.6544697265625,-0.12256430339515209,-0.028313071292638776,0.014606106044724582
1772445435385401900,8.66440185546875,-0.024687282010912893,-0.011355652881413698,0.06284459697501733
1772445435395334000,8.674333984375,0.03510229304134845,-0.041625265069305896,0.04829966479931026
1772445435405267000,8.684266845703124,0.06785188547670841,-0.05721256417110562,0.03034139878246933
1772445435415199000,8.694198974609375,0.08649696471393108,-0.06991334805116058,0.025799298373423516
1772445435425130800,8.704130859375,0.031198855862021445,0.002197656174749136,0.05929740762114524
