time,seconds_elapsed,z,y,x
1772445462569621000,0.05362109375,-0.3711936117827892,-0.38566111307442186,-0.815265120510757
1772445462579553000,0.063552978515625,-0.5397171177983283,-0.3552694819420576,-0.9155163236804306
1772445462589485000,0.073485107421875,-0.5060696997404098,-0.4108136745095253,-0.8514346043922006
1772445462599417000,0.0834169921875,-0.2872843254745006,-0.41055765392184257,-0.6007625015979632
1772445462609350000,0.093349853515625,-0.19104162729382515,-0.38441695823222394,-0.4307636623328551
1772445462619282000,0.103281982421875,-0.2586871765434742,-0.4111638031214475,-0.40876642312351613
1772445462629214000,0.1132138671875,-0.33054069887697696,-0.40508886712193487,-0.4205677008805796
1772445462639146000,0.12314599609375,-0.4235597588360309,-0.3946694721773267,-0.3251440274652094
1772445462649078000,0.133078125,-0.4611503615617752,-0.41697102809548375,-0.08796316480897366
1772445462659010000,0.143010009765625,-0.34914836871325966,-0.3892857333123684,0.1933623618589714
1772445462668942000,0.152942138671875,-0.2456540919691324,-0.3376274422675371,0.3681170538816601
1772445462678875000,0.162875,-0.10907529174685478,-0.21582243280708788,0.4280036230349913
1772445462688806700,0.172806640625,0.1128255841910839,-0.061553954376280307,0.28720530542153866
1772445462698738700,0.18273876953125,0.3455225794315338,-0.0035343116059899328,-0.01468231308609247
1772445462708670700,0.192670654296875,0.7057225035130977,0.017731471523642538,-0.3007400193750858
1772445462718602500,0.2026025390625,1.1187322267621755,-0.03137304338514805,-0.469313794273138
1772445462728534500,0.212534423828125,1.4957815788358448,-0.10618249291479587,-0.5014140194216743
1772445462738467300,0.22246728515625,1.7751818730622528,-0.14652765504568815,-0.4727665285428986
1772445462748399600,0.232399658203125,1.908613607430458,-0.12258885331451892,-0.42524559303112325
1772445462758331600,0.24233154296875,1.9952444276571273,-0.09088175566941499,-0.43906672271061686
1772445462768263700,0.252263671875,2.089023366072774,-0.04199088351130485,-0.5184277345973998
1772445462778195700,0.26219580078125,2.1884365109831094,0.034816461837291715,-0.5017766421889885
1772445462788127500,0.27212744140625,2.2237311117261647,0.05368833556771278,-0.45587852210607377
1772445462798060500,0.282060546875,2.0319336976289746,0.05373831218928098,-0.577622193300724
1772445462807992600,0.29199267578125,1.76410927490592,0.14762538715451956,-0.4663284948520362
1772445462817924600,0.301924560546875,1.6504636065036058,0.360695890904963,-0.12375892000719904
1772445462827856600,0.311856689453125,1.612664913985133,0.5757733505636453,-0.0067238283623009916
1772445462837788700,0.32178857421875,1.6167244185090064,0.8166025065943598,-0.10925853935927152
1772445462847720700,0.331720703125,1.6516396645456553,1.0071113421857356,-0.1780472672946751
1772445462857652500,0.341652587890625,1.7161439931601286,1.1442431001156568,-0.11262830805331468
1772445462867585500,0.35158544921875,1.8049644323855638,1.241070027925074,0.0027562399055808783
1772445462877517600,0.361517578125,1.7317875524938104,1.3101502861529588,0.13242708737030626
1772445462887449600,0.37144970703125,2.150007119345665,1.493383285522461,0.3492220915365964
1772445462897381600,0.381381591796875,2.573556941309571,1.3588625868737696,0.3620109190262854
1772445462907313700,0.391313720703125,3.014442513477802,1.4552876558840273,0.24876418681368231
1772445462917245700,0.40124560546875,3.2256647590130565,1.5439198790609836,0.5165092606902122
1772445462927178500,0.411178466796875,3.016365005972981,1.4801327588051556,0.5153875631839037
1772445462937110500,0.421110595703125,2.734081849786639,1.2873434110611677,0.5337381895191967
1772445462947042600,0.43104248046875,2.721239319348335,1.2283318346440792,0.590116787084192
1772445462956974600,0.440974609375,2.7988486287295817,1.403793907751143,0.6659463734418153
1772445462966906600,0.45090673828125,3.012286212226748,1.2830968595325947,0.9539708497591316
1772445462976838700,0.460838623046875,3.489560610115528,0.8063339182972907,0.8618518073797226
1772445462986771500,0.470771484375,3.8419320325285193,0.07908084323853254,0.7560198814682662
1772445462996703700,0.480703857421875,3.86300580021739,-0.689386285740137,0.6508432045951486
1772445463006635500,0.490635498046875,3.138838123953342,-1.3446592894762754,0.3001188187368214
1772445463016567600,0.500567626953125,1.6091472612529991,-1.7083938174247741,-0.08433131111264228
1772445463026499600,0.51049951171875,-0.6002472820848226,-1.809277619409561,-0.2918098400749266
1772445463036431600,0.520431640625,-3.323001097649336,-1.4606795780554414,-0.17599873726703225
1772445463046363600,0.53036376953125,-5.815602926281094,-0.6313505686178803,0.149225661958009
1772445463056296700,0.540296630859375,-7.557873294344544,0.12112316467612981,0.6058198945853859
1772445463066228700,0.550228759765625,-8.160653894299267,0.48143444017767906,1.0624865348618477
1772445463076160500,0.560160400390625,-7.424802794504165,0.10028086765557527,1.5150629101499915
1772445463086092500,0.570092529296875,-5.639204156845808,-1.0565773838832975,2.147720469713211
1772445463096024600,0.580024658203125,-3.779401049813628,-2.6531808053836223,2.359873566357791
1772445463105956600,0.58995654296875,-3.094369452151656,-4.041342551977932,1.619120812126249
1772445463115889700,0.5998896484375,-4.352093385496735,-4.1685283776938915,0.3795152307305485
1772445463125821700,0.60982177734375,-6.767573980525135,-3.1382348973631857,-0.37725641895309087
1772445463135753500,0.61975341796875,-9.11980229282677,-1.7643131269149481,-1.3133299391023814
1772445463145685500,0.629685546875,-10.957622700631617,-0.08551642924398184,-2.4949554060205816
1772445463155617500,0.639617431640625,-11.963330021238326,2.2466581060662865,-3.413930199591815
1772445463165549600,0.649549560546875,-12.149331900799273,2.890986229678988,-2.9882722994327544
1772445463175482600,0.659482666015625,-10.696886190342903,1.6606398403421043,-1.277169223049283
1772445463185414700,0.66941455078125,-8.05943749935925,-1.2527074203573167,0.2623687876656651
1772445463195346700,0.6793466796875,-5.590334619736671,-4.261643299242854,0.9638394058879465
1772445463205278500,0.689278564453125,-4.0936318344026805,-5.451337067934871,1.0775838584896176
1772445463215210500,0.69921044921875,-3.5933559156328436,-4.669017062431574,0.7411719294916838
1772445463225142500,0.709142578125,-3.7353023803681134,-2.9504543176919222,-0.08861139958463608
1772445463235075600,0.71907568359375,-4.165542055359483,-1.5481122161842882,-0.801511101250723
1772445463245007600,0.729007568359375,-4.3298166717588895,-0.4122894461505115,-0.9786838507331908
1772445463254939600,0.738939697265625,-3.721815122285485,0.5359902062296867,-0.9216988117076456
1772445463264871700,0.74887158203125,-2.7436241696357726,1.0985087922923267,-0.6388868093416095
1772445463274803500,0.758803466796875,-1.5777759714335202,1.4852923335254191,-0.2583477154560387
1772445463284735500,0.768735595703125,-0.41083530181944367,1.5145552528887987,0.1026688222380355
1772445463294668500,0.77866845703125,0.7277876203268766,0.98871410022974,1.1752861808940767
1772445463304600600,0.7886005859375,2.1726772163152694,0.8540583770245314,2.0552283562377096
1772445463314532600,0.79853271484375,3.5821266656100748,0.8796770946666598,2.2841651221618053
1772445463324464600,0.808464599609375,4.569117595309018,0.8575903505429625,2.223159741578996
1772445463334396700,0.818396728515625,5.495169779920578,1.1946788636282086,1.627109326662123
1772445463344328400,0.828328369140625,6.483373008018732,1.7152900066792964,0.9935959539871663
1772445463354260500,0.838260498046875,7.242618427404761,1.5867016206890343,0.8037681594625115
1772445463364193500,0.848193603515625,7.863373075467347,1.6067127275824546,0.45108737883940336
1772445463374125600,0.85812548828125,8.001055453017354,1.9158505729466675,0.05542933401614427
1772445463384057600,0.8680576171875,7.434310627561807,2.1098151019498705,-0.31719686785303053
1772445463393989600,0.87798974609375,6.500978807336091,2.253136069908738,-0.6976913188792765
1772445463403921700,0.887921630859375,5.70087413881719,2.3581515648707745,-0.7600362775027751
1772445463413853400,0.897853515625,5.248506803169846,2.1857322204604746,-0.5799816159084439
1772445463423786500,0.907786376953125,5.729001916670799,2.0796388671338555,-0.5345513690656051
1772445463433718500,0.917718505859375,6.722224434235692,2.4976880458548663,-0.8275367922585457
1772445463443650600,0.927650634765625,6.99366120223701,2.084388399748504,-0.7197611118681728
1772445463453582600,0.93758251953125,6.818897340527177,1.6766837971702218,-0.556236656248942
1772445463463514600,0.9475146484375,6.807715436777472,1.899131785596907,-0.9006867110781371
1772445463473446700,0.95744677734375,6.924704570388793,1.8691899440586566,-0.5736516822345554
1772445463483379700,0.967379638671875,7.432806652739644,2.0138141035705805,-0.02071253316104412
1772445463493311500,0.9773115234375,7.91348179898262,2.0750193906396626,0.30919732046648857
1772445463503243500,0.987243408203125,7.902461807796358,2.5491475994572044,-0.051844022875279186
1772445463513175600,0.997175537109375,7.214145781636238,3.8121351524189113,-1.3654407962203026
1772445463523107600,1.007107666015625,6.985670788004994,4.302420715311169,-1.9975532891213892
1772445463533039600,1.01703955078125,7.215291444540023,4.248716597652435,-2.100147256024927
1772445463542971600,1.0269716796875,7.0896841201871625,4.47442008074373,-1.6177420711189507
1772445463552904700,1.03690478515625,7.164712765425444,4.595007238847017,-0.7272831779360771
1772445463562836500,1.04683642578125,7.444906255856156,4.399043644981086,-0.46971506855040784
1772445463572768500,1.0567685546875,6.606824031120539,3.2610929230079053,-0.7156384789802134
1772445463582700500,1.066700439453125,4.237316667237877,1.4865005402714013,-0.24605668142065404
1772445463592632600,1.076632568359375,2.3255250142931936,-0.14442571433037518,0.6432084719330072
1772445463602564600,1.086564697265625,0.9909773689866065,-1.1184101552009582,0.5712813729066402
1772445463612496600,1.09649658203125,-0.8467150285243987,-1.0551473510801792,0.5515434569314122
1772445463622429700,1.1064296875,-3.3587516254663465,-0.6810510035932064,1.5375775242969394
1772445463632361500,1.116361572265625,-5.830200775954127,-0.5631444628760218,3.0411265222638844
1772445463642293500,1.12629345703125,-6.487445956546067,-0.46555239591300485,3.8577135390281674
1772445463652225500,1.1362255859375,-6.878673471575975,-0.1350090666875243,3.6322692913949486
1772445463662157600,1.146157470703125,-5.992822948971391,-0.8136489174857735,3.44244639224112
1772445463672089600,1.156089599609375,-6.3774243238598105,-2.4143071673348544,3.624694764487445
1772445463682022700,1.166022705078125,-9.413999758690595,-3.22729966673851,4.139885928316414
1772445463691955500,1.17595556640625,-12.96697514861822,-3.534240294319391,5.528858114510775
1772445463701887500,1.185887451171875,-16.36193439801931,-3.871352772802114,5.518135644966364
1772445463711819500,1.195819580078125,-18.01257979083061,-3.7579581565514206,4.577171430166065
1772445463721751600,1.20575146484375,-17.30885985931158,-3.6131630243867634,2.596946292464435
1772445463731683600,1.21568359375,-15.27658012472391,-3.9194007643952964,0.5274077443886548
1772445463741616400,1.225616455078125,-13.557816888976097,-4.871072835692763,-0.5571602008346468
1772445463751548400,1.23554833984375,-12.314251244843005,-5.495713969799876,-1.055757591933012
1772445463761480400,1.24548046875,-10.790776772439479,-5.527733494395017,-1.2885853739462791
1772445463771412700,1.255412841796875,-9.014947249123454,-5.310327007266879,-0.9780755826417357
1772445463781344500,1.265344482421875,-6.898851751729846,-4.787178162431717,0.06522436825102194
1772445463791276500,1.275276611328125,-4.256477294781804,-3.943802507463097,0.5949748215746135
1772445463801208600,1.28520849609375,-1.2112585347682236,-2.7160592863619324,0.31657259847484526
1772445463811141400,1.295141357421875,1.7516221337765454,-1.6879535253338516,-0.28787867463845757
1772445463821073400,1.305073486328125,3.7526749554514884,-0.6371320746287703,-0.6091460433334112
1772445463831005700,1.315005615234375,4.353972038850188,0.6321352892547846,-0.506576114892587
1772445463840937700,1.324937744140625,4.020421052241325,1.944036656858772,-0.6440406119082123
1772445463850869500,1.334869384765625,3.692081662800908,3.2430452251419424,-1.0804507191628216
1772445463860801500,1.344801513671875,3.7075112871229647,4.266458006048202,-1.5043972853593528
1772445463870733600,1.354733642578125,4.224622605359554,5.100328750568628,-1.6129381779685616
1772445463880666400,1.364666259765625,5.361679593363404,5.807256538218259,-1.5994402523614466
1772445463890598700,1.3745986328125,7.00253833617568,6.116972475731372,-1.8171835702285168
1772445463900530700,1.38453076171875,8.894778316432237,5.801942649719119,-1.3346481830716133
1772445463910462700,1.394462646484375,10.705249529540538,4.9113148297101255,-0.28163784402012826
1772445463920394500,1.40439453125,11.955691489183902,3.7796073860406874,0.7250013506092131
1772445463930326500,1.414326416015625,12.628997577738762,2.8345933113276955,1.3346923144742846
1772445463940259600,1.424259521484375,12.699364660906792,2.1663845459118485,1.3510573199503122
1772445463950191600,1.434191650390625,12.371063265389203,2.0681499432615933,0.7342588621675967
1772445463960123600,1.44412353515625,11.694880160093307,2.086947144320607,0.11596154412925243
1772445463970055700,1.4540556640625,10.4671223259449,1.9623039888247846,-0.37642186782509085
1772445463979987700,1.46398779296875,8.665002177074552,1.5777230722025035,-0.6153722243718802
1772445463989919500,1.47391943359375,7.37607880334556,1.2836467485003173,-0.8967343201905489
1772445463999851500,1.4838515625,7.1541270740032195,1.0697352638810873,-0.9743298933073877
1772445464009784600,1.49378466796875,7.352462365436554,0.2910942391514778,-1.1970337561912834
1772445464019716600,1.503716552734375,7.851763301694393,-0.5488076022267341,-1.5873595000758767
1772445464029648600,1.513648681640625,7.929006700372695,-0.6632860681913793,-2.3144401411771773
1772445464039580700,1.52358056640625,7.289940150550008,0.1498778422564268,-2.991790828947723
1772445464049512700,1.5335126953125,6.13008797789216,1.3150507715456188,-2.891242542527616
1772445464059444500,1.543444580078125,4.910464934882522,2.3173927073724565,-2.1612001290112732
1772445464069376500,1.55337646484375,3.6250521996229885,3.1122531916275618,-1.0330331344276666
1772445464079309600,1.5633095703125,2.009905990216136,2.8683745848983526,-0.39197979470193384
1772445464089241600,1.57324169921875,-0.6249550223618745,1.4264642969816923,0.5286084984805435
1772445464099173600,1.583173583984375,-4.485052826178074,-0.2242475851945579,2.611644679902494
1772445464109105700,1.593105712890625,-8.16119282348156,-1.8739600810699164,4.473256297661364
1772445464119037700,1.60303759765625,-10.783145254647732,-3.316275588786602,6.077185824266076
1772445464128969500,1.612969482421875,-12.457702268922327,-4.301200818127393,7.667493360492586
1772445464138901500,1.622901611328125,-13.481410525643824,-4.509763489064574,8.521784961751102
1772445464148834600,1.63283447265625,-13.936617468631267,-3.9123821178048845,7.985368054541945
1772445464158766600,1.6427666015625,-15.294106429064273,-3.275605140224099,6.024947102984786
1772445464168698600,1.65269873046875,-17.80991669932604,-2.683113002310693,3.707737497094273
1772445464178630700,1.662630615234375,-20.30154179188013,-2.509941670489311,1.6868366501331329
1772445464188562400,1.6725625,-21.425944465494155,-2.9930870062381025,-0.16912149017499759
1772445464198494500,1.682494384765625,-20.414684186935425,-4.163876752495765,-2.0393103638768193
1772445464208427500,1.692427490234375,-18.029688746541737,-5.565077428883314,-2.7585946520134805
1772445464218359600,1.702359619140625,-15.514768118596075,-6.737085318759084,-1.8931338603563606
1772445464228291600,1.71229150390625,-13.206900341546534,-7.171101589679718,-0.13930269049452618
1772445464238223600,1.7222236328125,-10.792326924490927,-6.680926793685555,2.0490240947701035
1772445464248155600,1.73215576171875,-7.844571928885578,-5.813497478434443,3.476709019587934
1772445464258087400,1.74208740234375,-4.365112441545724,-4.845359425504506,3.3685286308541893
1772445464268019500,1.75201953125,-1.4438713588565588,-3.5631367184579372,1.8859762436866758
1772445464277952500,1.761952392578125,0.6076140114605426,-2.0484045015670356,-0.17509882928524165
1772445464287884500,1.771884521484375,1.9319015440374612,-0.570673470141366,-2.224732105462253
1772445464297816600,1.781816650390625,2.676455590248108,0.6079902974270284,-3.8048350585386155
1772445464307748600,1.79174853515625,2.836108976587653,1.410503196131438,-4.197184271074831
1772445464317680600,1.8016806640625,2.75125744099319,1.8659353261768816,-3.7835266053110357
1772445464327612400,1.8116123046875,3.097692459094524,2.5574723602101206,-3.419279743926227
1772445464337544400,1.82154443359375,4.46536437536776,3.296724500620365,-2.980546381355822
1772445464347477500,1.8314775390625,6.796541716334223,3.6675592159628865,-2.300020570680499
1772445464357409500,1.841409423828125,9.361422599235176,3.873739960199594,-1.6806356035359202
1772445464367341600,1.851341552734375,11.401578766286372,3.7101521570205684,-1.1148651760704815
1772445464377273600,1.861273681640625,12.284785496383904,3.426360934358835,-0.5148024567723274
1772445464387205600,1.87120556640625,11.96757598824501,3.460449081921577,-0.059839697804301976
1772445464397137400,1.881137451171875,10.720824699813127,3.5528131851032376,0.37870563138071445
1772445464407069400,1.8910693359375,9.201367061835526,3.4663702886641024,0.672428502002731
1772445464417002500,1.90100244140625,8.263380693802237,3.295965206685662,0.44828087005130945
1772445464426934500,1.9109345703125,8.1178674764961,3.2296669803917406,0.21918518723845481
1772445464436866600,1.920866455078125,8.511532447806001,3.1579628034010527,0.2005033561874181
1772445464446798600,1.930798583984375,9.220641671147941,3.0548475891023874,0.052586000349000094
1772445464456730600,1.940730712890625,9.99529391850233,2.8088082972079516,-0.17797208316661417
1772445464466662400,1.950662353515625,10.467515124654769,2.43739972750023,-0.3806300601046532
1772445464476594400,1.960594482421875,10.143154575717448,2.2459175168320535,-0.38681795495934784
1772445464486527500,1.970527587890625,9.095804746645689,2.1049385819546877,-0.4352602796323597
1772445464496459500,1.98045947265625,7.853575319552421,1.8942793771296738,-0.3783239751193672
1772445464506391600,1.9903916015625,6.677861560896039,1.5475312014259397,-0.14767923623360693
1772445464516323600,2.000323486328125,5.3729363159149885,1.1219655095949768,0.38438780520297583
1772445464526255600,2.010255615234375,3.86964479984045,0.5648009979113936,1.1229069551635533
1772445464536187400,2.0201875,2.5428975991517304,-0.03659676938280463,1.705680466812849
1772445464546119400,2.030119384765625,1.6847428927242756,-0.21739260473325847,2.3058643282726408
1772445464556052500,2.040052490234375,1.3607552687525748,-0.34531361285597084,3.0252006388574837
1772445464565984500,2.049984619140625,1.2803385007351635,-1.0005988915517925,3.5150337818071242
1772445464575916500,2.05991650390625,0.6586895341813563,-1.993859403039515,3.6095240833625195
1772445464585848600,2.0698486328125,-0.9717267250716686,-3.603387480303645,3.3413442713305352
1772445464595780600,2.079780517578125,-3.010494652634859,-5.256813443744182,2.8986884746193886
1772445464605712400,2.08971240234375,-5.442693158230186,-5.660017812293767,2.233880895949155
1772445464615644400,2.09964453125,-8.280693063130974,-5.370767739704251,0.4044270422123372
1772445464625577500,2.109577392578125,-11.242989794307947,-4.479322173571586,-1.2047183924097566
1772445464635509500,2.119509521484375,-14.064433701205253,-2.6952050066426394,-1.3920407799847423
1772445464645441500,2.129441650390625,-16.198329059183596,-0.8896753415897488,-0.934499914157018
1772445464655373600,2.13937353515625,-16.377690770077706,0.22337416336089372,-0.21184395763017236
1772445464665305600,2.1493056640625,-14.797110847139358,0.43679011954814195,-0.3735806530497968
1772445464675237400,2.1592373046875,-13.010512677049636,0.47911768766790624,-1.015573977039382
1772445464685169400,2.16916943359375,-12.128303141295909,-0.149409347961843,-0.8677519713342189
1772445464695102700,2.179102783203125,-11.484629974460601,-1.9693384175062179,-0.3060112377762794
1772445464705034500,2.189034423828125,-10.017412226808071,-4.037057714265584,-0.049675958121195435
1772445464714966500,2.198966552734375,-8.271536527729033,-5.334523875412344,-0.39181642083376644
1772445464724898600,2.208898681640625,-7.310988199275732,-5.286167548522353,-0.6077690193591639
1772445464734830600,2.21883056640625,-7.144696982356906,-4.590159214293957,-0.18780575064513833
1772445464744762600,2.2287626953125,-6.866196267318725,-3.72374579808712,0.7980350957032293
1772445464754695700,2.23869580078125,-5.606007989686727,-3.0456206188127397,2.0179444813735783
1772445464764627700,2.248627685546875,-3.2814860149562355,-2.615095112617314,2.8800661917358634
1772445464774559500,2.2585595703125,-0.2702776610940695,-2.295792431591451,3.19856895455569
1772445464784491500,2.268491455078125,2.575186003816128,-2.0804355704694983,2.888344190737605
1772445464794423600,2.278423583984375,4.355001381897926,-1.4632581963717937,2.1019122198708353
1772445464804355600,2.28835546875,4.894868721821904,-0.5761722867533564,1.0643198147036135
1772445464814287600,2.29828759765625,4.702963171175122,0.48463235943615435,0.11188501540534197
1772445464824220700,2.308220703125,4.560842518916726,1.592526673580706,-0.7782038023561239
1772445464834152700,2.318152587890625,5.0330643095910546,2.5898668555974957,-1.6500407049164174
1772445464844084500,2.32808447265625,6.018198797768354,3.296353329220414,-2.3363487522549926
1772445464854016500,2.3380166015625,7.473823722782731,3.776551213340461,-2.688420753329992
1772445464863948500,2.347948486328125,9.059027213868498,3.8505221662193536,-2.7759745336204764
1772445464873880600,2.357880615234375,10.37085157071352,3.7919744079217312,-2.890762650056183
1772445464883812600,2.3678125,11.18459255039692,3.6281904976487156,-2.971003184723854
1772445464893745700,2.37774560546875,11.18785418254137,3.306463512085378,-2.698688464844227
1772445464903677700,2.387677734375,10.286989046156405,3.1191093411326407,-2.3652874081000683
1772445464913609500,2.397609375,8.903176142421364,3.162786570295691,-2.288899603337794
1772445464923541500,2.40754150390625,7.34359166123867,3.269435511678457,-2.4689754538506268
1772445464933473500,2.4174736328125,6.017116847750544,3.472688385769725,-2.821684729915857
1772445464943405600,2.427405517578125,5.005056358724833,3.774607678057253,-3.1387823021128773
1772445464953337600,2.437337646484375,4.280845427840948,4.014134811578691,-3.496328496815264
1772445464963270700,2.447270751953125,3.963682096931338,4.20276353251189,-3.770771753156185
1772445464973202700,2.45720263671875,4.10157782497108,4.342048376822471,-3.793629189391434
1772445464983134500,2.467134521484375,4.556225380510091,4.489439078438282,-3.626786183808744
1772445464993066500,2.47706640625,5.097774974432587,4.5766573431640865,-3.5187872891217467
1772445465002998500,2.48699853515625,5.383524345424771,4.5476983751833435,-3.483226438657939
1772445465012930600,2.4969306640625,5.1523523677945136,4.433988993895054,-3.1188138653174042
1772445465022862600,2.506862548828125,4.583243735817074,4.0981794147044415,-2.1993566950567067
1772445465032795600,2.516795654296875,4.144660595372319,3.7980569427058097,-0.5934491463772952
1772445465042727700,2.526727783203125,4.206625176376104,3.519146477822959,1.716301521809399
1772445465052659500,2.536659423828125,4.811407763803005,2.9179952326357363,3.473793424402177
1772445465062591500,2.546591552734375,5.695947788330912,2.180403134392202,4.520574805936217
1772445465072523500,2.5565234375,6.070023677551746,1.2386913160949944,5.129095995369553
1772445465082455600,2.56645556640625,5.197570981180667,-0.09869535202980041,5.124785146433115
1772445465092387600,2.5763876953125,2.8954782804012296,-1.1810247245460748,5.119579394483566
1772445465102320600,2.586320556640625,-0.8479764267623424,-1.8775228881180286,4.624304645001888
1772445465112252700,2.596252685546875,-6.354823784995078,-2.699528715060651,3.305384776937961
1772445465122184400,2.606184326171875,-12.207258020067215,-2.5852888801574707,2.511478378537297
1772445465132116500,2.616116455078125,-16.80819815609455,-1.5256912716701625,2.171816507832706
1772445465142048500,2.626048583984375,-19.081590832090377,-0.19674334606677293,1.6895377257853745
1772445465151980500,2.63598046875,-19.060428801596164,-0.13234627721905706,0.9480213667701929
1772445465161912600,2.64591259765625,-17.82278085707426,-1.6388398042052983,0.5713861484553665
1772445465171845600,2.655845703125,-16.466206088876724,-4.176427314250171,0.8335172549076378
1772445465181777400,2.66577734375,-15.837954947578906,-6.4715329326212405,1.2382470794588327
1772445465191709400,2.67570947265625,-15.439512094342708,-7.913440882450342,1.233364714244753
1772445465201641500,2.685641357421875,-14.081620982849596,-8.503733172231913,1.0219650663159787
1772445465211573500,2.695573486328125,-12.070442488479614,-8.478435649368166,0.7506506095200777
1772445465221505500,2.705505615234375,-10.142191283643244,-7.654351554846763,0.7632599887896329
1772445465231437600,2.7154375,-8.554418234330415,-6.220432265684008,1.0752059503771365
1772445465241370600,2.72537060546875,-7.562063147249817,-4.997818808686733,1.3858254126012324
1772445465251302400,2.735302490234375,-7.241509589380025,-4.210158903460204,1.3866241617634891
1772445465261234400,2.745234375,-6.7020204351186745,-3.3291949838533994,0.7888438543140888
1772445465271166500,2.75516650390625,-4.709635488545894,-2.3726896471805867,0.005424143940582871
1772445465281098500,2.765098388671875,-1.823334201812744,-1.5345434172980486,-1.012162780356407
1772445465291030500,2.775030517578125,1.1582289553701877,-0.9293895123407244,-1.9205071665808557
1772445465300963600,2.784963623046875,3.603031506472826,-0.4462685803808272,-2.558562785795331
1772445465310895600,2.7948955078125,5.4433747107535595,0.10469269274845719,-2.8561291435703633
1772445465320827400,2.804827392578125,6.768444918140768,0.8201821186468005,-2.7720009538143873
1772445465330759400,2.814759521484375,7.694078000557422,1.664719218610227,-2.2483865372940897
1772445465340691500,2.82469140625,8.408549043193458,2.391594400267303,-1.8316364584729075
1772445465350623500,2.83462353515625,9.020199178302288,3.0846272258162495,-1.517941095934808
1772445465360555800,2.8445556640625,9.425248882457613,3.531861290228367,-1.4385209377393127
1772445465370488600,2.854488525390625,9.479037171268462,3.6345576945930715,-1.5249325622573493
1772445465380420600,2.864420654296875,9.120300889998674,3.4391409209549426,-1.4638051627300679
1772445465390352400,2.874352294921875,8.556608437851072,3.0961718253985047,-1.219411007694155
1772445465400284400,2.884284423828125,8.007525525814295,2.6472683664694427,-0.8033467922452837
1772445465410216400,2.894216552734375,7.680919243776798,2.1797771114483475,-0.4379776488322764
1772445465420148700,2.904148681640625,7.533149187454581,1.9717519083887338,0.09175696760136634
1772445465430080800,2.914080810546875,7.614956533047557,2.00944100305289,0.4252821987144649
1772445465440013600,2.924013671875,7.862570526912808,2.1432786878734826,0.3597635784909129
1772445465449945600,2.933945556640625,7.658880430448055,1.7577412011787295,-0.18810988469086587
1772445465459877400,2.94387744140625,6.524441515988111,1.3068784248754381,-0.9117368051417172
1772445465469809400,2.953809326171875,4.3613364301383495,0.992287574802339,-0.6554186958171427
1772445465479741700,2.96374169921875,1.8826438843935727,0.7732584549084305,0.659559668079391
1772445465489673700,2.973673828125,-0.3314841172069311,0.778177498871088,2.010781165615469
1772445465499605800,2.983605712890625,-0.9529489593654871,0.9889964243024587,2.3233106992445887
1772445465509538600,2.99353857421875,0.35340485711395736,1.2087021282836794,1.929716016691923
1772445465519470600,3.003470703125,2.3840806636363268,0.9224845552578568,1.616015247326344
1772445465529402400,3.01340234375,4.29068877646327,0.23287615119963884,1.9367779179021716
1772445465539334700,3.023334716796875,5.682046688750386,-0.6759530959323048,2.745061216701567
1772445465549266700,3.0332666015625,6.691133130401372,-1.5445783429697155,2.6730899132072925
1772445465559198700,3.04319873046875,6.82769439496696,-1.8435569056302308,2.092353679539263
1772445465569130800,3.053130859375,5.1935260897040365,-1.5244740048348904,1.957418116479367
1772445465579063600,3.0630634765625,1.8977029218375683,-1.49612644675076,1.9433822846032678
1772445465588995600,3.07299560546875,-1.3802221857666968,-1.4332912203922867,2.0401443304829296
1772445465598927600,3.082927734375,-4.190107172295451,-1.6898568747371434,1.5544778056934474
1772445465608859600,3.092859619140625,-6.61411301908493,-2.0537071380198,0.5994491174444556
1772445465618791700,3.102791748046875,-9.478757185283303,-1.4947975362345576,-0.36376181781422345
1772445465628723700,3.1127236328125,-12.1875128706336,-0.1388569742873311,-0.7619049939841032
1772445465638656500,3.122656494140625,-13.701682923597097,0.6752335494861006,-0.5457522332441062
1772445465648588500,3.132588623046875,-13.479476927232742,-0.24331863475888965,-0.24842512758504598
1772445465658520600,3.1425205078125,-12.571244476950168,-2.1039549777448174,-0.2016402877954766
1772445465668452600,3.15245263671875,-11.981340309703349,-3.217333276258409,-0.09684661889057605
1772445465678384600,3.162384521484375,-11.601734258884191,-3.7644635929226875,0.08613682616464793
1772445465688316200,3.172316162109375,-11.20864913328886,-4.278756931129098,0.0952503261424601
1772445465698248000,3.182248046875,-10.648825631529093,-4.469743613365292,-0.357009749738127
1772445465708181000,3.192180908203125,-9.815525380373,-4.266809888225794,-0.7704691895160823
1772445465718113000,3.202113037109375,-8.705123175060749,-3.9091374367952345,-0.5649084768738597
1772445465728045000,3.212045166015625,-6.6310834431082,-3.586018704612553,-0.24252456177175044
1772445465737977000,3.22197705078125,-3.780971660131216,-3.2021900676622983,-0.20879304562695322
1772445465747909000,3.2319091796875,-1.058126074630022,-2.638440624630451,-0.3286377878651023
1772445465757841200,3.241841064453125,1.135631923636794,-1.9469690570488571,-0.49603689296059306
1772445465767773000,3.25177294921875,2.9006898775696754,-1.1286860500216482,-0.7289329909697174
1772445465777706000,3.2617060546875,4.06990901350975,-0.11825023958832025,-0.9838136879023164
1772445465787638000,3.271637939453125,4.6869028477340935,1.0202864655792712,-1.2790092979580163
1772445465797570000,3.281570068359375,4.751522327160835,2.2439555691093207,-1.6390332809507846
1772445465807502000,3.291502197265625,4.441833277654648,3.361900737147033,-2.0134443934753534
1772445465817434000,3.30143408203125,4.600739645019173,4.300941874930262,-2.1087384126290676
1772445465827366100,3.3113662109375,5.576649793255329,4.885864454372227,-2.1337372448071834
1772445465837299200,3.32129931640625,7.024795760691165,4.834638417264819,-2.212999289831519
1772445465847231000,3.33123095703125,8.170295582869649,4.47449373050183,-2.335383560484648
1772445465857163000,3.3411630859375,8.709431685909628,4.114636043986678,-1.926815911336243
1772445465867095000,3.351094970703125,8.371277004897594,3.647496963404119,-1.289806586304307
1772445465877027000,3.361027099609375,7.9548262012839315,3.263011323849857,-0.8995010814901441
1772445465886959000,3.370958984375,7.716131426933408,2.977461567083001,-0.6704619511701166
1772445465896891100,3.38089111328125,6.938406932526826,2.718969620850682,-0.4075205877808854
1772445465906824200,3.39082421875,5.557311471056938,2.405928630568087,-0.17260788925234227
1772445465916756000,3.400755859375,4.183163052245974,2.1926748792052266,-0.17809863215573132
1772445465926688000,3.41068798828125,3.2089059319138524,2.158500222402811,-0.2647445038210601
1772445465936620000,3.4206201171875,3.048909431225061,2.0273945928946135,-0.13177518106652422
1772445465946552000,3.430552001953125,3.4299387928456064,1.7499954093575476,0.030945657419087363
1772445465956484000,3.440484130859375,4.234499271729589,1.5196259802818297,-0.23179697766080498
1772445465966416100,3.450416015625,5.411295564925671,1.4156860055968166,-0.8496616033703088
1772445465976349200,3.46034912109375,6.407151938125491,1.3351476570263505,-1.3533726111553608
1772445465986281000,3.470281005859375,6.700690647819638,1.3435437294498085,-1.308755032402277
1772445465996213000,3.480212890625,6.296760303083062,1.2249845700427888,-0.6893867241315543
1772445466006145000,3.49014501953125,5.713702056208253,0.9079141781136393,0.29858598314635454
1772445466016077000,3.5000771484375,5.360392476162314,0.5295981671050191,1.2376026440754533
1772445466026009000,3.510009033203125,5.7056759861409665,-0.31414632117599245,1.506363178604841
1772445466035942100,3.519942138671875,6.302240780320763,-1.573736632914841,0.6883636646941304
1772445466045874200,3.529874267578125,5.326707648703455,-2.7878812445133923,-0.9579393880639224
1772445466055806000,3.539805908203125,1.8435557365864514,-3.2660900006428357,-2.7469927692860363
1772445466065738000,3.549738037109375,-3.1606694320112463,-2.7241876477599143,-3.525991521412134
1772445466075670000,3.559669921875,-8.117560017982125,-2.0072490459665655,-2.9384371321618556
1772445466085602000,3.56960205078125,-11.511716718828678,-1.6596514138266443,-1.7843755256041884
1772445466095534000,3.5795341796875,-11.685637699973583,-1.6866855512246488,-0.7463401989750563
1772445466105467100,3.589467041015625,-10.420028566336631,-1.7845640339136122,-0.5565671668449417
1772445466115399200,3.599399169921875,-9.435733451592922,-1.4429521981850266,-0.14789492481090127
1772445466125331000,3.6093310546875,-9.533540330350398,-1.2010215106531976,0.6848197815421968
1772445466135263000,3.619262939453125,-10.696042140734194,-1.4555162039428948,1.4617543676801026
1772445466145195000,3.629195068359375,-12.066579967832565,-1.9281801854267715,1.8586608051292597
1772445466155127000,3.639126953125,-12.628526453095674,-2.0554908065661786,1.7113652344509958
1772445466165060000,3.64906005859375,-12.438887678337096,-1.8890756710067391,1.346583681667596
1772445466174992100,3.6589921875,-11.979336568665504,-2.3817533897325394,1.4284215685293078
1772445466184924200,3.668924072265625,-10.877589963495732,-3.577853518335521,2.3838120758280157
1772445466194856000,3.67885595703125,-9.068053985410929,-5.09215713455081,3.696337274418771
1772445466204788000,3.6887880859375,-6.939200713253021,-6.0331461915314195,4.391682468563318
1772445466214720000,3.698719970703125,-4.624658280745148,-5.762198668351769,4.50958462536633
1772445466224652000,3.708652099609375,-2.4760686269819736,-4.779855564458668,4.072904688194394
1772445466234585000,3.718585205078125,-0.4954121121257543,-3.286293707498908,2.43552969584465
1772445466244517000,3.72851708984375,1.3745809650093317,-1.639886975170672,-0.011250950397923587
1772445466254449200,3.73844921875,2.604432556566596,-0.4093208056032657,-2.1475230474449694
1772445466264381000,3.748380859375,3.036045273476839,0.6175158122718334,-3.5525863906100392
1772445466274313000,3.75831298828125,2.7397949667364356,1.653892996430397,-4.051314203155041
1772445466284245000,3.768244873046875,2.118562764289975,2.4102692901208997,-3.4137563043296337
1772445466294178000,3.778177978515625,1.8631331282377241,2.9342233138591047,-2.1569342882603406
1772445466304110000,3.788110107421875,2.4796546687752006,3.4780902448132633,-1.2963057390652597
1772445466314042000,3.7980419921875,4.0743841130971905,4.16768286678046,-0.7737364476837217
1772445466323974000,3.807973876953125,6.257045547810197,4.754019112412632,-0.06656553546059876
1772445466333906000,3.817906005859375,8.478062724402546,4.7669803007945415,0.8108434316109866
1772445466343838000,3.827837890625,10.080668016666174,4.324077835845947,1.5066607002466916
1772445466353770000,3.83777001953125,10.503203693151473,3.906007614336908,1.938269033242762
1772445466363703000,3.847703125,9.486937569129466,3.7973037862509487,1.8453753532290458
1772445466373635000,3.857635009765625,7.5878990147739644,3.785600196714699,1.5324480524539947
1772445466383567000,3.867567138671875,5.863796756085753,3.767389709502458,1.1535542415574191
1772445466393499000,3.877498779296875,4.760381340920925,4.003023050455749,0.8442018766596913
1772445466403431000,3.887430908203125,4.465374312239885,4.257954381597042,0.5521239602331072
1772445466413363000,3.897363037109375,4.894014735341072,4.493969123083353,0.44805933625511823
1772445466423296000,3.9072958984375,5.758176573228836,4.491861921671033,0.3542429153732955
1772445466433228000,3.91722802734375,6.891553995937109,3.9832004518717525,-0.05068637727275491
1772445466443160000,3.92716015625,8.073888049516082,3.449770159257948,-0.8271475737452506
1772445466453092000,3.937092041015625,8.706285789099335,3.0014056295111775,-1.7908055586516856
1772445466463023900,3.94702392578125,8.153686393374205,2.7125103617087003,-2.7009417967289684
1772445466472956000,3.956955810546875,6.410293743282556,2.985364887553453,-2.974065202642977
1772445466482888000,3.966887939453125,4.284311058124899,3.28165464952141,-2.7596087974920867
1772445466492821000,3.976821044921875,2.8065573034107683,3.383579777252674,-2.0846223546348512
1772445466502753000,3.9867529296875,2.1373896298348902,2.6435207043737172,-1.0309342624522746
1772445466512685000,3.99668505859375,2.769022814786434,1.187441898111999,0.39887452265173196
1772445466522617000,4.0066171875,4.450079127952456,-0.8137424409881233,1.5865202727727592
1772445466532548900,4.016548828125,5.751448726278543,-3.3514296120151874,2.306761423242837
1772445466542481000,4.02648095703125,4.41320164193213,-5.3832168869107955,3.0921020917415616
1772445466552414000,4.0364140625,-0.506350854769349,-5.818191773730516,3.9692391465365886
1772445466562346000,4.046345947265625,-7.7828323888093225,-4.877691084788739,4.309101215988397
1772445466572278000,4.056278076171875,-15.147281544637679,-3.3356571656048297,3.900535028144717
1772445466582210000,4.0662099609375,-19.304106625056267,-2.534837919075787,3.2301299217283725
1772445466592142000,4.07614208984375,-19.284801036083696,-3.2776851613685487,2.9342656916961074
1772445466602073900,4.086073974609375,-16.38543919224739,-4.301363899734616,2.5913924577295777
1772445466612006000,4.096005859375,-11.944073532104492,-5.528391666042804,1.9601449110947549
1772445466621939000,4.10593896484375,-7.654847229409217,-7.389295427793264,1.0242246818110345
1772445466631871000,4.11587109375,-5.686333572289347,-8.382482289522885,-0.26182489004731174
1772445466641803000,4.125802978515625,-6.085286713135242,-7.963511612042784,-1.4692195889942348
1772445466651735000,4.135735107421875,-8.42634013594985,-6.94858462767005,-1.796915419834107
1772445466661667000,4.1456669921875,-11.624682588273286,-5.7802083722949025,-2.4351899424962697
1772445466671598800,4.155598876953125,-13.016726144737005,-5.048685657092928,-3.6972467904791233
1772445466681532000,4.165531982421875,-12.1542442227602,-4.861767539469898,-4.762141628591716
1772445466691464400,4.17546435546875,-9.511821250495315,-4.521394890147447,-5.528806676584482
1772445466701396200,4.185396240234375,-6.073046240243316,-4.075999147078394,-5.756795932525396
1772445466711328300,4.195328369140625,-3.2045757937550543,-3.4545977255448697,-5.15951977520585
1772445466721260300,4.20526025390625,-0.9732821378201245,-2.798773809927702,-3.8524639479368923
1772445466731192300,4.2151923828125,1.2571066782295703,-2.256355031955242,-2.0940560995429753
1772445466741125400,4.22512548828125,3.7529555259585377,-1.8184341548115015,-0.5032155524183064
1772445466751057400,4.235057373046875,5.99517389601171,-1.2355389895439146,0.2145518648819998
1772445466760989400,4.244989501953125,7.452754631268978,-0.4064396972090006,-0.06957052596285938
1772445466770921200,4.254921142578125,7.430846750843524,0.9188929605066776,-1.0183938567657023
1772445466780853200,4.264853271484375,6.3783233185261485,2.353016247808933,-1.3938988289415835
1772445466790785300,4.274785400390625,5.628388163799047,3.3938062799736857,-0.7893873866062611
1772445466800717300,4.28471728515625,5.75227524023056,4.195202157346904,0.2414124358113855
1772445466810650400,4.294650390625,6.496950282472372,4.57848718893975,1.1959941840104757
1772445466820582400,4.30458251953125,7.3480708524793386,4.772318446952104,1.614900271821767
1772445466830514400,4.314514404296875,8.1222882155478,4.8967543894380325,1.5934782752171157
1772445466840446200,4.3244462890625,8.702598625019192,4.588294297204912,1.2371981549277902
1772445466850378200,4.334378173828125,8.817014108750223,4.330165046805143,0.9661986092999577
1772445466860310300,4.344310302734375,8.211291025602817,4.386031310933828,0.8689291984200477
1772445466870243300,4.354243408203125,7.164267359745502,4.614639283294975,0.8423777299724519
1772445466880175400,4.36417529296875,6.03501023183763,4.725591182568669,0.9301914763733744
1772445466890107400,4.374107421875,5.184001890033483,4.620450892183184,0.8067991977214812
1772445466900039400,4.384039306640625,5.127184608790278,4.3642634235009545,0.3596628945954144
1772445466909971200,4.39397119140625,5.653114608776569,3.9515290100619196,-0.21878084422126412
1772445466919903200,4.4039033203125,6.427236694777012,3.5848037758648394,-0.8146808908820152
1772445466929835300,4.413835205078125,6.992512616723776,3.3424031327337023,-1.2812407102718948
1772445466939768300,4.423768310546875,7.0680690852284425,3.357294120134413,-1.3367578687019646
1772445466949700400,4.433700439453125,6.931636415478587,3.4471976784214373,-1.1140139660686255
1772445466959632400,4.44363232421875,6.713146809288859,3.45658305414319,-0.36464623596593737
1772445466969564400,4.453564453125,6.352082377332448,3.288404708303511,0.9707828683502971
1772445466979496200,4.46349609375,5.9857549102813,2.794165439349413,2.029587572894245
1772445466989428200,4.47342822265625,6.048340838053822,2.180217840953171,2.251138466350734
1772445466999361300,4.483361328125,6.331537601953745,1.7395345133587716,1.872171297957003
1772445467009293300,4.493293212890625,6.888106485831737,1.74502083581537,1.552199923889339
1772445467019225300,4.503225341796875,7.0840072435945265,2.0179127710610625,1.0530676221966744
1772445467029157400,4.513157470703125,6.034629123565554,1.9821447075873613,-0.35026290582641956
1772445467039089400,4.52308935546875,3.4675650514066216,1.174821193730831,-1.9624810989573598
1772445467049021200,4.533021240234375,-0.7008668801754713,-0.44825931580662726,-2.5290908998563886
1772445467058954200,4.542954345703125,-5.750065162965655,-2.28209562241137,-1.4238845096215604
1772445467068886300,4.55288623046875,-11.123502998661994,-4.350591164240241,1.5383372566230593
1772445467078818300,4.562818359375,-15.125630853843688,-5.829782842803001,4.196956599798798
1772445467088750300,4.572750244140625,-17.54759730376005,-6.301753289064765,6.3275774661511175
1772445467098682400,4.582682373046875,-18.93729108222723,-5.559933636254072,7.925328304120898
1772445467108614400,4.592614501953125,-18.949921431219575,-4.35909712677896,8.070141848725081
1772445467118546200,4.602546142578125,-17.56747923131585,-4.733481643557548,6.76064681161046
1772445467128479200,4.612479248046875,-14.809839395809172,-6.892959186559915,5.375626285651326
1772445467138411300,4.622411376953125,-11.451141546356677,-9.504120174598693,4.053191102942824
1772445467148343300,4.63234326171875,-8.555984168472886,-11.197957058882713,1.8804380449123679
1772445467158275300,4.642275390625,-6.626878977155685,-10.984681387948989,-0.12275796280372887
1772445467168207400,4.652207275390625,-6.109117086055875,-9.885587343114613,-1.0799684886038303
1772445467178139400,4.662139404296875,-7.299095516908168,-8.25571001304388,-1.1181337494123726
1772445467188072400,4.672072509765625,-9.496552369692921,-6.318430283099413,-0.8770645740807056
1772445467198004200,4.682004150390625,-10.573360348439216,-4.97893173738718,-0.5973680003214628
1772445467207936300,4.691936279296875,-9.583560791060329,-4.159050647513568,-0.5220811425384134
1772445467217868300,4.701868408203125,-6.988349651825428,-3.345216436588764,-0.7581039942659438
1772445467227800300,4.71180029296875,-3.715093705075979,-2.621243406113982,-1.1531752521771936
1772445467237732400,4.721732421875,-0.6612140842229127,-1.9672724248871205,-1.5429787988185881
1772445467247665400,4.73166552734375,1.5947756215512752,-1.143408987379074,-1.5715522746130823
1772445467257597400,4.741597412109375,3.151426971891522,-0.28799130470007656,-1.2050298695117234
1772445467267529200,4.751529296875,4.199237404212355,0.7400257551312446,-0.23649741043671965
1772445467277461200,4.761461181640625,5.204380661195517,1.7741852632403372,0.7705698003463447
1772445467287393300,4.771393310546875,6.374353245851397,2.8480399451389906,1.3764206015266478
1772445467297325300,4.7813251953125,7.755637507891654,3.7067420563161373,1.5157935625120997
1772445467307258400,4.79125830078125,8.957887975817918,4.35264458963871,1.2241592251345514
1772445467317190400,4.8011904296875,9.845506677138804,4.945179689911008,0.776115744035691
1772445467327122400,4.811122314453125,10.282723205405473,5.323831216484308,0.23139394981786607
1772445467337054200,4.82105419921875,10.251953973132371,5.669138107338547,-0.2218750291106291
1772445467346986200,4.830986328125,9.637333297780156,6.174971075713634,-0.07662393333939835
1772445467356918300,4.840918212890625,8.375811725717783,6.499979859426618,0.4095900144660845
1772445467366850300,4.850850341796875,7.073235674211382,6.515083320534229,0.7218569881688803
1772445467376783400,4.860783447265625,6.2228457565665245,6.617127982991933,0.39005974989216774
1772445467386715400,4.87071533203125,6.076931557244062,6.92381609711647,-0.8059769215531647
1772445467396647400,4.8806474609375,6.150764270696044,7.222882045799493,-2.0359479017063973
1772445467406579200,4.8905791015625,6.033674599319696,7.293961661151051,-3.4625445928961036
1772445467416511200,4.90051123046875,5.781811131316423,6.92793697643876,-4.213065730817616
1772445467426443300,4.910443359375,5.66872309679687,5.94890372774601,-3.8522023743912577
1772445467436376300,4.920376220703125,6.077352413004636,4.392095725539327,-2.7454244970560073
1772445467446308400,4.930308349609375,6.901224326080084,2.6641245164632794,-2.176276994372904
1772445467456240400,4.940240478515625,7.358848851603269,1.5905986281275748,-1.9637737691164014
1772445467466172400,4.95017236328125,6.935253436931967,1.1665648220390081,-1.272716481424123
1772445467476104200,4.960104248046875,5.706462752604485,1.0617004259854554,-0.09256795519068836
1772445467486036200,4.9700361328125,3.9543881988853213,1.2257540931105613,1.2643255235671997
1772445467495969300,4.97996923828125,2.5860259622603654,1.6455997998595238,2.825868737602234
1772445467505901300,4.9899013671875,2.592389652073383,1.5833131472945212,4.59406966573596
1772445467515833300,4.999833251953125,3.54421983654201,0.04242401423156261,5.293114591181278
1772445467525765400,5.009765380859375,4.81330161472559,-1.6935738494336605,5.232930463853478
1772445467535697400,5.019697509765625,5.4124622706174845,-2.6641648484736677,5.427646395745873
1772445467545629200,5.029629150390625,4.976780696833133,-2.5965929489821193,5.669366070875525
1772445467555562200,5.039562255859375,4.072817009910941,-1.5258973156362772,6.04523001255691
1772445467565494300,5.049494384765625,2.33095931430161,-0.07382832953780889,5.0859267157286405
1772445467575426300,5.05942626953125,0.47286651831865306,1.993133719113469,3.3732670575529333
1772445467585358300,5.0693583984375,-1.4902806433320044,3.8474054955035446,1.6786124271452425
1772445467595290400,5.079290283203125,-4.322081109070778,5.4612230866551394,0.4173406651254743
1772445467605222400,5.089222412109375,-7.522728915727138,6.253761119312047,-0.8329043106410652
1772445467615154200,5.099154296875,-8.792318643432855,5.611885941809415,-2.3686893254980443
1772445467625087200,5.109087158203125,-9.204645645114779,3.7111265550106762,-3.675108023907244
1772445467635019300,5.119019287109375,-9.207205266469716,2.0203315226405856,-4.598177685576677
1772445467644951300,5.128951416015625,-8.650973651722072,1.277381696756184,-5.111288536000251
1772445467654883300,5.13888330078125,-7.687094717541337,0.9829948458001017,-4.802869944821298
1772445467664815400,5.1488154296875,-6.0745695042878385,0.3499439030051231,-3.1466017436921594
1772445467674747100,5.1587470703125,-4.748997777119278,-1.315123982912302,-0.335893165820837
1772445467684680400,5.168680419921875,-5.229579984381795,-3.6904859180420635,3.0423291760519144
1772445467694611700,5.17861181640625,-8.775001013407111,-4.71759755346626,6.970552129328251
1772445467704543700,5.188543701171875,-14.634948108327388,-4.172685789634287,10.046319172340631
1772445467714475500,5.1984755859375,-20.602804373824597,-1.8627447134420274,10.184569120645522
1772445467724407600,5.208407470703125,-24.175956290340423,-0.432761960010603,6.923888577830791
1772445467734339800,5.21833984375,-23.277599921905992,-0.5767889208143576,2.4877064578056336
1772445467744272600,5.228272705078125,-18.492668661618232,-1.2679806850738822,-0.2611963828854263
1772445467754204700,5.23820458984375,-12.469458173167705,-2.307494413692504,-1.0070648726955056
1772445467764136700,5.24813671875,-6.673925390490889,-3.285133139286935,-0.7098841532371938
1772445467774068700,5.25806884765625,-1.5978893696576355,-3.4285423700511455,-0.37361616275459525
1772445467784000500,5.26800048828125,2.7261621627032757,-2.896762474992871,-0.22912483584210275
1772445467793932800,5.277932861328125,6.245711668369173,-1.9869766577884553,0.16690876429527998
1772445467803865600,5.287865478515625,8.977620850291848,-1.208171674668789,0.7540748848803341
1772445467813797600,5.297797607421875,10.025333667457103,-1.0704301142774522,3.2744930873289704
1772445467823729700,5.307729736328125,11.401924803245066,-1.5633226447977124,2.047567612351477
1772445467833661700,5.31766162109375,12.34162089780569,-1.2316374520607292,-4.946774265626073
1772445467843593700,5.32759375,10.964262869298457,-0.5576270146287977,-2.702493994607031
1772445467853525800,5.33752587890625,10.525170025765895,-0.6018643618926406,0.45321101992987095
1772445467863458600,5.34745849609375,7.792966829332709,-0.11220628324896097,2.0163556047469378
1772445467873390600,5.357390625,5.9511401084959505,-0.529378094613552,2.7605554306924343
1772445467883322600,5.367322509765625,5.227132006707787,-0.4342435038052499,3.0691461635679005
1772445467893254700,5.377254638671875,5.198980847978592,-0.2891112486407161,2.6519837045535444
1772445467903186700,5.387186767578125,5.409679361900687,-0.4077124936237931,1.8551970745414494
1772445467913118700,5.39711865234375,5.668393426451087,-0.5308246401600539,1.1536313984468578
1772445467923051800,5.4070517578125,5.706932123681902,-0.6879866480752825,0.6958782781079411
1772445467932983600,5.416983642578125,5.55234595760405,-0.9479587498627603,0.5710083281189203
1772445467942915600,5.42691552734375,5.398603256613016,-1.4062709653891623,0.4787473930507898
1772445467952847600,5.43684765625,5.556421244218945,-1.9955578775204716,0.3645043432772159
1772445467962779600,5.446779541015625,5.709948256632686,-2.653481541895866,0.23065073023512958
1772445467972711700,5.456711669921875,5.53160829000175,-2.8724583470806477,0.00423091556802392
1772445467982643700,5.466643798828125,5.0022360406070945,-2.52279355327785,-0.015854425605386496
1772445467992576800,5.47657666015625,3.8639989029079675,-1.9030211942508815,0.01539499140009284
1772445468002508500,5.486508544921875,1.969703743687272,-1.5110644881635904,-0.08546236096918583
1772445468012440600,5.496440673828125,-0.2595972771257162,-1.630666142360866,-0.062267801734060046
1772445468022372600,5.50637255859375,-2.9375515814989805,-2.5310075471326705,0.36858664415478704
1772445468032304600,5.5163046875,-6.868248523673415,-3.4234260499507188,1.2238812849760055
1772445468042237000,5.52623681640625,-10.6640313839674,-3.20890154799968,1.982185185728222
1772445468052169700,5.536169677734375,-13.95384683585167,-2.2661972115337847,0.8753678531654179
1772445468062101500,5.5461015625,-15.82888316785097,-0.054203883874416346,-1.3930175160624085
1772445468072033500,5.556033447265625,-16.465399448668954,2.1614754388213155,-2.4297151643469928
1772445468081965600,5.565965576171875,-16.844368370628356,3.821408884459734,-2.222111401569843
1772445468091897600,5.575897705078125,-16.0339802085042,3.97665000731498,-2.25851703229472
1772445468101830000,5.585829833984375,-13.969972625744342,2.9504966955289245,-3.254165461832285
1772445468111762700,5.5957626953125,-12.741679369544983,1.8870906346693634,-3.492057687628269
1772445468121694700,5.60569482421875,-12.465796728050709,0.5695981690600515,-2.844092961078882
1772445468131626500,5.61562646484375,-11.005947463339567,-0.9540972526177763,-2.3888833877429363
1772445468141558500,5.62555859375,-8.121208603617548,-2.6507562085852023,-1.66227065641433
1772445468151490800,5.63549072265625,-5.09010546271801,-4.141556784138083,-0.8780202673703431
1772445468161422800,5.6454228515625,-2.657495453712344,-4.881698859125375,-0.49720568101163953
1772445468171355600,5.655355712890625,-1.161385958096385,-4.820409400904178,-0.5188400051927193
1772445468181287700,5.66528759765625,-0.40621816341280936,-3.7082840250611304,-0.7066993857212365
1772445468191219700,5.6752197265625,0.36119244225025177,-2.356951249170303,-0.8264101263161748
1772445468201151500,5.6851513671875,0.7189712766647338,-1.7879954696670173,-1.4164803708449005
1772445468211083800,5.695083740234375,-0.05656593683063984,-0.949424000109732,-2.410062515502423
1772445468221015800,5.705015869140625,-0.593478518602252,0.2278289508126676,-3.279333513097465
1772445468230948600,5.714948486328125,-0.21569266894757746,0.97106665372774,-3.8101167983338233
1772445468240880600,5.724880615234375,1.1006167243570089,1.5006839639246463,-3.8916421121150253
1772445468250812700,5.734812744140625,2.874839981520176,1.9994817729659378,-3.8332802317783234
1772445468260744700,5.74474462890625,4.652501396438479,2.5189324939355253,-3.380211469863355
1772445468270676700,5.7546767578125,6.512503240913152,2.93940773075968,-2.583362880530953
1772445468280608800,5.76460888671875,8.351521918591857,3.403781438282132,-1.6559307858683168
1772445468290541600,5.77454150390625,10.083297196125983,3.596498305311799,-0.978218863569945
1772445468300473600,5.7844736328125,11.650557034242153,3.315863500854373,-0.2737840069808997
1772445468310405600,5.794405517578125,12.921494669425487,2.8374671131983398,0.3499448528531939
1772445468320337700,5.804337646484375,13.313586107808351,2.3544465728729964,0.7512205183625221
1772445468330269700,5.814269775390625,12.655101156288385,2.0298358485668895,0.8187030590701848
1772445468340201700,5.82420166015625,11.09645015656352,1.889508509466052,0.6838957254998386
1772445468350134500,5.834134521484375,9.248964679312705,1.9187395723864435,0.7782336129724979
1772445468360066600,5.844066650390625,7.318570032706856,2.0063164412915704,0.7877822164319456
1772445468369998600,5.85399853515625,5.350319994959235,2.039585381425917,0.6252902456656098
1772445468379930600,5.8639306640625,3.682176939380169,2.1651772159487006,0.3071067779280245
1772445468389862700,5.873862548828125,2.6641695246487855,2.4178654443383216,0.03356836147233844
1772445468399795000,5.883794921875,2.4244693726480007,2.5016058038204907,-0.5907709401439875
1772445468409727700,5.893727783203125,2.8151784167617557,2.6011805690333247,-1.487567877241969
1772445468419659500,5.903659423828125,3.2792776912569996,2.671851895844936,-2.36598386593163
1772445468429591600,5.913591552734375,3.5865123333483933,2.7643744044587013,-2.5807272713303564
1772445468439523600,5.923523681640625,3.5925457682937383,2.856476641833782,-2.1791054957970974
1772445468449455600,5.93345556640625,3.316846082150936,2.9099060342043637,-1.3085622863091528
1772445468459388000,5.943387939453125,3.1652456538856026,2.822531702134013,-0.13910495769903064
1772445468469320700,5.95332080078125,3.086486589947343,2.5834841688230634,1.064558080438897
1772445468479252700,5.963252685546875,3.272514772993326,2.441173839211464,2.331321279481798
1772445468489184500,5.9731845703125,3.878693783214688,2.290801199175417,2.782842665824294
1772445468499116500,5.983116455078125,4.241570233029127,2.1022811993137003,2.169692793677002
1772445468509048600,5.993048583984375,3.967991776823997,2.2785431906268,1.6645974919266997
1772445468518980900,6.00298095703125,2.2305653416603803,2.4883161141365764,2.134376127232611
1772445468528913700,6.01291357421875,-0.6852373493671416,2.285372452124953,3.1398727276980876
1772445468538845700,6.022845703125,-4.050913805660605,1.6919029936119914,3.4064529955789444
1772445468548777700,6.03277783203125,-7.53809190455377,0.9254866596832871,2.5226696346372366
1772445468558709500,6.04270947265625,-9.761294608491658,1.0134598344296217,1.665681341640651
1772445468568641500,6.0526416015625,-11.023998668336867,1.2986734911099076,0.4275467826455831
1772445468578573800,6.06257373046875,-12.170491593205927,0.7524471375480294,-0.8918452329747378
1772445468588506600,6.072506591796875,-12.969349476534127,-0.9822373054310679,-1.8460421465747057
1772445468598438700,6.082438720703125,-13.292317694330215,-3.7636630901947616,-2.0059245193645356
1772445468608370700,6.09237060546875,-13.204957390785216,-6.5766644551783795,-0.8592705587148666
1772445468618302700,6.102302734375,-12.550019318091868,-9.248329888540505,0.9875767667628824
1772445468628234800,6.11223486328125,-10.793365035367012,-11.53362459925413,2.7175904414519665
1772445468638166800,6.122166748046875,-8.127000631022453,-12.780341985416412,3.3574408351287244
1772445468648099600,6.132099609375,-6.368585768365859,-12.270035671019553,2.6119255426704884
1772445468658031600,6.142031494140625,-6.71198945594728,-10.123269141030312,0.51347460570205
1772445468667963600,6.151963623046875,-8.259137064883113,-7.29429951480329,-1.399958421241492
1772445468677895700,6.161895751953125,-9.268190773308277,-4.986564424222707,-2.733675022551417
1772445468687827700,6.17182763671875,-8.458079090037941,-3.285346489776671,-3.2289602934271096
1772445468697760000,6.181760009765625,-6.0623892371505494,-1.7709008347421884,-3.270541427093744
1772445468707693300,6.191693359375,-3.7557279132813215,0.06061784256994724,-3.4285426623120903
1772445468717625000,6.201625,-1.7573177150696515,2.2843466162085533,-3.0803990867272018
1772445468727557000,6.21155712890625,0.4195224661439657,4.055115641264617,-2.0136074750825763
1772445468737489200,6.2214892578125,2.7674299926370383,5.169282459807396,-1.168504923256114
1772445468747421200,6.231421142578125,5.346234186950325,5.846669095674157,-0.6843577900536358
1772445468757353200,6.241353271484375,7.872492785990238,6.248709681141376,0.16736401551580055
1772445468767286300,6.251286376953125,9.769989956122636,6.318510947120189,1.3877043582156299
1772445468777218000,6.261218017578125,11.019698925316334,6.118788000720739,2.2929924256093797
1772445468787150000,6.271150146484375,11.437739628469943,5.8311810191631315,3.270383021661639
1772445468797082000,6.28108203125,11.79162788518667,5.491256990391015,3.562230125007033
1772445468807014100,6.29101416015625,12.327982833075522,6.10269143692255,1.7403503597863017
1772445468816946200,6.3009462890625,11.255754583334921,5.507731739851832,1.426469119287282
1772445468826879200,6.310879150390625,10.27508233526349,5.237101612058281,1.0469994812641292
1772445468836811300,6.320811279296875,9.075997053369878,5.151477338525653,0.63834013524428
1772445468846743000,6.330742919921875,7.893409901812672,4.369223676256835,0.7292512631386519
1772445468856675000,6.340675048828125,6.854401200106739,3.8211511103063818,0.3643797670494765
1772445468866607000,6.350607177734375,6.182291627860069,3.399432595422864,0.16507131973505018
1772445468876539100,6.3605390625,5.627831114438176,2.9071836235031485,0.21002792118415234
1772445468886472200,6.37047216796875,5.256520013755559,2.4111250301674008,0.003015986820310354
1772445468896404200,6.380404296875,4.959352592170238,2.1918059874162075,-0.2436801615476608
1772445468906336300,6.390336181640625,4.502480930840969,2.068195389838517,-0.2947482316143811
1772445468916268000,6.40026806640625,3.9956700573444364,1.819365590442717,-0.07101239533424376
1772445468926200000,6.410199951171875,3.4207968704909084,1.4781778253450988,0.445813822350651
1772445468936132000,6.420132080078125,3.117443453747034,1.140456567314267,1.1425912412554025
1772445468946065200,6.430065185546875,3.2576965585678814,0.8034609932094812,1.4520298231318591
1772445468955997200,6.4399970703125,3.632496085888147,0.8020634013712405,1.3649478981368244
1772445468965929200,6.44992919921875,3.914504516786337,0.9781313314169645,1.8189960264779625
1772445468975861200,6.459861328125,4.027844480240344,1.1018483119785785,2.498915834084153
1772445468985793000,6.46979296875,3.4469238299161193,0.8691483941286802,2.440048634573817
1772445468995725000,6.47972509765625,2.4679934570759534,0.6525906327843666,2.534481652984023
1772445469005658000,6.489658203125,0.7185007365435362,-0.07485621128082275,2.7790888662487268
1772445469015590100,6.499590087890625,-0.9271662833333015,-0.8220899980947375,2.791259196513891
1772445469025522200,6.509522216796875,-2.2112486467719075,-1.3998217892497777,2.900684909133613
1772445469035454200,6.5194541015625,-3.5885143208205696,-1.8188903741464018,2.398373392882943
1772445469045386200,6.52938623046875,-4.799087211412191,-1.2449334253549575,1.4141381916329263
1772445469055318000,6.539318115234375,-6.2088189847797155,-0.49337651464492077,0.31761480100415646
1772445469065251000,6.5492509765625,-8.05121327637136,-0.513645103430748,-1.221332842602208
1772445469075183000,6.55918310546875,-10.321386990320683,-1.1950140869319439,-2.5670608572885394
1772445469085115100,6.569115234375,-13.042184411120415,-2.6827257565587757,-3.2810420705810186
1772445469095047200,6.579047119140625,-15.656970603919028,-4.356323862673342,-3.450147175876796
1772445469104979200,6.588979248046875,-17.75994943010807,-5.45131953227818,-3.1028111172825095
1772445469114911200,6.5989111328125,-18.702420834600925,-6.396646326202154,-2.1826637728005647
1772445469124844300,6.60884423828125,-17.44157321627736,-7.272685648888349,-1.3890610335215925
1772445469134776000,6.618776123046875,-14.181931953382492,-7.824829702061415,-1.024067153161764
1772445469144708000,6.6287080078125,-10.526488707149028,-8.009908037036658,-0.9810741068705916
1772445469154640100,6.63864013671875,-7.8636144830077885,-7.810976533275842,-0.6754875242471694
1772445469164572200,6.648572265625,-6.392295145255327,-7.205355156937241,-0.15916764864921568
1772445469174504200,6.658504150390625,-5.435419952356815,-6.0806385950684545,-0.09335698667652904
1772445469184437200,6.668437255859375,-4.461906343868375,-4.636839716926217,-0.2088658186022192
1772445469194369300,6.678369384765625,-3.291666632708907,-3.3401103456214067,-0.2265774163816124
1772445469204301000,6.688301025390625,-2.047611159232259,-2.3705653485029936,-0.21401845212504267
1772445469214233000,6.698233154296875,-0.4798071312367916,-1.5654659404367208,-0.6223747966103256
1772445469224165000,6.7081650390625,1.0342565387427807,-0.7591326066613197,-1.3681307659566402
1772445469234098200,6.71809814453125,1.9154016601353883,0.04123392766416072,-2.121513723050058
1772445469244030200,6.7280302734375,2.58045897578299,0.9629574354216456,-2.430281566058099
1772445469253962200,6.737962158203125,3.469109358239174,1.8353849973514675,-2.431435266137868
1772445469263894300,6.747894287109375,4.863225044801831,2.7366286116600036,-2.4282088514372706
1772445469273826000,6.757825927734375,6.525457999554276,3.355156523583829,-2.417240590438247
1772445469283758000,6.767758056640625,8.129602337953449,3.719719319050014,-1.998716341551393
1772445469293690000,6.777690185546875,9.55121861038208,3.990875224283337,-0.9880863237202167
1772445469303623200,6.787623046875,10.898318278747796,4.154215482442081,0.3231134714856744
1772445469313555200,6.79755517578125,11.98475041040778,4.140597583717107,1.3993442348659038
1772445469323487200,6.8074873046875,12.496561284148692,4.061642412684858,2.032345931691676
1772445469333419300,6.817419189453125,12.079379828172922,4.110559296067059,2.3145896326504647
1772445469343351000,6.82735107421875,10.867713881647585,4.646524952377379,2.260091003613174
1772445469353283000,6.837282958984375,9.21391265515387,5.582129101449251,1.6633580132596193
1772445469363216100,6.847216064453125,7.7352265880256885,6.593455430981517,0.7520853915635496
1772445469373148200,6.857148193359375,6.845778333190083,7.360598325619101,0.012927797568961978
1772445469383080200,6.867080078125,6.645420011496544,7.619504697871208,-0.19611067418642342
1772445469393012200,6.87701220703125,6.998924821853637,7.248244450592995,-0.33077772250324483
1772445469402944300,6.8869443359375,7.635994644901156,6.3731345177114,-0.7915396692693233
1772445469412877300,6.896877197265625,8.187812534859775,5.4842006421387195,-1.2652785865083336
1772445469422809000,6.90680908203125,7.945639855265617,4.8130885564967985,-1.7995543900355695
1772445469432741000,6.9167412109375,6.5743620234549045,4.4241488601431245,-1.565886357805878
1772445469442673200,6.926673095703125,4.8001563019484275,4.094344366586208,-1.019802919846028
1772445469452605200,6.936605224609375,3.8974095896005627,3.5628801133483647,-0.37034605504274365
1772445469462537200,6.946537109375,4.389750039196014,2.3807591179981826,0.5335271771170199
1772445469472470300,6.95647021484375,5.463747052174806,0.55558513353765,0.6944583283074199
1772445469482402300,6.96640234375,6.083734807518124,-1.4095432650581001,0.4640170030392706
1772445469492334000,6.976333984375,5.6115597785949705,-2.7850492359578607,0.13963278096541762
1772445469502266000,6.98626611328125,3.611852526310086,-3.5300653467223047,0.07545235054306686
1772445469512198100,6.9961982421875,-0.02403203297257423,-3.504382039411366,1.2027767568226904
1772445469522130200,7.006130126953125,-4.724531444382667,-2.8812697223067283,2.6441841367185113
1772445469532063200,7.016063232421875,-9.023771191570162,-1.6116384935468435,3.5073423505216836
1772445469541995300,7.025995361328125,-11.910989593148232,-0.5842571012705564,3.5828117252647873
1772445469551927300,7.03592724609375,-14.307045356738566,-0.27470190727710725,2.5861019501060247
1772445469561859000,7.045859130859375,-16.32652172385454,-0.436650126555562,0.823833773022145
1772445469571791000,7.055791015625,-17.647015124845502,-1.7759356140390037,-1.3997266583122312
1772445469581723100,7.06572314453125,-18.337293390989302,-4.127892708183825,-2.3737024774849416
1772445469591656200,7.07565625,-18.61941872626543,-6.475172750428318,-2.1914184494033453
1772445469601588200,7.085588134765625,-18.031338267314432,-7.959089703947305,-1.7800887881956993
1772445469611520300,7.095520263671875,-16.59428418725729,-8.78111978854835,-1.7832601117081939
1772445469621452300,7.105452392578125,-15.111702866256236,-8.986651713487506,-1.845845016567409
1772445469631384000,7.115384033203125,-13.659813620638847,-8.609077460756897,-1.2965534302160142
1772445469641316000,7.125316162109375,-11.978667875623703,-8.11238290760517,-0.38298966537546364
1772445469651249200,7.135249267578125,-9.695708329859375,-7.697187072488665,0.5868454007307067
1772445469661181200,7.14518115234375,-7.42652713407874,-7.488879253095388,1.6332757403373717
1772445469671113200,7.15511328125,-6.011321313214301,-6.906860286140441,2.270831593336165
1772445469681045200,7.165045166015625,-5.452637629139423,-5.545916801339388,2.5621309996709227
1772445469690976500,7.1749765625,-5.273578116062283,-3.7836429251670833,2.3320554389752446
1772445469700909600,7.18490966796875,-4.581176281893253,-2.0374467619620265,1.7354305851712821
1772445469710841600,7.194841552734375,-3.341992213845253,-0.5100684139877557,0.9419226115036755
1772445469720773600,7.204773681640625,-1.6006436368018389,0.733644821922481,-0.15551800356786696
1772445469730705400,7.214705322265625,0.5875853689104318,1.8037407358095048,-1.1351790653027594
1772445469740637400,7.224637451171875,2.80565947778821,2.657188287459314,-1.665127507150173
1772445469750569500,7.234569580078125,4.703608483341336,3.4438664881721137,-1.7801402261219919
1772445469760502500,7.24450244140625,6.31638328744173,4.274697718866169,-1.6675941895246504
1772445469770434600,7.2544345703125,7.717456538057327,4.803837913070619,-1.0807713294193149
1772445469780366600,7.26436669921875,8.96931654780507,4.95688707883954,-0.25166129649467767
1772445469790298600,7.274298583984375,9.991969157993793,4.969772279375792,0.530785148399882
1772445469800230400,7.28423046875,10.768354512751102,4.921086282140016,1.0344710582762957
1772445469810162400,7.294162353515625,11.175346583145856,4.694904367882013,1.2584500556625424
1772445469820095500,7.304095458984375,11.22840129698515,4.518605551689863,1.2321581149339675
1772445469830027500,7.314027587890625,10.797058044666052,4.606040674036741,1.0623737952023744
1772445469839959600,7.32395947265625,9.803564308944344,4.962172325766086,1.0054256541211157
1772445469849891600,7.3338916015625,8.52287217246592,5.498854605913162,1.1096902576506138
1772445469859823600,7.34382373046875,7.2537827954977745,5.971218435406684,1.1069408128120004
1772445469869755400,7.35375537109375,6.259618028646707,6.453942330873012,0.987113606230542
1772445469879688400,7.3636884765625,5.782479239836335,6.9045344735413785,0.5371054009299725
1772445469889620500,7.373620361328125,5.8192146870374675,7.147683304691315,-0.3578523380421102
1772445469899552500,7.383552490234375,5.953776886740327,7.149390693131089,-1.285192370507121
1772445469909484500,7.393484619140625,5.704949425432086,7.025970649689436,-1.9171290684498845
1772445469919416600,7.40341650390625,5.354432690975069,6.722385177755355,-1.9567453317843377
1772445469929348600,7.4133486328125,5.239750665262341,6.117732354187965,-1.5904327700413763
1772445469939281700,7.42328173828125,5.504353203329444,5.193495694565772,-1.112330835287273
1772445469949213400,7.43321337890625,5.804390042871236,3.9462829261019823,-0.3238163590580225
1772445469959145500,7.4431455078125,6.125605864042043,2.161844272133708,0.43759325262457127
1772445469969077500,7.453077392578125,6.28035160459578,0.18985680142343042,1.1603870101869105
1772445469979009500,7.463009521484375,6.195691792181134,-1.852495414367318,1.585654157462716
1772445469988941600,7.472941650390625,5.48459110276103,-3.7026778756171463,1.4558220550216734
1772445469998874600,7.48287451171875,3.285237476444244,-5.154882178533077,1.134532218766585
1772445470008806700,7.492806640625,-0.6940554465949536,-6.129321085172891,0.9360879870660602
1772445470018738400,7.502738525390625,-5.67375875287652,-6.758766404691338,0.7602616837564855
1772445470028670500,7.51267041015625,-10.825323185163736,-6.681468060955405,0.9601842443812638
1772445470038602500,7.5226025390625,-14.530702136433124,-5.864954109427333,1.2508692451447248
1772445470048534500,7.532534423828125,-15.86762060252428,-4.8804380454093215,0.5066447962146252
1772445470058467600,7.542467529296875,-16.187017391574383,-4.30965592726171,-0.5335598372776061
1772445470068399600,7.552399658203125,-16.333019269180298,-4.471922126448154,-0.42822219768911596
1772445470078331600,7.56233154296875,-16.19852545853853,-5.370583615309,0.09641542439907788
1772445470088263400,7.572263427734375,-16.259188309293986,-6.48813160072267,0.4118056081563234
1772445470098195500,7.582195556640625,-16.301213095074893,-7.112994853147864,0.8745188351206481
1772445470108128500,7.59212841796875,-15.941527550256252,-7.445498376530408,1.6262280137829481
1772445470118060500,7.602060546875,-14.760541988676785,-7.5599460089653725,1.932470576097071
1772445470127992600,7.61199267578125,-12.761024706006049,-7.231660395538807,1.6802318450406193
1772445470137924600,7.621924560546875,-10.746274782890081,-6.667142013961076,1.0977880768023431
1772445470147856600,7.631856689453125,-7.756096357575059,-5.672756297835707,0.11776410003919154
1772445470157788400,7.641788330078125,-4.575813293555378,-4.890304482646286,-1.436002232916653
1772445470167721500,7.651721435546875,-4.0149037501245735,-3.7296623286545274,-2.527682202102244
1772445470177653500,7.661653564453125,-2.39252291328907,-1.8977564055904745,-2.284564204481989
1772445470187585500,7.67158544921875,-0.43500645100176333,-0.5501292062193155,-1.8796726134978234
1772445470197517600,7.681517578125,1.2646645462632178,0.7297007604718208,-1.3750252016454934
1772445470207449600,7.69144970703125,2.7056384301126,1.7910536881938575,-0.6192404441073537
1772445470217381400,7.70138134765625,3.583103401687741,2.8943653507232665,0.6953591496046632
1772445470227314700,7.711314697265625,4.16362657712698,3.9104590407878157,1.874459701155126
1772445470237246500,7.72124658203125,4.792677928891778,4.857278703618049,2.3885597087465227
1772445470247178500,7.731178466796875,5.544434453827142,5.791439375883341,2.367529634068906
1772445470257110500,7.741110595703125,6.37242724622488,6.493889725857973,1.91161220472455
1772445470267042600,7.75104248046875,7.124898056909442,6.969220003941655,1.310976215583086
1772445470276974600,7.760974609375,7.864589465519785,7.312982587963342,1.004197135239467
1772445470286907600,7.77090771484375,8.449373805534838,7.447299872994423,0.9598324352689087
1772445470296839700,7.780839599609375,8.9096181581676,7.273736619246006,1.1060936944633721
1772445470306771500,7.790771484375,9.478570722800493,6.864673003274202,1.431416074170172
1772445470316703500,7.800703369140625,10.04930257206559,6.378389369499683,1.8105416479960084
1772445470326635500,7.810635498046875,10.34664301213026,5.995777707123756,2.0666106048651036
1772445470336568600,7.820568603515625,10.100718286526202,5.928282379999756,2.414752426884323
1772445470346500600,7.83050048828125,9.142562406167388,6.536382713672518,2.729370603355765
1772445470356432600,7.8404326171875,8.87619753460288,7.3015616147607565,1.6563725382864474
1772445470366364400,7.850364501953125,8.544500066906213,7.541032634180784,0.3091495358020067
1772445470376296400,7.86029638671875,5.119332141724229,6.1296209449023005,-1.816840163618326
1772445470386228500,7.870228515625,4.590556104657054,5.476916914871334,-1.4937296147421002
1772445470396161500,7.88016162109375,5.199456648796796,7.309293670317531,0.139509885238111
1772445470406093600,7.890093505859375,4.759217557838559,7.6770234053820365,0.597847089075297
1772445470416025600,7.900025634765625,4.743322654092312,7.177295183622837,0.5752383669041097
1772445470425957600,7.90995751953125,4.808922961249947,6.547814208269119,-0.023129531174898146
1772445470435889400,7.919889404296875,4.967321379092335,5.657767987540364,-0.33992169068455697
1772445470445821400,7.929821533203125,5.351028435489535,4.426867763713002,-0.26417729839235543
1772445470455754500,7.93975439453125,5.88051291308701,2.7636054659128186,-0.34746363049671053
1772445470465686500,7.9496865234375,6.435080394014716,0.6149275493443012,-0.4591286464758217
1772445470475618600,7.95961865234375,7.046323701888323,-1.6067179882794618,0.20755144806802273
1772445470485550600,7.969550537109375,7.462246682235598,-3.4924504863381385,1.6538256302826106
1772445470495482600,7.979482666015625,7.400915138438344,-5.066626387453079,2.6208529454916714
1772445470505414400,7.989414306640625,6.986786640292405,-6.459589396849275,3.150556034275889
1772445470515347500,7.999347412109375,5.332921116390824,-7.795709990561008,2.934432280434668
1772445470525279500,8.009279541015625,-2.887677835783362,-7.514132936817407,1.4651871186077594
1772445470535211500,8.01921142578125,-12.560523176449536,-2.061689076684415,3.142986183543503
1772445470545143600,8.0291435546875,-20.46027221815586,2.091822349141538,4.143775921492279
1772445470555075600,8.03907568359375,-25.502767203915116,1.8522852787479758,2.2919757959127427
1772445470565008600,8.049008544921875,-26.790913163530824,-0.2638753928363323,-1.4836438356660306
1772445470574940700,8.058940673828126,-25.91162623722553,-2.2841443716347216,-5.9420531311988825
1772445470584872400,8.06887255859375,-23.21294712473154,-3.8704198758661743,-8.621601426765322
1772445470594804500,8.078804443359376,-19.418469501817224,-5.26989153650403,-8.27557265137732
1772445470604736500,8.088736572265624,-15.525261455559729,-6.802276460593938,-6.120152274811267
1772445470614668500,8.09866845703125,-12.014160044765472,-7.4956456784903995,-4.006127446211874
1772445470624601600,8.1086015625,-9.133513422793149,-6.879010156184434,-2.3734657461196185
1772445470634533600,8.11853369140625,-6.928321007320284,-5.918810787299275,-1.5438485673904419
1772445470644465700,8.128465576171875,-4.990820328101515,-4.779201484464108,-1.3490797362670301
1772445470654397400,8.1383974609375,-3.031550300145149,-3.4776477617427703,-1.3517454483449458
1772445470664329500,8.14832958984375,-0.9581529577493667,-2.250937390820682,-1.287762220995128
1772445470674261500,8.158261474609375,1.1825596790283919,-1.0091478164494037,-1.2846762376785277
1772445470684194600,8.168194580078126,2.854025741550326,0.05589461344033479,-1.464344091912359
1772445470694127000,8.178127197265624,3.791525787371397,0.897784121504426,-1.5444108774483203
1772445470704059100,8.18805908203125,4.61969452085793,1.673855880267918,-1.554316477651894
1772445470713991200,8.1979912109375,5.397493834066391,2.5493054203674195,-1.4736961498863994
1772445470723923200,8.207923095703125,6.066325407555699,3.399717549844086,-1.32998223708719
1772445470733855000,8.21785498046875,6.551945608985424,3.9785152166649698,-1.0550354151383041
1772445470743788000,8.2277880859375,6.747511435705423,4.436327958236634,-0.9447110731784254
1772445470753720000,8.237719970703125,7.061868477022648,4.809406068591773,-0.953782122253999
1772445470763652000,8.247652099609375,7.598798009929061,4.944231595405936,-0.9490160038307308
1772445470773584100,8.257584228515626,8.062904883208871,4.799629939986765,-0.6869425458498298
1772445470783516200,8.26751611328125,8.40696265078485,4.692755665415525,-0.08413195261564105
1772445470793449200,8.27744921875,8.353316400793194,4.8500464142769575,1.2458663222908972
1772445470803381200,8.28738134765625,8.344082123979925,4.340450001715124,1.346864106044173
1772445470813313000,8.29731298828125,8.245590770089626,3.844197347112,1.2395600617535412
1772445470823245000,8.3072451171875,7.887177144902944,3.6545641253113743,1.3813507514052092
1772445470833177000,8.317177001953125,8.106682650136948,3.7970109407842156,1.5752420690417288
1772445470843109000,8.327109130859375,8.126008112853764,4.3778611562207335,1.4676030937083064
1772445470853042200,8.337042236328125,7.598845356202125,4.927063602983951,1.108280536983162
1772445470862974200,8.34697412109375,7.034324636536836,5.058396319246292,0.670421546094492
1772445470872906200,8.35690625,5.816922192186117,4.507932181984186,-0.08872472376599908
1772445470882838000,8.366838134765626,4.923817752930522,3.516528404279053,-0.7110918485265225
1772445470892770000,8.37677001953125,4.663006423839926,3.6691146287113425,-0.47638687446452677
1772445470902702000,8.3867021484375,4.198661065629125,3.6412720975399013,-0.25348756207376716
1772445470912635100,8.39663525390625,3.2735464541286228,2.899746166978776,-0.3850442963503301
1772445470922567200,8.406567138671875,2.0265467438936233,2.2096406270533797,-0.8586660900156945
1772445470932499200,8.416499267578125,0.9181243142217397,1.5525854160755872,-1.1805200629595667
1772445470942431200,8.42643115234375,-0.09727905549108981,0.6225169815599918,-0.8497121645137667
1772445470952363000,8.436363037109375,-0.812103733870387,-0.6349965239048003,0.08054419378936291
1772445470962295000,8.446294921875,-1.334227327311039,-2.0956524288237093,0.8142851695626974
1772445470972228000,8.45622802734375,-1.874092329147458,-3.149318601435423,1.0407890092514456
1772445470982160100,8.46616015625,-2.0747797366648912,-3.609344342881441,1.0245195731043815
1772445470992092200,8.476092041015624,-1.6499246773213148,-3.4238498283207415,1.4327553599499165
1772445471002024200,8.486024169921874,-1.2833511265546083,-3.0806308496564623,2.162584861367941
1772445471011956000,8.4959560546875,-1.772654984933138,-3.2791654630541798,2.076453953487426
1772445471021889300,8.50588916015625,-3.4929999369144435,-3.7124016895130274,1.50010850212425
1772445471031821000,8.515821044921875,-6.075665482831001,-3.7557454489380118,0.8712732042629271
1772445471041753000,8.525753173828125,-9.185494369921088,-3.3091794930458067,-0.08435286535732447
1772445471051685000,8.53568505859375,-11.848038923716544,-2.914555029053986,-1.807389467575401
1772445471061617200,8.5456171875,-13.401599906826018,-3.0820465616732835,-3.5699975441381335
1772445471071549200,8.555549072265626,-13.534354180324076,-3.6397599394112823,-3.7953006297349927
1772445471081482200,8.565482177734374,-12.226565947127341,-4.19575102340132,-2.585889184138179
1772445471091414300,8.575414306640624,-10.2518616186738,-4.6607995614454145,-1.3105071367666123
1772445471101346000,8.585345947265624,-7.904023065763711,-4.899442021086812,-0.8067589387763291
1772445471111278000,8.595278076171875,-5.0188247718364,-4.764378009341657,-0.6067238576877861
1772445471121210000,8.605210205078125,-2.161829074564576,-4.31182830286473,-0.6278680602643638
1772445471131142100,8.61514208984375,-0.07962006468176841,-3.590415478266775,-0.9437838022656738
1772445471141075200,8.6250751953125,0.874913533526659,-2.5860829531446097,-1.4402354865722358
1772445471151007200,8.63500732421875,0.8330196806490421,-1.5771774210184812,-1.7998728083349764
1772445471160939000,8.64493896484375,0.15910276671946047,-0.9029866585835814,-1.7672719767205416
1772445471170871000,8.65487109375,-0.728348176819086,-0.5263017559081316,-1.3814533349968492
1772445471180803000,8.664802978515626,-1.3783809418141841,-0.23467530957609414,-0.6486730209492146
1772445471190736100,8.674736083984374,-1.4455132808446882,0.011252338637411593,0.2554320472050458
1772445471200668200,8.684668212890625,-0.9304039500802754,0.15000877515971658,0.8984498188715427
1772445471210600200,8.69460009765625,0.05135550870597362,0.32571459389477964,1.2302294849589466
1772445471220532200,8.7045322265625,1.073946744096279,0.5849208258762956,1.4333458731889723
1772445471230464000,8.714464111328125,1.9418629660814999,0.8952025805786251,1.5343584161199628
1772445471240396000,8.72439599609375,2.4776444979965686,1.2621350277855992,1.5365931894347071
1772445471250329000,8.7343291015625,2.738931043383479,1.613129316626489,1.3337122173957525
1772445471260261000,8.74426123046875,2.7395243331015107,1.8093290573358534,0.9733427089009433
1772445471270193200,8.754193115234376,2.6200328612804413,1.8908622621625661,0.671585986763984
1772445471280125200,8.764125244140626,2.4314649306237697,1.8845719298467039,0.6611796704966575
1772445471290057200,8.77405712890625,2.213268169900775,1.7719412837058304,0.8985697189241647
1772445471299989000,8.783989013671874,2.024570475384593,1.74988814959079,1.1928317013915628
1772445471309922000,8.793922119140625,1.6932412564784287,1.8420248737573623,1.238764965853095
1772445471319854000,8.80385400390625,1.3811720338374376,1.8611159431964157,0.6562804272130132
1772445471329786000,8.8137861328125,1.3648574433743952,1.7272089925318956,-0.22610694932565092
1772445471339718100,8.82371826171875,1.4402970075011252,1.557014922955632,-0.6242736890342087
1772445471349650200,8.833650146484375,1.5671598848730324,1.3249305066555737,-0.3095653500612825
1772445471359582200,8.843582275390625,1.7713550082504748,1.0291285282045601,0.2193342403203249
1772445471369515300,8.853515380859376,1.8560984072953461,0.7039590009719133,0.7825196197286248
1772445471379447000,8.863447021484374,1.5587620588839053,0.4537959071457386,1.322405810483545
1772445471389379000,8.873379150390624,0.7755044802695512,0.35255788489580153,1.5825772342354059
1772445471399311000,8.88331103515625,-0.11074234817624092,0.29122984822988507,1.4644735635109245
1772445471409243100,8.8932431640625,-0.707547965374589,0.27800737856328483,1.1500625269841402
1772445471419176200,8.90317626953125,-1.19351069663167,0.21696926475465297,0.913101882949844
1772445471429108200,8.913108154296875,-1.5267249986320732,0.069503159815073,0.700901440032199
1772445471439040300,8.923040283203125,-1.6294336779564618,-0.0018459201276302337,0.6432954195640981
1772445471448972000,8.932971923828125,-1.4787310753136873,-0.06292904212176799,0.69046721284464
1772445471458904000,8.942904052734375,-1.0276385819077491,-0.1266203007876873,0.616845073403418
1772445471468836000,8.952836181640626,-0.2976858925014734,-0.38166064526140686,0.512055057760328
1772445471478769200,8.96276904296875,0.7258914313167333,-0.6473059703797102,0.31230975339859723
1772445471488701200,8.972701171875,1.6374077255755661,-0.4811655601084232,0.2074459418669343
1772445471498633200,8.98263330078125,2.425344986438751,-0.6337707815021276,-0.038609862770885225
1772445471508565200,8.992565185546875,2.8878210436463356,-0.8166127357274293,0.06732099347040056
