time,seconds_elapsed,z,y,x
1772555891713422800,0.0664228515625,-0.022953005564212797,-0.027150375055661424,-0.010138701139972544
1772555891723353900,0.076353759765625,-0.012929039677977561,-0.02231449759812094,-0.009086073114769532
1772555891733284600,0.08628466796875,-0.018017887249588964,-0.020285649518482385,-0.014833074067858979
1772555891743216600,0.096216552734375,-0.014577975928783416,-0.023662770401919258,-0.014665220387396401
1772555891753148000,0.10614794921875,-0.01742342848777771,-0.020601638398785142,-0.017431917754909956
1772555891763078700,0.11607861328125,-0.018023147946596145,-0.026018713277764616,-0.02200317119320389
1772555891773010700,0.1260107421875,-0.010392214676737784,-0.02222500181691721,-0.00818944393545389
1772555891782941700,0.135941650390625,-0.020269465568661688,-0.02210212435591966,-0.010383378349733538
1772555891792872700,0.145872802734375,-0.013387304839491843,-0.024559536578552796,-0.011259581228950991
1772555891802804700,0.1558046875,-0.008600070562958717,-0.01742164752264507,-0.011835463154455645
1772555891812735700,0.16573583984375,-0.019376316121220587,-0.02086909369593486,-0.00849527218134608
1772555891822666800,0.175666748046875,-0.019229016605019567,-0.01803235416635871,-0.014001139588630758
1772555891832598800,0.185598876953125,-0.015340776994824409,-0.015909114934690296,-0.012963882662495598
1772555891842529800,0.19552978515625,-0.026564766320586203,-0.012704272745084016,-0.006436997077823616
1772555891852460800,0.205460693359375,-0.02327449260354042,-0.017003714371519162,-0.013754247588897123
1772555891862392800,0.215392822265625,-0.025671616873145103,-0.014550202005868778,-0.018665190443489698
1772555891872324000,0.225323974609375,-0.02103402020037174,-0.013487696474045515,-0.01243464832373429
1772555891882254800,0.2352548828125,-0.018640987583994864,-0.01941765277860686,-0.010314897957094945
1772555891892187000,0.245186767578125,-0.023430559948086738,-0.015164077854203059,-0.015062649606610648
1772555891902118000,0.255117919921875,-0.02253331884741783,-0.01905664657964371,-0.003750475107319653
1772555891912049000,0.265048828125,-0.019989479583501814,-0.016942430904647334,-0.009735983824287541
1772555891921981000,0.27498095703125,-0.02313070021867752,-0.01929747873134911,-0.011705502932122908
1772555891931912000,0.284911865234375,-0.021336802539229392,-0.012198606511577963,-0.004947315642493777
1772555891941842700,0.2948427734375,-0.009516600885987282,-0.01606133722118102,-0.012311779995891265
1772555891951774700,0.304774658203125,-0.01685001251399517,-0.016615126045886427,-0.008925681221554987
1772555891961706000,0.3147060546875,-0.024482114827632902,-0.01624091330547817,-0.008037185116345063
1772555891971636700,0.32463671875,-0.0190969146579504,-0.01624164395784028,-0.009597703298181295
1772555891981567700,0.334567626953125,-0.015358312651515006,-0.017922619314724577,-0.010142057574260979
1772555891991499800,0.344499755859375,-0.008476151922345162,-0.026524498242279513,-0.01816118187753018
1772555892001431000,0.35443115234375,-0.012218261060118675,-0.01552373234629631,-0.0024763863511616364
1772555892011361800,0.36436181640625,-0.027182605957984923,-0.021269673853460697,-0.006830005850247107
1772555892021293800,0.3742939453125,-0.02059972043633461,-0.020748956181295214,-0.0199471063130768
1772555892031225000,0.38422509765625,-0.009976035091280937,-0.01287738255597651,-0.012946397238154895
1772555892041155800,0.39415576171875,-0.017759528574347493,-0.016155125585012135,-0.013515082237892783
1772555892051088000,0.404087890625,-0.016414543706178664,-0.011747784871002658,-0.00023904205341823397
1772555892061019000,0.414018798828125,-0.010879705932736397,-0.0172900296327658,-0.017785494132665915
1772555892070950000,0.423949951171875,-0.014622399592399596,-0.02075838159676641,-0.01602604671209119
1772555892080882000,0.4338818359375,-0.02015957545340061,-0.015504488789709284,-0.016241392796090805
1772555892090813000,0.44381298828125,-0.015521978780627249,-0.015135399748990312,-0.008553299678629264
1772555892100743700,0.45374365234375,-0.010732406416535377,-0.01271783547955565,-0.010883660588646307
1772555892110675700,0.46367578125,-0.015671616384387015,-0.013053634172026067,-0.011668025032524018
1772555892120607000,0.47360693359375,-0.02285655945241451,-0.011217870112229139,-0.003913739377632737
1772555892130538000,0.4835380859375,-0.016272504886984823,-0.01414068049006164,-0.009694797863950952
1772555892140469800,0.4934697265625,-0.01702244647145271,-0.021630606987187637,-0.010059055465925485
1772555892150400800,0.50340087890625,-0.01747252832651138,-0.015028788436204194,-0.00812653020049911
1772555892160332000,0.51333203125,-0.011936521509289741,-0.014379384616762398,-0.00577977071153
1772555892170264000,0.52326416015625,-0.013583704194426536,-0.01390696306573227,-0.007443046014942228
1772555892180194800,0.53319482421875,-0.011789806514978409,-0.018823166617332025,-0.013138586208852939
1772555892190125800,0.543125732421875,-0.013735679885745047,-0.021243406901042906,-0.014958129786211066
1772555892200057900,0.553057861328125,-0.018674305331707,-0.014647844560910015,-0.005898734615813009
1772555892209988900,0.56298876953125,-0.01927519383430481,-0.014201452500279993,-0.0035083186482079325
1772555892219920000,0.572919921875,-0.01927694739997387,-0.015705125928344204,-0.015343932499713263
1772555892229852000,0.582851806640625,-0.012545008796453476,-0.01553798006735742,-0.01055952036792878
1772555892239783000,0.592782958984375,-0.015687398475408555,-0.015546099441731348,-0.007519490518327802
1772555892249714000,0.6027138671875,-0.009701894325017928,-0.013320806341385468,-0.011546544944168999
1772555892259645000,0.61264501953125,-0.01045125138759613,-0.01163428715970367,-0.007705249748239293
1772555892269576700,0.62257666015625,-0.018083353701233863,-0.012563832227932288,-0.0029599686170229686
1772555892279508000,0.632508056640625,-0.02721241657435894,-0.017535501426970586,-0.006148887151712551
1772555892289439000,0.64243896484375,-0.02182663188278675,-0.014657461772626265,-0.011241346885939129
1772555892299371000,0.65237109375,-0.005816577324271202,-0.009562522386945783,-0.012621658795815891
1772555892309301800,0.6623017578125,-0.021528525719046593,-0.011628231878252699,-0.013366933338320813
1772555892319233000,0.67223291015625,-0.016291209587454794,-0.014219399148924275,-0.00014248634376563132
1772555892329165000,0.6821650390625,-0.007912672820687293,-0.015716971629764882,-0.005495907702273689
1772555892339095800,0.692095703125,-0.018238836523890495,-0.01608662692606449,-0.009796691902424208
1772555892349026800,0.70202685546875,-0.018240005567669866,-0.012086798433866352,-0.008799913117149845
1772555892358958800,0.711958740234375,-0.017492986592650413,-0.011541037651989609,-0.0048887492890935386
1772555892368889900,0.721889892578125,-0.028417700710892675,-0.014617184561165049,-0.004387092510424554
1772555892378820900,0.73182080078125,-0.021686931151151657,-0.01053834514915943,-0.013636717589874751
1772555892388753000,0.7417529296875,-0.01375730719566345,-0.012760277248639613,-0.002979600332677364
1772555892398684000,0.751683837890625,-0.014059505012631415,-0.011512295614695175,-0.008202609377703628
1772555892408615000,0.761614990234375,-0.01870119333863258,-0.012179098093509673,-0.0017277690741000697
1772555892418547000,0.771546875,-0.016460136413574217,-0.010084281238727271,-0.0076317963529611
1772555892428478000,0.78147802734375,-0.020203414595127103,-0.008979790595546364,-0.003938161432836204
1772555892438409000,0.791408935546875,-0.011675240224599837,-0.020407102207373826,-0.02024962835703045
1772555892448341000,0.801341064453125,-0.019306173494458196,-0.016743218538118526,-0.0030120001983596012
1772555892458272000,0.81127197265625,-0.02140226899087429,-0.014455299397185444,-0.006880900353845209
1772555892468202800,0.82120263671875,-0.021103578305244446,-0.018349703886685893,-0.006803985493001528
1772555892478134800,0.831134765625,-0.023947861820459364,-0.017145689258631316,-0.005487596531654708
1772555892488066000,0.841066162109375,-0.013773673808574676,-0.01874176281103864,0.0013425965482601896
1772555892497996800,0.850996826171875,-0.014523030871152877,-0.013330816278746351,-0.005427888533938676
1772555892507928800,0.8609287109375,-0.016017653343081473,-0.012011029783915727,-0.013197088630171492
1772555892517859800,0.87085986328125,-0.014072949016094207,-0.01200764138358645,-0.007489908230816945
1772555892527790800,0.880790771484375,-0.017516367468237877,-0.019026890762196852,-0.00815216239867732
1772555892537721900,0.890721923828125,-0.02125672304034233,-0.015272050007013604,-0.010489437106670812
1772555892547654000,0.90065380859375,-0.01662029541134834,-0.008911191471898929,-0.01477755362149328
1772555892557585000,0.9105849609375,-0.016772271102666853,-0.013355092203477397,-0.008366622566687874
1772555892567516000,0.920515869140625,-0.0082435122102499,-0.013190339228976517,-0.013840195139567368
1772555892577448000,0.930447998046875,-0.012582418197393417,-0.009926779988920316,-0.002841283273953013
1772555892587379000,0.94037890625,-0.014526538002490997,-0.017566855546459554,-0.008669208542723208
1772555892597310000,0.95031005859375,-0.012731471279263495,-0.017179399731988086,-0.005127206820622086
1772555892607242000,0.960241943359375,-0.015724807876348494,-0.012476875463686882,-0.01129369356110692
1772555892617173000,0.970173095703125,-0.027846038302779198,-0.01429706749501638,-0.005634211061266251
1772555892627103700,0.980103759765625,-0.020364742636680602,-0.008997773776808753,-0.019161655023810453
1772555892637035800,0.990035888671875,-0.020364742636680602,-0.011471561745507642,-0.013259541140822693
1772555892646967000,0.999967041015625,-0.01348199738562107,-0.010951045002741739,-0.0059470718361437315
1772555892656897800,1.009897705078125,-0.019618308183550835,-0.01545741651128046,-0.007890360524179414
1772555892666829800,1.019829833984375,-0.013484335473179817,-0.012853435424808412,-0.0037491234004497524
1772555892676760800,1.0297607421875,-0.016177812340855597,-0.010789954423205926,-0.005977814034279436
1772555892686692000,1.039692138671875,-0.01737491317093372,-0.0113018312017899,-0.0012353733141208067
1772555892696623900,1.049623779296875,-0.012437456768751144,-0.01692165297809988,-0.0015527960996842012
1772555892706555000,1.059554931640625,-0.0290483998298645,-0.01264599408605136,-0.00554789361783769
1772555892716486000,1.06948583984375,-0.02037000333368778,-0.005076517813000828,-0.012778264996479265
1772555892726417700,1.079417724609375,-0.01737725125849247,-0.008114479003101588,-0.005117484577628784
1772555892736349000,1.089348876953125,-0.020970307314395902,-0.009179276956710964,-0.0009171148449182509
1772555892746280000,1.099280029296875,-0.016482932767271995,-0.014958664075750857,-0.004698861873336136
1772555892756212000,1.1092119140625,-0.014389759880304335,-0.012040602938272058,-0.011899376969831064
1772555892766142700,1.119142822265625,-0.016633739414811135,-0.01860153235644102,-0.005080193907697685
1772555892776074000,1.129073974609375,-0.02292027233839035,-0.008737771133752539,-0.009564084156369789
1772555892786004700,1.139004638671875,-0.01843114422559738,-0.009171641639526933,-0.0035393531072884796
1772555892795936800,1.148936767578125,-0.014840426257252692,-0.021579105128813534,-0.012336950969765894
1772555892805868000,1.158867919921875,-0.021125790137052534,-0.005487601098231971,-0.004675526663521304
1772555892815799000,1.168799072265625,-0.016636662024259567,-0.010193924758816137,-0.005459228953695856
1772555892825730800,1.178730712890625,-0.010651157873868942,-0.014678851620526984,-0.010998738335678352
1772555892835661800,1.188661865234375,-0.02366962940096855,-0.011150595295988023,-0.0065947540559573095
1772555892845593000,1.198593017578125,-0.019629998621344565,-0.00900419438444078,-0.009617362413299269
1772555892855524900,1.20852490234375,-0.01618950277864933,-0.007378721207613125,-0.009930583947780541
1772555892865455600,1.21845556640625,-0.013943769678473472,-0.01308427590546198,-0.002767861844715662
1772555892875386400,1.228386474609375,-0.012298340559005737,-0.009700058560958132,-0.00011198160764761268
1772555892885318400,1.238318359375,-0.009306173005700111,-0.009638665496231987,0.006362689732597209
1772555892895249700,1.248249755859375,-0.011851765835285187,-0.01667819961104542,-0.012091451776097528
1772555892905180400,1.258180419921875,-0.011702128231525421,-0.012938702555466442,-0.013457680361694655
1772555892915112400,1.268112548828125,-0.024123802909255025,-0.01490994782950729,0.0008623935495736077
1772555892925043500,1.27804345703125,-0.023527006059885024,-0.010864663627231493,-0.013160537745757027
1772555892934974700,1.287974609375,-0.01664484533071518,-0.011279537171591072,-0.0015460558316437527
1772555892944906500,1.297906494140625,-0.017243980267643927,-0.01463984391754493,-0.008843217969336547
1772555892954837500,1.30783740234375,-0.008714636853337288,-0.009535040724975987,-0.008019005572260356
1772555892964768800,1.317768798828125,-0.013652093255519866,-0.007435401564603671,-0.001383371516643092
1772555892974700500,1.327700439453125,-0.013054711884260177,-0.008510876175854354,-0.0046160606944002204
1772555892984631600,1.337631591796875,-0.016048048481345174,-0.011640488571627064,-0.014627815553033724
1772555892994562600,1.3475625,-0.017095511707663536,-0.009228815186861902,-0.010004594465484842
1772555893004494600,1.35749462890625,-0.01963993549346924,-0.012049672160716727,-0.009042457735328935
1772555893014425600,1.367425537109375,-0.021585808864235875,-0.009328978492552414,-0.0034623697477858513
1772555893024356600,1.377356689453125,-0.02383037292063236,-0.008486892512068151,-0.00539021427151747
1772555893034287400,1.387287353515625,-0.018292028015851974,-0.010218365080328657,-0.006985114213568158
1772555893044219400,1.397219482421875,-0.011557166802883148,-0.0149474850946106,-0.013985836988221853
1772555893054150700,1.407150634765625,-0.014997662645578384,-0.012783000537101179,-0.00966506487939041
1772555893064081700,1.41708154296875,-0.025173604223132133,-0.009986063294950873,-0.0076127308928873386
1772555893074013400,1.427013427734375,-0.012602876463532448,-0.010207706688996404,-0.002129641572991386
1772555893083944400,1.4369443359375,-0.014099252501130104,-0.006620870311325415,-0.005377007730072364
1772555893093875700,1.446875732421875,-0.019936288091540334,-0.007714666030555963,-0.0056858499169582495
1772555893103807500,1.456807373046875,-0.011108253991603851,-0.013295288307638839,0.004029529510717839
1772555893113738500,1.466738525390625,-0.014549334356188773,-0.006520633940398693,-0.0016543613445945083
1772555893123669500,1.47666943359375,-0.020535423028469085,-0.008606290241191163,-0.002564685689122416
1772555893133601800,1.486601806640625,-0.011857611054182052,-0.008382591887377201,-0.0037684034896548835
1772555893143532500,1.496532470703125,-0.018891747474670408,-0.004201689473539591,-0.014413734410936012
1772555893153463600,1.506463623046875,-0.022633272090554237,-0.008007529763597995,-0.008421581324050203
1772555893163395600,1.5163955078125,-0.02218435927927494,-0.011002665592124684,-0.009635418659797869
1772555893173326600,1.52632666015625,-0.011858780097961425,-0.010455516570759937,-0.007941469656908885
1772555893183257600,1.536257568359375,-0.01994096426665783,-0.006248045810405165,-0.012425172675913199
1772555893193189600,1.546189697265625,-0.022186112844943998,-0.01188608822999522,-0.0108040331809083
1772555893203120400,1.556120361328125,-0.011859364619851112,-0.006568537335889414,-0.0053210397591348735
1772555893213051600,1.5660517578125,-0.018142974933981895,-0.008770166432857513,-0.0068379562612622975
1772555893222983700,1.575983642578125,-0.014401450318098067,-0.013065479873446747,-0.008456150313932449
1772555893232914400,1.58591455078125,-0.02053600755035877,-0.012465632550464942,-0.013617158939456567
1772555893242845400,1.595845458984375,-0.021433833172917364,-0.008886148362187669,-0.013010228855139576
1772555893252776700,1.605776611328125,-0.016946458625793456,-0.010948615583637729,-0.0032837937439093366
1772555893262708700,1.615708740234375,-0.022782325172424314,-0.015127115977834909,-0.00778103666449897
1772555893272639500,1.625639404296875,-0.01650046842396259,-0.011585972772259265,-0.0031755841290811073
1772555893282570500,1.635570556640625,-0.0163519998639822,-0.010637996998196467,-0.005312203432130627
1772555893292502500,1.64550244140625,-0.014556933140754699,-0.010283329208474606,-0.009065048593049869
1772555893302433500,1.65543359375,-0.016054478222131727,-0.010046926636714488,-0.01170347993839532
1772555893312364500,1.665364501953125,-0.018451017969846724,-0.014939000394055619,-0.0053532021627994255
1772555893322296600,1.675296630859375,-0.0067798693984746925,-0.011762635380262508,-0.00968510302042123
1772555893332227600,1.6852275390625,-0.019799509969353674,-0.004894758904771879,-0.005022353640082292
1772555893342158600,1.69515869140625,-0.01785655920803547,-0.0021663294547237455,0.0010922933153109625
1772555893352090600,1.705090576171875,-0.018456278666853905,-0.005837729710154235,-0.007279708679392934
1772555893362021400,1.715021484375,-0.00902910962998867,-0.00853655860638246,-0.004861331559205428
1772555893371952600,1.72495263671875,-0.015611410629749297,-0.01149868721445091,-0.014200151025759987
1772555893381884700,1.734884765625,-0.011722001975774764,-0.01135249280994758,-0.019895503990002908
1772555893391815700,1.744815673828125,-0.02055120511949062,-0.012729324987949802,-0.008323468411550856
1772555893401746400,1.754746337890625,-0.026387656188011168,-0.0014561170924454927,-0.004397317076916806
1772555893411678500,1.764678466796875,-0.013368600139021873,-0.012448133426392451,-0.009022771220747381
1772555893421609700,1.774609619140625,-0.02010112326443195,-0.016031544871116056,-0.004315958936396054
1772555893431540500,1.78454052734375,-0.013069909453392028,-0.012194414393650366,-0.00799563382982742
1772555893441471500,1.794471435546875,-0.013218962535262106,-0.013733953719539567,-0.012445822738297283
1772555893451403500,1.804403564453125,-0.013818097472190856,-0.005653477450739592,-0.011201718128449284
1772555893461334500,1.81433447265625,-0.01037760162949562,-0.003660367404762655,-0.00048439055003691463
1772555893471265500,1.824265625,-0.014866729742288589,-0.007984112355392425,-0.001985246399929747
1772555893481197600,1.834197509765625,-0.018009119421243665,-0.007033844159543514,0.0003824325794819742
1772555893491128300,1.84412841796875,-0.02145195335149765,-0.011002857388369739,-0.010178485161089337
1772555893501059600,1.8540595703125,-0.022648469659686088,-0.005460566960833966,-0.006823334080865606
1772555893510991600,1.86399169921875,-0.013819851037859916,-0.007207958617433905,-0.01296493754184339
1772555893520922600,1.873922607421875,-0.01651274338364601,-0.013671610806742682,-0.012734389322134665
1772555893530853600,1.883853515625,-0.012172668352723121,-0.012579760449426249,-0.007311871083057485
1772555893540785700,1.89378564453125,-0.01995265470445156,-0.01757042660987936,-0.0024155869414797053
1772555893550716700,1.903716552734375,-0.013369184660911559,-0.006420918159279972,-0.001202334127621725
1772555893560647400,1.9136474609375,-0.014565116447210312,-0.005021581888524815,-0.00212021615752019
1772555893570579500,1.923579345703125,-0.019202713119983672,-0.0009627714843954891,-0.005464795611379668
1772555893580510700,1.9335107421875,-0.011871055057644844,-0.007326817490439862,-0.006028489342168905
1772555893590441500,1.94344140625,-0.02144844622015953,-0.0043375999460462476,-0.0031268222170649095
1772555893600373500,1.95337353515625,-0.009478606963157653,-0.008572689365688712,-0.004005395149881952
1772555893610304500,1.963304443359375,-0.01695931810736656,-0.013165350918192415,-0.0055093106065411115
1772555893620235500,1.973235595703125,-0.02055003607571125,-0.005736132499203086,-0.01358030209436547
1772555893630167600,1.98316748046875,-0.012768880680203437,-0.005680292392428964,-0.008710001777415164
1772555893640098600,1.9930986328125,-0.010972644913196564,-0.008078037716541439,-0.007144218331994488
1772555893650029600,2.003029541015625,-0.011571195328235626,-0.003895235606562346,-0.0024782586478395386
1772555893659960600,2.012960693359375,-0.020100538742542265,-0.01560877114809118,-0.00005338785478379577
1772555893669892600,2.022892578125,-0.023094459861516953,-0.012961215781373903,-0.007648884485079907
1772555893679823600,2.03282373046875,-0.018007365855574605,-0.0055054016164038325,-0.004960252755880356
1772555893689754400,2.04275439453125,-0.013369769182801246,-0.011286414436949416,-0.01087887938225176
1772555893699686400,2.052686279296875,-0.022198972326517102,-0.009261731075774878,-0.003809333721664734
1772555893709617700,2.06261767578125,-0.02638940975368023,-0.010550346114207059,-0.004164846328180283
1772555893719548400,2.07254833984375,-0.01920855833888054,-0.0038458617731928824,-0.005138481699884869
1772555893729480400,2.08248046875,-0.020257190608978272,-0.008526758731575683,-0.005631215386581607
1772555893739411700,2.09241162109375,-0.015319149684906004,-0.00829512366647832,-0.00991673808551859
1772555893749342500,2.102342529296875,-0.018611761489510534,-0.0036289584863465276,-0.005047323684557341
1772555893759274500,2.1122744140625,-0.021305822879076,-0.009080748485680669,-0.0036398178070783612
1772555893769205500,2.12220556640625,-0.032678865286707874,-0.010449004631582647,-0.003626227673143148
1772555893779136800,2.13213671875,-0.02026069774031639,-0.010725903610512613,0.0005821701023960486
1772555893789068500,2.142068603515625,-0.008140051835775375,-0.010805910044163465,-0.003197595031489618
1772555893798999600,2.15199951171875,-0.016968670457601545,-0.012488529368862508,0.005480851697036996
1772555893808930600,2.1619306640625,-0.02385141570866108,-0.009322923211101442,-0.005049068117071874
1772555893818861600,2.171861572265625,-0.01023556281030178,-0.009341490914253518,-0.0016794181540375575
1772555893828793600,2.181793701171875,-0.021308745488524437,-0.008277012621052562,-0.0025604570385767147
1772555893838724600,2.191724609375,-0.014725275444984436,-0.014061121580982579,-0.0029725952031556513
1772555893848655400,2.2016552734375,-0.011583470287919043,-0.008571858248626813,-0.0004928615508601069
1772555893858588200,2.211588134765625,-0.010684475621581077,-0.004248789151431992,-0.00441215845302213
1772555893868519200,2.221519287109375,-0.021158523362874982,-0.011188260425254701,-0.014903257793816738
1772555893878450200,2.2314501953125,-0.017718027520179747,-0.004101343504758551,-0.008118588922638446
1772555893888382200,2.24138232421875,-0.013227730363607406,-0.003889929243782535,-0.005928832926554605
1772555893898313000,2.25131298828125,-0.018615268620848655,-0.010932678228989244,0.0008002652659080922
1772555893908244200,2.261244140625,-0.017868834167718887,-0.01072543781963177,-0.0014362159487325697
1772555893918176300,2.27117626953125,-0.01622398957014084,-0.013164894260466098,0.0009642464888514951
1772555893928107000,2.28110693359375,-0.01906768856346607,-0.014131474270299076,-0.0014390654929447918
1772555893938038000,2.2910380859375,-0.013082184413075446,-0.01890151081685908,-0.003979968447680585
1772555893947970000,2.300969970703125,-0.022960019826889038,-0.003524456932255998,-0.0066053393820533525
1772555893957901300,2.3109013671875,-0.012484218519926071,-0.004058171083312481,-0.002470682696159929
1772555893967832000,2.32083203125,-0.02370762332379818,-0.0064109812871553,-0.006497358096088282
1772555893977764000,2.33076416015625,-0.015627192720770833,-0.0065339774791616945,-0.005798854437912814
1772555893987695000,2.340695068359375,-0.013231822016835213,-0.0061334155879449095,-0.0016657458217116071
1772555893997626000,2.350626220703125,-0.01622398957014084,-0.012171316645853221,-0.0018285671340301632
1772555894007557000,2.36055712890625,-0.017422843965888023,-0.015612570540374144,-0.000578452908503823
1772555894017489200,2.3704892578125,-0.010689736318588257,-0.007778324117604643,-0.008526169643108733
1772555894027420200,2.380420166015625,-0.020415596041083336,-0.005115808643773197,-0.0054367568269837645
1772555894037351200,2.39035107421875,-0.011287702211737633,-0.0018793383400421589,-0.003728993927873671
1772555894047283200,2.400283203125,-0.013981179079413413,-0.012551721665030345,-0.012927235879958606
1772555894057214000,2.4102138671875,-0.024904724153876304,-0.007898662561643868,-0.005176722217886709
1772555894067145200,2.420145263671875,-0.009641104048490523,-0.009077277886960654,0.003602458638488315
1772555894077077200,2.4300771484375,-0.01906768856346607,-0.008117127617914228,-0.0004025026865536347
1772555894087008300,2.44000830078125,-0.009641104048490523,-0.010832250061817466,-0.0012407207760959864
1772555894096939000,2.44993896484375,-0.012634440645575522,0.002349686664994806,-0.007914485751860774
1772555894106871000,2.45987109375,-0.017872341299057005,-0.004104631440388039,-0.008246649448829703
1772555894116802300,2.46980224609375,-0.01936930185854435,-0.01179265605919063,-0.007919641417590901
1772555894126733000,2.479733154296875,-0.025655834782123563,-0.009629587140632792,-0.0008947568826377392
1772555894136665000,2.4896650390625,-0.015480477726459503,-0.008993819120898843,0.002496488424274139
1772555894146596000,2.49959619140625,-0.017276713493466378,-0.01447025950429961,0.00012802399357315152
1772555894156527000,2.509527099609375,-0.021616788524389266,-0.009913463849620894,-0.009569582315394655
1772555894166458000,2.5194580078125,-0.020571663385629654,-0.0058432278691791,-0.00548705310896039
1772555894176390100,2.52939013671875,-0.011444938600063324,-0.0021372677570208904,-0.006044682425144128
1772555894186321000,2.53932080078125,-0.007554945424199104,-0.0025861897014547138,-0.0035357455112505704
1772555894196252200,2.549252197265625,-0.013989946907758712,-0.006203585614170878,-0.010909247121051884
1772555894206184200,2.55918408203125,-0.022970541220903397,-0.013322158048255369,-0.006859204545267858
1772555894216115200,2.569115234375,-0.01414075355529785,-0.0062578182857483625,-0.005228388473042286
1772555894226046200,2.579046142578125,-0.016236264529824258,-0.008157952818647026,-0.006562025396712124
1772555894235978200,2.588978271484375,-0.01638648665547371,-0.009547553146677091,-0.0012409628046909347
1772555894245909200,2.5989091796875,-0.019079379001259802,-0.015142870669392869,-0.007517184396809898
1772555894255840000,2.608840087890625,-0.01429156020283699,-0.006945216028019786,-0.0069525316847953945
1772555894265772000,2.61877197265625,-0.02775836001932621,-0.009270581102510913,-0.011522168554738163
1772555894275703300,2.628703369140625,-0.011747720938920974,-0.009136323730973527,-0.011877393466886132
1772555894285634000,2.638634033203125,-0.010700842234492301,-0.01057200082358904,-0.0029167459632270035
1772555894295566000,2.648566162109375,-0.015639467680454253,-0.007801257468620315,-0.0025871669489890337
1772555894305497000,2.6584970703125,-0.025965631383657452,-0.0020936752104666083,-0.003845432514930144
1772555894315428000,2.668427978515625,-0.018782441881299017,-0.005369682940142229,-0.007702094243350438
1772555894325359000,2.678359130859375,-0.01594108097553253,-0.010619219232490285,-0.005092528232885524
1772555894335291100,2.688291015625,-0.020431378132104872,-0.012037817326141521,-0.004289628051896579
1772555894345222100,2.69822216796875,-0.018635726886987686,-0.00336315629016608,-0.0002539656279142946
1772555894355153200,2.708153076171875,-0.008013795107603073,-0.009291596491076052,0.004588209139672107
1772555894365085200,2.718085205078125,-0.01983633484840393,-0.002420559944119304,-0.007295111744501628
1772555894375016200,2.72801611328125,-0.022231121030449864,-0.004992419726122171,-0.0032255881501128897
1772555894384947000,2.737947021484375,-0.01459784967303276,-0.004838087680935859,0.0003150801314273849
1772555894394879000,2.74787890625,-0.010406243202090262,-0.01161503446996212,0.003277437068358995
1772555894404810200,2.757810302734375,-0.018487258327007292,-0.00386096801077947,0.0069846803887281565
1772555894414741000,2.767740966796875,-0.021928923213481902,-0.004229572994308546,-0.0044905985506717115
1772555894424673000,2.777673095703125,-0.014298574465513228,0.00046319706495851273,-0.00667247263439931
1772555894434604300,2.787604248046875,-0.031057986086606978,-0.013137102071242406,0.002569138101954013
1772555894444535300,2.797535400390625,-0.02671791105568409,-0.009286308394605293,-0.0023951515082269908
1772555894454467000,2.807467041015625,-0.018638649496436118,-0.003000798384333029,-0.0035929738575126973
1772555894464398000,2.817398193359375,-0.01744330223202705,-0.007674808944202959,-0.0025797645272454244
1772555894474329300,2.827329345703125,-0.016845920860767364,-0.004578642160305753,-0.0007473797346232459
1772555894484260000,2.837260009765625,-0.011459551647305487,-0.009914377165073528,-0.006296451529394835
1772555894494192000,2.847192138671875,-0.02567687757015228,-0.014339180470537394,0.0002820135454647243
1772555894504123100,2.857123046875,-0.02178746891617775,-0.008880677602626383,-0.002186614190926775
1772555894514054100,2.86705419921875,-0.02029167740046978,-0.015067522144550457,-0.0008447163289878517
1772555894523986200,2.876986083984375,-0.018497195199131965,-0.007289115828555077,-0.001278988693561405
1772555894533917200,2.886917236328125,-0.012811550778150558,-0.002134354280726984,-0.006070775847625919
1772555894543848000,2.896847900390625,-0.014309095859527587,-0.0013470398279372602,0.00006603270722553133
1772555894553780000,2.906780029296875,-0.017751345267891884,-0.007875957539491356,-0.005726410256209783
1772555894563711200,2.916711181640625,-0.022838439273834228,-0.004329918963089585,-0.006353657042770646
1772555894573642200,2.926642333984375,-0.01341010119318962,-0.009266078457329421,-0.0005221789768896997
1772555894583574000,2.936573974609375,-0.01790039834976196,-0.0056250368075445294,-0.00783371213322971
1772555894593505000,2.946505126953125,-0.022988076877593994,-0.01115570986252278,-0.0019920186340110376
1772555894603436300,2.956436279296875,-0.02538286305963993,-0.006349095032084733,-0.0008714810383273288
1772555894613368000,2.9663681640625,-0.01341185475885868,-0.003473384332144633,-0.004522865985613316
1772555894623299000,2.976299072265625,-0.02538227853775024,-0.006938302230043336,0.0014273567888420074
1772555894633230300,2.986230224609375,-0.019843933632969855,-0.016736030745506284,-0.0025689052065135907
1772555894643162400,2.996162353515625,-0.017300678890943527,-0.011211604768224059,-0.00026961528819520025
1772555894653093000,3.006093017578125,-0.01834580402970314,-0.004969723837124184,0.003281939713540487
1772555894663024000,3.016024169921875,-0.024181670576333997,-0.009474606641475111,0.008057798646111041
1772555894672955100,3.025955078125,-0.00906651903092861,-0.011651174362422898,0.005197294648457318
1772555894682887200,3.03588720703125,-0.01490238557755947,-0.001717370977671817,-0.008758736289967782
1772555894692818200,3.045818115234375,-0.012956512206792831,-0.0026640133111737667,-0.013085189220914617
1772555894702749200,3.055749267578125,-0.0202864167034626,-0.003704727136297151,0.006640725789265707
1772555894712681000,3.065680908203125,-0.01699205133318901,-0.012425684132566674,0.0015059932493139059
1772555894722612200,3.0756123046875,-0.021330957320332525,-0.010321935052657499,-0.00036687881732359526
1772555894732543200,3.085543212890625,-0.01729132654070854,-0.012403234838740899,-0.0016667185026686638
1772555894742475000,3.09547509765625,-0.011006547182798384,-0.0034633926610928025,0.0006210682075237855
1772555894752406000,3.105406005859375,-0.015195231044292448,-0.007687293966440484,0.012202067977143452
1772555894762337300,3.115337158203125,-0.017889292433857916,-0.006616157603589817,0.005831683561857789
1772555894772269300,3.125269287109375,-0.026420389413833616,-0.0010360467831604181,-0.001339788103243336
1772555894782200000,3.135199951171875,-0.013402502408623694,0.0002432250381913036,0.000014658713014796376
1772555894792131000,3.145131103515625,-0.013702362138032912,-0.010197952479962259,0.0018621725761098786
1772555894802062000,3.15506201171875,-0.020285247659683227,-0.003323746728384867,-0.005443227666965685
1772555894811994000,3.164994140625,-0.023127777609229086,-0.0015267346432432532,-0.0037026858762605115
1772555894821925000,3.174925048828125,-0.015047347006201743,-0.00823261635689996,-0.0011522479081992059
1772555894831856000,3.184856201171875,-0.01489712488055229,-0.007330333754932508,0.0026624104425543916
1772555894841788200,3.1947880859375,-0.019234861823916434,-0.008094559593079611,0.0008235959091456607
1772555894851719200,3.20471923828125,-0.020430793610215187,-0.009734828480239956,-0.003283131590206176
1772555894861649400,3.2146494140625,-0.015045008918642997,-0.006842093580262735,-0.006478936523408628
1772555894871581400,3.22458154296875,-0.017588848182559014,-0.008469028061814605,-0.0014052545548882335
1772555894881512400,3.234512451171875,-0.01968377463519573,-0.01077489385139197,-0.005287849875586107
1772555894891443500,3.244443359375,-0.015494506251811981,-0.011063026610389352,-0.007248427625140175
1772555894901375500,3.25437548828125,-0.023127777609229086,-0.005373400134034454,0.0036996673686895518
1772555894911306500,3.264306396484375,-0.017590017226338385,-0.011206882927333935,-0.0025611511583207174
1772555894921237500,3.274237548828125,-0.025819500911235808,-0.010011179469898343,-0.0027617654640693214
1772555894931169500,3.28416943359375,-0.019087562307715415,-0.006781960890861228,-0.004064815453230403
1772555894941100500,3.2941005859375,-0.0213321263641119,-0.003674953052541241,-0.004022579180123284
1772555894951031600,3.304031494140625,-0.021033435678482055,-0.007971170675428584,-0.003977182835550047
1772555894960963600,3.313963623046875,-0.018639818540215493,-0.0018871015213895589,0.0010362111799418925
1772555894970894600,3.32389453125,-0.016244447836279867,-0.0004554612830746919,0.005646970078139565
1772555894980825300,3.333825439453125,-0.009511924710869788,-0.006331029652431607,0.00012433419914450496
1772555894990756600,3.343756591796875,-0.008166355320811272,-0.0024031795510556547,-0.0011326892577810212
1772555895000688600,3.353688720703125,-0.0005360065728425979,-0.001854423094494268,-0.0004877332845935598
1772555895010619400,3.363619384765625,-0.015050854137539862,-0.006298707418562844,-0.004572682776977308
1772555895020550400,3.37355029296875,-0.025375264275074003,-0.012922619070345535,-0.0029634529154747725
1772555895030482400,3.383482421875,-0.019989479583501814,-0.005695983151905238,-0.009630870348843745
1772555895040413700,3.39341357421875,-0.02208499055802822,-0.009172646286524831,0.00065731769783888
1772555895050344400,3.403344482421875,-0.018942016357183455,-0.01023232967359945,0.00897317362509202
1772555895060276500,3.4132763671875,-0.013104980766773223,-0.0037775640436448154,-0.0036332693352829665
1772555895070207500,3.42320751953125,-0.016398761615157128,-0.0059047031322959805,0.0027226846958510577
1772555895080138500,3.433138427734375,-0.011162614527344702,-0.015960397597355767,-0.004716055036731995
1772555895090070500,3.443070556640625,-0.011314005696773528,-0.003707768476754427,-0.005121841092337854
1772555895100001500,3.45300146484375,-0.01445581085383892,-0.006247506954288109,0.00247317148076836
1772555895109932500,3.4629326171875,-0.014006898042559623,-0.007711716021643951,-0.005845374160492792
1772555895119864600,3.472864501953125,-0.006226911690831184,-0.008127247153129428,0.004284499785630032
1772555895129795600,3.482795654296875,-0.011764672073721885,-0.011631583745963871,-0.0007235330681549385
1772555895139726300,3.492726318359375,-0.015205167916417121,-0.007804043080750852,-0.0022836539577692746
1772555895149657600,3.50265771484375,-0.01804652882218361,-0.009723905227426438,-0.00013005612045526504
1772555895159589600,3.512589599609375,-0.022387188374996186,-0.01157471159272827,-0.0066575399267487225
1772555895169520600,3.522520751953125,-0.01685176607966423,-0.0011608330734539777,-0.005312746854824945
1772555895179451400,3.532451416015625,-0.008170446974039076,-0.011048797155637294,-0.0034596937335096296
1772555895189383400,3.542383544921875,-0.01056406411230564,-0.008341447026235982,-0.001221326522459276
1772555895199314700,3.552314697265625,-0.01894318540096283,-0.01018763201534748,0.00010072956127114594
1772555895209245400,3.562245361328125,-0.01699906559586525,-0.007928217449691147,-0.006679788291174918
1772555895219177500,3.572177490234375,-0.025678046613931655,-0.007351467874506488,0.004766191488504409
1772555895229108500,3.5821083984375,-0.021788053438067435,-0.014515870478004216,-0.004817615715065039
1772555895239039500,3.59203955078125,-0.005628361275792122,-0.010451616713777184,-0.011230094839562662
1772555895248971500,3.601971435546875,-0.018797054928541182,-0.009589108999771997,-0.015557808145834132
1772555895258902500,3.611902587890625,-0.02358604277074337,-0.00220781224258244,-0.006772192982095293
1772555895268833300,3.621833251953125,-0.018648001846671102,-0.0049055908260401335,0.000437683597789146
1772555895278764500,3.6317646484375,-0.024334815311431883,-0.011033234260324388,0.0009561134147457778
1772555895288696600,3.641696533203125,-0.017001988205313682,-0.005237635792000219,-0.0013097491580061613
1772555895298627600,3.651627685546875,-0.017751345267891884,0.004820442426390945,0.0008809384198393672
1772555895308558600,3.66155859375,-0.021942367216944692,-0.0065739441633690145,-0.0036187247866997494
1772555895318490600,3.67149072265625,-0.011020575708150864,-0.010730561519321053,-0.0038961945877876132
1772555895328421600,3.681421630859375,-0.0159597856760025,-0.0026773659830912947,0.004027853576862253
1772555895338352400,3.691352294921875,-0.02224456503391266,-0.006426315853605046,0.006414913110178895
1772555895348284400,3.701284423828125,-0.01685878034234047,-0.0055466195427812635,-0.0027672042575897647
1772555895358215700,3.711215576171875,-0.021948796957731245,-0.008886605019913986,0.0034136854675831272
1772555895368146400,3.721146484375,-0.0246434428691864,-0.003398958255909383,0.004187268222542479
1772555895378078500,3.731078369140625,-0.022547347372770307,-0.004378224217379465,-0.0028094633635831995
1772555895388009500,3.741009521484375,-0.012522212442755698,-0.00709896355131641,0.00030983770072925835
1772555895397940500,3.7509404296875,-0.02449438978731632,-0.008944070828193798,-0.0011850861652987078
1772555895407872500,3.76087255859375,-0.01940671125948429,-0.006110007312893867,-0.007595368766132741
1772555895417803500,3.770803466796875,-0.024941549032926558,-0.01610570608587004,-0.0031645786778768522
1772555895427734500,3.780734619140625,-0.022996844705939292,-0.013686004658276215,-0.005962214606348425
1772555895437665500,3.79066552734375,-0.01820727234184742,-0.005766481971694156,0.0016593069477705284
1772555895447597600,3.80059765625,-0.010876198801398276,-0.002612904178444296,-0.0037692665727576237
1772555895457528600,3.810528564453125,-0.009978957700729369,-0.0009273622442968189,0.005828436725423671
1772555895467459300,3.820459228515625,-0.01506838979423046,-0.00636490452256985,-0.013676414846023544
1772555895477391400,3.830391357421875,-0.00893324804008007,-0.007360683227423578,-0.007997633990668692
1772555895487322600,3.840322509765625,-0.013871873486042022,-0.008662139481119812,-0.002728233087225817
1772555895497253400,3.85025341796875,-0.011478840869665146,-0.005558337380038574,-0.008122831272915937
1772555895507185400,3.860185302734375,-0.0141734867811203,-0.017291609668498856,-0.000797543585859239
1772555895517116700,3.87011669921875,-0.016417466315627096,-0.002467604823084548,-0.0006959235420217737
1772555895527047400,3.88004736328125,-0.020008184283971785,-0.00684391107801348,-0.0035414126336341723
1772555895536979500,3.8899794921875,-0.018361586120724676,-0.0030037392600905147,-0.004368625271972269
1772555895546910500,3.899910400390625,-0.012228197932243346,-0.0018516100829001514,0.00024048052525613457
1772555895556841700,3.909841796875,-0.02180442005097866,-0.006904482158832252,0.0027032904422143473
1772555895566773500,3.9197734375,-0.009234861335158348,-0.0038228553569409993,-0.006267230001487769
1772555895576704500,3.92970458984375,-0.019110358661413192,-0.003316558935772627,-0.009796673636115156
1772555895586635500,3.939635498046875,-0.01940846482515335,-0.005677470247680321,-0.008166460352088324
1772555895596566500,3.94956640625,-0.02015431475639343,-0.006079940968193113,-0.008898272624821402
1772555895606498600,3.95949853515625,-0.018060557347536085,0.0002624320621602237,-0.0016520689228083937
1772555895616429600,3.9694296875,-0.019554595297574997,-0.004640966806793585,0.00596226483869832
1772555895626360300,3.9793603515625,-0.011623217776417732,-0.007011805857671425,0.004658717092615552
1772555895636292400,3.989292236328125,-0.01596153924167156,-0.008880339675908908,-0.0034389888721983878
1772555895646223600,3.9992236328125,-0.016709142738580703,-0.0061589062222279604,-0.006385983843216672
1772555895656154400,4.009154296875,-0.012220599147677421,-0.007559174074744805,-0.0015837346606422215
1772555895666086400,4.01908642578125,-0.015814824247360228,-0.007747846780950203,-0.00009236359172500669
1772555895676017400,4.029017333984375,-0.014468670335412024,-0.005535824154131114,0.0007475806640228256
1772555895685948700,4.03894873046875,-0.013272154027223586,-0.010058927601762115,0.001150179248698987
1772555895695880400,4.04888037109375,-0.019407880303263663,-0.0036349041699431837,0.00016287154466845095
1772555895705811500,4.0588115234375,-0.024793080472946167,-0.0030257501624990253,-0.00047870972792152315
1772555895715742500,4.068742431640625,-0.024642273825407027,-0.015601391559233888,-0.005097071977262385
1772555895725673500,4.078673583984375,-0.009530044889450072,-0.004415606218855827,-0.00034501404538750646
1772555895735605500,4.08860546875,-0.019556348863244057,-0.0033342863887082783,-0.0007077966429060325
1772555895745536500,4.09853662109375,-0.021052140378952026,-0.008656741786794736,-0.002191367997857742
1772555895755467500,4.108467529296875,-0.011924246549606322,-0.009991835448611527,0.0021364594728453083
1772555895765399600,4.118399658203125,-0.01865910776257515,-0.0076377831357531244,-0.004281344280741177
1772555895775330600,4.12833056640625,-0.020754034215211867,-0.007241185033600777,-0.009466560332337394
1772555895785261300,4.13826123046875,-0.017611644536256788,-0.010364870012085884,-0.0030917052379110825
1772555895795193300,4.148193359375,-0.009832242706418037,-0.000910438508959487,0.003961583407619037
1772555895805124600,4.15812451171875,-0.02344926464855671,-0.0006185246239881963,-0.00033096268714871257
1772555895815055600,4.1680556640625,-0.020906009906530378,-0.003407972679426893,0.0021769924126332626
1772555895824987400,4.1779873046875,-0.014171733215451239,-0.004340084164077416,0.0024902870123507453
1772555895834918400,4.18791845703125,-0.014172902259230612,-0.0026484595490153875,-0.004026762164896354
1772555895844849700,4.197849609375,-0.017315876460075378,-0.010560419983649625,-0.0025267145991791037
1772555895854781700,4.20778173828125,-0.0189618901014328,-0.006141480163391679,-0.0026294534544460475
1772555895864712200,4.217712158203125,-0.017016601252555847,-0.005712952553015202,-0.00771144202700816
1772555895874643200,4.227643310546875,-0.027491818037629127,-0.004570458853850141,0.002829994694958441
1772555895884574500,4.237574462890625,-0.017167407900094984,-0.006177903183642775,0.001978031207853928
1772555895894506200,4.24750634765625,-0.010583353334665297,-0.005279666569130495,-0.00308120667678304
1772555895904437200,4.257437255859375,-0.017315876460075378,-0.0030017847650218752,-0.002390356602100655
1772555895914368500,4.267368408203125,-0.02314940491914749,-0.007933386815153062,-0.004592812249553389
1772555895924300300,4.27730029296875,-0.014171148693561553,-0.006864460675697773,-0.003463689488614909
1772555895934231300,4.287231201171875,-0.024047230541706082,-0.00474445458073169,0.00014775617392733691
1772555895944162300,4.297162353515625,-0.00743921009004116,-0.008556861608894541,0.002997505882126279
1772555895954094300,4.30709423828125,-0.013873042529821395,-0.006099677715124562,-0.002859453684883192
1772555895964025300,4.317025390625,-0.010282324561476706,-0.008779527916247025,-0.005492569534294307
1772555895973956400,4.326956298828125,-0.018663199415802953,-0.005292069392977282,0.006132196311815641
1772555895983888400,4.336888427734375,-0.01581950042247772,-0.007854969550389796,-0.00257843565326184
1772555895993819100,4.346819091796875,-0.026145664125680923,-0.000010630991868674755,-0.0019050618697656317
1772555896003750400,4.35675048828125,-0.011930091768503188,0.002007659161137417,-0.002877286169095896
1772555896013681400,4.366681396484375,-0.021655951490998266,-0.00030256314314901824,-0.003119355863239616
1772555896023613200,4.37661328125,-0.011480594435334205,-0.0015052625969517975,-0.0007586957130813971
1772555896033544200,4.386544189453125,-0.018064064478874205,-0.009011573973298072,-0.003759891389636323
1772555896043475500,4.396475341796875,-0.024498481440544128,-0.01400795748848468,0.002912174819386564
1772555896053407200,4.4064072265625,-0.01582008494436741,-0.007850594769371673,0.005502072581578977
1772555896063338200,4.416338134765625,-0.0244996504843235,-0.010525659197522326,0.008713929033861496
1772555896073269200,4.426269287109375,-0.007888707423210144,-0.011401464784517883,-0.004032904211315326
1772555896083201500,4.436201416015625,-0.01836275516450405,-0.009453180260956286,-0.003957436955464072
1772555896093132300,4.44613232421875,-0.016716741523146627,-0.01275910820486024,-0.0036375162521377204
1772555896103063300,4.456063232421875,-0.027490648993849752,-0.007421336506633088,0.001192936111614108
1772555896112995300,4.465995361328125,-0.01267594169974327,-0.0026724706122651693,0.0052170998940477145
1772555896122926300,4.47592626953125,-0.016116437542438505,-0.009908541079331189,-0.004882625508983619
1772555896132857300,4.485857421875,-0.02165185983777046,-0.006230656284186988,-0.0028815650519914923
1772555896142788400,4.495788330078125,-0.019707155510783194,-0.005801334089366719,0.005736146198934875
1772555896152720100,4.50572021484375,-0.027338088780641555,0.0009952398487366736,0.007106407072255388
1772555896162651400,4.5156513671875,-0.02225099477469921,-0.0028220442839432505,-0.007456741180154495
1772555896172582400,4.52558251953125,-0.01865910776257515,-0.0053959864251781255,0.004471405226434581
1772555896182514200,4.53551416015625,-0.013121347379684447,-0.008242480163788422,-0.0037134264659835024
1772555896192445200,4.545445068359375,-0.014319032731652259,0.0007650660883635282,-0.008278597223362884
1772555896202376400,4.55537646484375,-0.019259411743283272,0.0014473675304092467,-0.00003964702379889786
1772555896212308500,4.56530859375,-0.015069558838009834,-0.0009436557919718325,0.0071768830591579895
1772555896222239200,4.5752392578125,-0.015815993291139602,-0.0013410850111860782,-0.007417537114350125
1772555896232170200,4.585170166015625,-0.021202947026491163,-0.0025709647328592835,-0.003796574704791419
1772555896242102300,4.595102294921875,-0.01551671808362007,0.0015553762158378958,-0.009442174809752032
1772555896252033300,4.605033203125,-0.021950550523400305,-0.007627882796246558,0.0020837748709600415
1772555896261964300,4.61496435546875,-0.016263737058639524,-0.009352532898075878,0.0015327899246942252
1772555896271895300,4.624895263671875,-0.024794249516725538,-0.006135196553077548,-0.0031673551568528633
1772555896281827300,4.634827392578125,-0.014917583146691322,-0.008788240945665165,0.0009519075970863923
1772555896291758300,4.64475830078125,-0.027038229051232335,-0.016893595927394926,0.010301718815113417
1772555896301689300,4.654689453125,-0.024196283623576162,-0.005246778079681098,-0.0024045266913482917
1772555896311621000,4.66462109375,-0.01641571274995804,-0.0030139318605419247,-0.0027872834978159514
1772555896321552400,4.674552490234375,-0.013123685467243193,-0.009942087155906483,0.0007282914416631683
1772555896331483400,4.6844833984375,-0.014770868152379988,-0.004429561678972095,0.00041311084553599355
1772555896341415400,4.69441552734375,-0.014923428365588187,0.0010171137538272886,0.0031032906444277615
1772555896351346200,4.70434619140625,-0.028092706540226935,-0.007796846154984086,0.007480012457887641
1772555896361277400,4.71427734375,-0.02016308258473873,-0.01053955072555691,-0.0007655410123988985
1772555896371209500,4.72420947265625,-0.016123451805114746,-0.008600874280557036,0.0009629998132586479
1772555896381140200,4.73414013671875,-0.016273673930764197,-0.008687958908965811,0.01169499523784034
1772555896391071200,4.7440712890625,-0.018368600383400917,-0.013255184626113622,-0.0016975200663087889
1772555896401003300,4.754003173828125,-0.02061491800546646,-0.0021985603570472446,-0.0051605793672613795
1772555896410934300,4.763934326171875,-0.0167266783952713,-0.006747236637352034,-0.001230596674303524
1772555896420865300,4.773865234375,-0.014333645778894424,-0.007824090354936197,-0.0007758295109728351
1772555896430796300,4.78379638671875,-0.01702595360279083,-0.003127146444050595,-0.0003622163419378921
1772555896440728000,4.79372802734375,-0.019122633621096608,-0.0020607227889355272,0.001011300500971265
1772555896450659300,4.803659423828125,-0.02435936523079872,-0.0032651118763256815,-0.0016014347141142934
1772555896460590300,4.81359033203125,-0.010294014999270438,-0.010772711027460172,0.005111091369460336
1772555896470522400,4.8235224609375,-0.016578794357180595,-0.011327020441973581,-0.001523391908686608
1772555896480453400,4.833453369140625,-0.01882277389168739,-0.007472345174662769,0.0042010958184953776
1772555896490384400,4.84338427734375,-0.018225392520427704,-0.002613698762888089,-0.005348375290632247
1772555896500316400,4.85331640625,-0.0194236623942852,-0.0016768837036564945,-0.002697280826536007
1772555896510247200,4.8632470703125,-0.015834113469719885,-0.007632038381556049,-0.0017384274654323234
1772555896520178400,4.873178466796875,-0.01733107402920723,-0.010134011265123262,0.001890932879713364
1772555896530110500,4.8831103515625,-0.01972469116747379,-0.005278963316231965,0.0033760842703981324
1772555896540041200,4.893041259765625,-0.019874913293123245,-0.0014999471010174602,0.009137803302006796
1772555896549972200,4.90297216796875,-0.013440496331453323,-0.008403643808560445,0.005843319200724363
1772555896559903500,4.912903564453125,-0.01628302628099918,-0.000978115183999762,0.009099302489100954
1772555896569835300,4.922835205078125,-0.02196867070198059,-0.004774694455368444,0.007622302438830956
1772555896579766300,4.932766357421875,-0.018677812463045118,-0.0066843914010562,-0.0021562784181674943
1772555896589697300,4.942697265625,-0.016584639576077462,-0.005253801475511863,0.010098542659520171
1772555896599629300,4.95262939453125,-0.015236732098460196,-0.0062723034688271576,0.011267202846403233
1772555896609560300,4.962560302734375,-0.016732523614168167,-0.003621725027961656,0.004042480323836207
1772555896619491300,4.9724912109375,-0.010446575212478637,-0.0072490669459570195,0.004430493260733783
1772555896629423400,4.98242333984375,-0.013289689683914184,-0.010736470670299604,0.0013067397835897282
1772555896639354000,4.99235400390625,-0.005807809495925903,-0.009932990533998235,0.004621399023220874
1772555896649285400,5.002285400390625,-0.01598258202970028,-0.011472949984995647,0.002489364563743584
1772555896659217400,5.012217529296875,-0.017778233274817465,-0.005852808548277244,-0.0020953374445904045
1772555896669148200,5.022148193359375,-0.018676643419265747,-0.012043571213493124,-0.0027647931047948076
1772555896679079200,5.0320791015625,-0.00895019917488098,-0.0032356848524417725,0.001130460768076591
1772555896689010400,5.042010498046875,-0.02466214756965637,-0.00305248290579766,-0.0011491746017010882
1772555896698942200,5.051942138671875,-0.023913375028967856,-0.008616647238424048,0.0029836508867098015
1772555896708873200,5.061873291015625,-0.009847440275549887,-0.0015147884771227835,0.0000299476136919111
1772555896718804500,5.071804443359375,-0.019424831438064574,-0.006519693225482478,-0.0003930224721552804
1772555896728736500,5.081736572265625,-0.02720481778979301,-0.004923382211057469,0.0007246199135435745
1772555896738667300,5.091667236328125,-0.011344400835037231,-0.007747380990069359,0.001413474393961951
1772555896748598300,5.101598388671875,-0.015385785180330276,-0.005448565995786339,-0.003154765103338286
1772555896758530300,5.1115302734375,-0.015385200658440588,-0.0056246440818998955,-0.0009589538258034736
1772555896768461300,5.12146142578125,-0.018229484173655507,-0.007035552059439942,0.0015438319085165858
1772555896778392300,5.131392333984375,-0.009700140759348868,-0.00261927912030369,0.0029433691086713223
1772555896788323300,5.1413232421875,-0.014937456890940665,-0.004538145753135905,-0.0048993026491487394
1772555896798255000,5.151255126953125,-0.021971008789539337,-0.0025377109172288327,-0.004182185622048564
1772555896808186400,5.161186279296875,-0.011796820777654647,-0.00689930366021581,0.0009000906448811292
1772555896818117400,5.171117431640625,-0.01045125138759613,-0.006425329472916201,-0.005133079438982531
1772555896828049400,5.18104931640625,-0.017483634242415426,-0.0018811741041019558,-0.0025102977539179843
1772555896837980200,5.190980224609375,-0.010600304469466209,-0.007426104013295844,0.0038831296102376654
1772555896847911400,5.200911376953125,-0.021674656191468238,-0.0071337152042891825,0.0025268378967652095
1772555896857843500,5.210843505859375,-0.020927052694559096,-0.006962130630202591,0.006608805414196103
1772555896867774700,5.220774658203125,-0.024517770662903785,-0.0052762964351102705,0.002362838407512754
1772555896877705700,5.230705810546875,-0.02257423537969589,-0.006700977209676056,0.0024692853235173968
1772555896887637800,5.2406376953125,-0.01673895335495472,-0.004230257980898023,-0.0019020250958856194
1772555896897568800,5.25056884765625,-0.0230225636690855,0.0017020912101492285,0.0032502522339113056
1772555896907499800,5.260499755859375,-0.01075403372645378,-0.00009757862295955419,0.005386350947152823
1772555896917430800,5.2704306640625,-0.016589315751194954,-0.010128777967579662,-0.0018151002976810559
1772555896927362600,5.280362548828125,-0.005965045884251594,0.001893165935995057,-0.0023436450832756235
1772555896937293800,5.2902939453125,-0.014944471153616905,-0.003769225473562255,0.0016918849099660292
1772555896947224800,5.300224853515625,-0.015693828216195107,-0.008503523986460641,-0.002013175586471334
1772555896957156600,5.310156494140625,-0.017041151171922682,-0.005034413970634341,0.0007585587157635017
1772555896967087900,5.320087890625,-0.027364976787567136,-0.014379521614080295,0.010279954507877118
1772555896977019000,5.330018798828125,-0.02182838544845581,-0.010720469383569433,0.0024347482996759937
1772555896986951000,5.339950927734375,-0.015543606090545654,-0.008072694821143523,-0.0003599513196153566
1772555896996881700,5.349881591796875,-0.003422375664114952,-0.007302614630945026,0.005988892550719902
1772555897006813000,5.35981298828125,-0.009408464336395262,-0.007453384745866059,0.00024834873788058754
1772555897016745000,5.369744873046875,-0.020182956328988075,-0.007202907982980832,0.0069050027486402535
1772555897026675700,5.37967578125,-0.018687164813280106,-0.0018997692067176102,0.0017991264104144646
1772555897036606700,5.389606689453125,-0.01749006398320198,-0.0016216098524630069,0.0024500600332394242
1772555897046538000,5.3995380859375,-0.024971359649300574,-0.006626834261231124,0.00615709329105448
1772555897056469800,5.4094697265625,-0.017939561316370964,-0.002446406771428883,0.003743753105588257
1772555897066400800,5.41940087890625,-0.016592238360643385,0.001416141275083646,-0.0022423264335375277
1772555897076331800,5.429331787109375,-0.012403554499149321,-0.0021412589455489066,-0.0002127705344231799
1772555897086263600,5.439263671875,-0.00881342105269432,-0.009111755545297638,0.0022251104372553528
1772555897096194800,5.44919482421875,-0.021382395246624945,-0.005764755805488676,0.0037948485385859384
1772555897106125800,5.459125732421875,-0.014800678768754004,-0.0041818339955992994,-0.004872674937127158
1772555897116057900,5.469057861328125,-0.02198386827111244,-0.003401616003876552,-0.006596037264168262
1772555897125988600,5.478988525390625,-0.02093640504479408,-0.003144727766513824,-0.004308999472646974
1772555897135919900,5.488919921875,-0.014950900894403457,-0.006772635940089821,-0.009058203293732367
1772555897145852000,5.498851806640625,-0.01629705480635166,-0.005743968745786697,0.004785494410595856
1772555897155782700,5.50878271484375,-0.01794306844770908,0.00026242292900569735,-0.0033032564962049943
1772555897165713700,5.518713623046875,-0.008217208725214004,-0.007574992698384448,-0.0033574024028144773
1772555897175645000,5.52864501953125,-0.024379238975048064,0.0002090122413355857,0.007963813919457606
1772555897185576700,5.53857666015625,-0.020787351962924003,0.0011891915182583033,0.009897247933759354
1772555897195507700,5.5485078125,-0.01719546495079994,-0.008467521091317758,0.0033512923224363472
1772555897205439000,5.55843896484375,-0.014203297397494315,-0.011696739670354872,0.0048271370286587624
1772555897215370800,5.568370849609375,-0.01779576893150806,-0.0014082045638002453,0.004087173415510915
1772555897225301800,5.5783017578125,-0.02288227841556072,-0.008315527133690192,0.0030890337902121246
1772555897235232800,5.588232666015625,-0.012855974441766739,-0.0029668778484221547,0.0008170611370820551
1772555897245164800,5.598164794921875,-0.016744798573851586,-0.00489483197000809,0.00897226487621665
1772555897255095800,5.608095703125,-0.017342179945111273,-0.007805467852856964,0.004878314660047181
1772555897265026800,5.61802685546875,-0.020035656812787055,-0.0027048659113701433,0.003932969234487973
1772555897274958800,5.627958740234375,-0.020932897913455963,-0.005267199813202023,-0.004928702273569069
1772555897284889600,5.6378896484375,-0.022277298259735106,-0.006623153599957004,-0.00019910276867449284
1772555897294820900,5.64782080078125,-0.015543021568655967,-0.008922936708619817,0.00481080238178838
1772555897304751900,5.657751953125,-0.00895896700322628,0.00007839899845421314,-0.0007099155347561464
1772555897314683600,5.66768359375,-0.019284546184539793,-0.005321496416861191,-0.0017917970539070664
1772555897324614700,5.67761474609375,-0.027666590082645416,-0.00042390623418614264,-0.002552109335339628
1772555897334546000,5.6875458984375,-0.020184125372767446,-0.0016852222737390548,-0.0004512828648788854
1772555897344477700,5.697477783203125,-0.017939561316370964,-0.003940663917176426,-0.00267779067477677
1772555897354408700,5.70740869140625,-0.020932313391566277,-0.010767952653951942,-0.004075807204702869
1772555897364339700,5.717339599609375,-0.022727964636683463,-0.01196993058854714,-0.005414252734230831
1772555897374271700,5.727271728515625,-0.019735797083377835,-0.01079495025873184,-0.006960801756219007
1772555897384202800,5.73720263671875,-0.025870938837528227,-0.009051440192805602,0.0007764048997079953
1772555897394133800,5.7471337890625,-0.01644552336633205,0.002997428250312805,0.011985265154996887
1772555897404064800,5.757064697265625,-0.027220015358924866,-0.0037921953571960327,-0.0014056198810692875
1772555897413996800,5.766996826171875,-0.02662029590010643,-0.007393489518482238,-0.004909075124491937
1772555897423927800,5.776927734375,-0.02018529441654682,-0.00775346367098391,0.00887689191007521
1772555897433858800,5.78685888671875,-0.014650456643104553,-0.0038819103341083973,0.0019047787419753147
1772555897443790600,5.79679052734375,-0.014651625686883926,0.0013086988452356307,0.002517302883439697
1772555897453721900,5.806721923828125,-0.02243395012617111,0.001769192496454343,0.002318684171955101
1772555897463652900,5.81665283203125,-0.013754969108104705,-0.00569079552013427,-0.0002621626341016963
1772555897473584600,5.826584716796875,-0.011509820529818535,-0.006669869685359299,0.006047198609216139
1772555897483515600,5.836515625,-0.015848141995072364,-0.006055838573398068,-0.00038998569827526804
1772555897493447000,5.846447021484375,-0.009563947159051895,-0.012586939108883961,0.009336106919660232
1772555897503379000,5.85637890625,-0.01120937627851963,-0.008960199979087338,0.007745896852458827
1772555897513309700,5.866309814453125,-0.021084873604774474,-0.014302821382367983,-0.0048104279224528
1772555897523240700,5.87624072265625,-0.02288052484989166,-0.0000456475063227117,-0.001548393919202499
1772555897533171700,5.886171630859375,-0.005972060146927833,-0.005165876596886664,0.008994709603465162
1772555897543103700,5.896103759765625,-0.01420095930993557,-0.002595843445789069,0.0023091765580931676
1772555897553034800,5.90603466796875,-0.00926174934208393,-0.005241700045764446,-0.0031549797324696553
1772555897562965800,5.9159658203125,-0.020933482435345648,-0.0032857893381733447,0.0036268304613418876
1772555897572897800,5.925897705078125,-0.015546528699994086,-0.006428699606936424,0.0027133871445432305
1772555897582828800,5.935828857421875,-0.01165595100224018,-0.007088579154619946,0.003306329802703112
1772555897592759800,5.945759765625,-0.013752631020545959,-0.0054861671929713335,0.0001358602401567623
1772555897602691600,5.955691650390625,-0.01988894181847572,-0.014241894108522682,0.005100104184565134
1772555897612622800,5.965622802734375,-0.015849895560741425,-0.013607788322912527,0.005683160202950239
1772555897622553900,5.975553955078125,-0.023032500541210175,-0.010019718969380483,0.0003270354307023808
1772555897632486000,5.98548583984375,-0.014205050963163376,-0.0007250811378471553,0.0063095210735220454
1772555897642416600,5.995416748046875,-0.0077712185233831405,-0.008206038877228275,0.00442640617408324
1772555897652348000,6.005347900390625,-0.015104630151391029,-0.004049951244238764,0.006046636920212767
1772555897662278700,6.015278564453125,-0.012111878076195716,0.011547376061230897,-0.003680848503788002
1772555897672210700,6.025210693359375,-0.028274492847919462,-0.0024320494525134563,-0.00795602790522389
1772555897682141700,6.0351416015625,-0.013910451930761337,-0.01209631518088281,-0.003987274971301667
1772555897692073000,6.045072998046875,-0.014958499678969383,-0.01278006879449822,0.002342982929572463
1772555897702004700,6.055004638671875,-0.013612930288910864,-0.004042215462354943,-0.0017792024338152258
1772555897711935700,6.064935791015625,-0.02378770282268524,-0.011221943499147891,0.010676474978215993
1772555897721866800,6.07486669921875,-0.02184358301758766,-0.0014530666188336907,-0.0018108168482081964
1772555897731798500,6.084798583984375,-0.019900047734379766,-0.0017690189665183424,-0.0020385018239729106
1772555897741729800,6.094729736328125,-0.0219943896651268,-0.0013670597026590257,-0.0006698986181989312
1772555897751660800,6.104660888671875,-0.017653730112314223,-0.0065853514733724295,0.0009922715735156088
1772555897761591600,6.114591552734375,-0.003437573233246803,-0.006310653584683313,0.004206808606651611
1772555897771523800,6.12452392578125,-0.013314824125170707,-0.0030433954170439393,0.0071788695202674715
1772555897781454800,6.134454833984375,-0.018403087174892425,-0.0006299958660732954,0.009035612436011434
1772555897791385600,6.144385498046875,-0.024388006803393363,0.0035304482816252854,-0.004486735226307064
1772555897801317600,6.154317626953125,-0.021245617124438284,-0.00424836902632378,0.006798213339340872
1772555897811249000,6.164248779296875,-0.018103227445483205,-0.001672189262229949,0.005617017897870391
1772555897821180000,6.174179931640625,-0.01301496439576149,-0.010059703919896855,0.0012369716161629183
1772555897831111700,6.184111572265625,-0.011668225961923599,0.00017405052580870688,0.0006213513353141025
1772555897841042700,6.194042724609375,-0.016607435929775236,-0.003428275681938976,-0.0058769840083085
1772555897850974000,6.203973876953125,-0.020199907463788986,-0.004659954635053873,0.0022103101603453976
1772555897860905700,6.21390576171875,-0.023044190979003905,-0.007105438957875594,0.0022455047713126988
1772555897870836500,6.22383642578125,-0.018406009784340857,-0.006277710296306758,0.002827875803108327
1772555897880767200,6.233767333984375,-0.030976737543940543,-0.01142536624991335,-0.0040527733889874065
1772555897890698500,6.243698486328125,-0.01735971560180187,-0.008378664630930871,0.0001103878721827641
1772555897900630500,6.253630615234375,-0.023045944544672965,-0.003889107259875163,-0.0033745955662103366
1772555897910561300,6.263561279296875,-0.013468553382158278,0.00117124486961402,0.002024724460369907
1772555897920492300,6.2734921875,-0.018257541224360466,-0.0016344602008815854,0.005181507990858517
1772555897930424600,6.283424560546875,-0.016761749708652494,-0.0036458000232931225,0.002180682207061909
1772555897940355600,6.29335546875,-0.016611527583003043,-0.004583893724158406,0.00782195319677703
1772555897950286300,6.303286376953125,-0.013917466193437575,-0.009884931874880567,0.004283728034072555
1772555897960218400,6.31321826171875,-0.02124970877766609,-0.005424792394554242,-0.000819257660745643
1772555897970149600,6.323149658203125,-0.019604279658198356,-0.003701539665367454,0.004712506806198507
1772555897980080400,6.333080322265625,-0.016163199293613432,-0.005076700476091355,0.0028776103960815817
1772555897990011400,6.343011474609375,-0.0140688573628664,-0.003992576767504215,-0.006682404939946718
1772555897999943400,6.352943359375,-0.014516016608476639,-0.005716934608388692,-0.003323828926775604
1772555898009874400,6.36287451171875,-0.015561726269125938,0.000999833825463429,0.0057968953762669116
1772555898019805400,6.372805419921875,-0.017654899156093598,0.00232240593242459,-0.004096534898900427
1772555898029737500,6.382737548828125,-0.021245617124438284,-0.0048165791020262985,0.0015821363586001097
1772555898039668200,6.392668212890625,-0.024387422281503677,-0.005884418396092951,0.003799031523359008
1772555898049599500,6.402599609375,-0.014212065225839614,-0.0003242817846126854,0.005807544634444639
1772555898059531500,6.412531494140625,-0.009274608823657035,-0.004514655279694125,-0.0005446648033335805
1772555898069462500,6.422462646484375,-0.020796704313158988,-0.0014295030801557004,-0.0013695028214948252
1772555898079393300,6.432393310546875,-0.028128362375497817,-0.0069210953669156874,0.003911099895974621
1772555898089324500,6.442324462890625,-0.01630874524414539,-0.007244993559038266,-0.00004611786378081888
1772555898099256600,6.452256591796875,-0.01182020165324211,0.0013226177727337926,0.0036962196028558535
1772555898109187300,6.462187255859375,-0.029029110607504842,-0.007411308302963152,0.0015951967695727943
1772555898119118300,6.472118408203125,-0.017805705803632735,-0.005250531806191429,0.0036845245984848587
1772555898129050400,6.48205029296875,-0.022145780834555626,-0.0003901957608293742,0.0050205407089088105
1772555898138981400,6.4919814453125,-0.02124678616821766,-0.00573832445628941,0.005325597203243523
1772555898148912400,6.501912353515625,-0.01900280663371086,-0.006689606432290747,0.003614002945809625
1772555898158844400,6.511844482421875,-0.012269698986411094,0.002874569055624306,0.007134642219473608
1772555898168775400,6.521775390625,-0.020198153898119926,-0.004672686252463609,0.0028842364996904506
1772555898178706400,6.53170654296875,-0.021844167539477346,-0.006116281790053472,-0.005405781733407639
1772555898188637400,6.541637451171875,-0.022592940080165862,-0.005167347034765407,0.004598684867913834
1772555898198569500,6.551569580078125,-0.014064181187748909,-0.0009329974006395787,-0.008198969815624877
1772555898208500500,6.56150048828125,-0.01391337454020977,-0.004035593925323337,-0.006290049188071862
1772555898218431500,6.571431396484375,-0.020345453414320945,-0.008527032726211473,0.004238258624263107
1772555898228363500,6.581363525390625,-0.02453355275392532,-0.00476578962970525,0.0035300327230943364
1772555898238294300,6.591294189453125,-0.011216975063085555,-0.006165902218595146,0.0013877919634338468
1772555898248225500,6.6012255859375,-0.019597849917411803,-0.006733390775090083,0.0002465586395934224
1772555898258157600,6.611157470703125,-0.01840074908733368,-0.003948262701742351,0.004752468923828564
1772555898268088300,6.62108837890625,-0.008224807509779929,0.0018817312265280632,0.004276631573005579
1772555898278019300,6.631019287109375,-0.019746318477392194,0.00031639073910191655,0.001557011050498113
1772555898287951400,6.640951416015625,-0.02348667404949665,-0.0007896068745758384,0.00910458601899445
1772555898297882400,6.65088232421875,-0.009720014503598213,-0.002603350898809731,0.0006957454455085099
1772555898307813400,6.6608134765625,-0.02258943294882774,-0.0028695092880167065,0.004371972573106177
1772555898317744400,6.670744384765625,-0.020942834785580632,-0.00505172129846178,0.0069388136866968125
1772555898327676400,6.680676513671875,-0.01869651716351509,-0.0035804523026570674,-0.00012767236712388693
1772555898337607400,6.690607421875,-0.02482990535199642,-0.008507113316189497,0.0004308108990080654
1772555898347538400,6.700538330078125,-0.008218962290883064,-0.0011159618852660058,0.0014349373070988802
1772555898357470500,6.710470458984375,-0.02153729354739189,0.0018750914231874048,-0.0022589944405481217
1772555898367401500,6.7204013671875,-0.01495206993818283,-0.002666917654313147,-0.01010125977299176
1772555898377332500,6.73033251953125,-0.017346856120228765,-0.0015140943573787808,-0.0004216046792455017
1772555898387264500,6.740264404296875,-0.02482990535199642,-0.003816398216690868,0.009802655852329917
1772555898397195300,6.7501953125,-0.015104630151391029,-0.009542959169950335,0.004571531999506987
1772555898407126500,6.76012646484375,-0.013160510346293449,-0.008379970672028138,-0.0019975670253857968
1772555898417057500,6.7700576171875,-0.026780454897880553,-0.0002337082911748439,-0.0020773770962143317
1772555898426989300,6.7799892578125,-0.01241582945883274,-0.008747991133667529,0.00353420657471288
1772555898436920300,6.78992041015625,-0.01870119333863258,-0.003150509053329006,0.0058070651438320055
1772555898446851600,6.7998515625,-0.017653730112314223,-0.0030498342909850177,0.0047886864481028165
1772555898456783600,6.80978369140625,-0.017802198672294614,-0.004521039354708045,0.0018428057219367472
1772555898466714400,6.81971435546875,-0.02169336089193821,-0.009313479529321192,0.0007145597438327968
1772555898476645400,6.829645263671875,-0.015858078867197034,-0.0032428269792813807,-0.0008355831744614988
1772555898486577400,6.839577392578125,-0.02363923426270485,-0.0030281339158304034,-0.002151049687201157
1772555898496508400,6.84950830078125,-0.0164566292822361,-0.008331729349819943,0.00732608227150049
1772555898506439400,6.859439453125,-0.0212450326025486,-0.00329058424429968,0.0018352160705253481
1772555898516370400,6.869370361328125,-0.024833412483334538,-0.0009808825298212467,-0.0024657279598293827
1772555898526302500,6.879302490234375,-0.0163040690690279,0.0008468534871470183,0.002880345775862224
1772555898536233500,6.8892333984375,-0.019596096351742743,-0.0013842300331685692,-0.004768008986255154
1772555898546164500,6.89916455078125,-0.019145429974794386,0.0013381624017376453,0.003275062448182143
1772555898556096300,6.90909619140625,-0.019294483056664466,-0.0065617970678489655,0.003141585961356759
1772555898566027500,6.919027587890625,-0.013307225340604781,-0.004271357176266611,-0.006514149400684982
1772555898575958500,6.92895849609375,-0.02243570369184017,-0.001482886368362233,0.001967861440288834
1772555898585890600,6.938890625,-0.027823826470971105,-0.0029907062485814095,3.881590673699975e-7
1772555898595821300,6.9488212890625,-0.014956161591410637,-0.004739878870313987,-0.0014234386655502022
1772555898605752600,6.958752685546875,-0.01944412066042423,-0.001786426759045571,0.0058674809610238295
1772555898615684600,6.9686845703125,-0.023783026647567748,-0.0032109614031389355,0.009132309709559194
1772555898625615400,6.978615478515625,-0.007920271605253219,-0.00843476046603173,0.002377140927501023
1772555898635546400,6.98854638671875,-0.014354104045033454,-0.010546939447568729,0.0061933519145241
1772555898645477600,6.9984775390625,-0.013157003214955328,-0.002560370273608714,0.00493783086151816
1772555898655409400,7.008409423828125,-0.013607669591903685,-0.006405711456993595,0.004917587224510498
1772555898665340400,7.01834033203125,-0.016301146459579467,-0.0016553294589743018,-0.0007354472682345658
1772555898675271400,7.028271484375,-0.024081132811307904,-0.0012722758249845356,-0.0037902636950137092
1772555898685203200,7.038203125,-0.014654548296332358,-0.006342701823916286,-0.0028230763304047286
1772555898695134500,7.048134521484375,-0.01689969687461853,-0.003904788886196911,-0.0019611394385574384
1772555898705065500,7.0580654296875,-0.01630231550335884,-0.0020940862024202943,-0.003371956084552221
1772555898714997500,7.06799755859375,-0.021838322320580483,-0.0005531129712704569,0.004024136382970027
1772555898724928300,7.07792822265625,-0.017947744622826577,-0.010031656002346425,-0.007595661027077585
1772555898734859500,7.087859619140625,-0.01689969687461853,-0.0021608221625443545,0.001395148719404824
1772555898744790300,7.097790283203125,-0.02064063696861267,0.0064131001790054135,-0.0042995420911349355
1772555898754722300,7.107722412109375,-0.00253624047935009,-0.009059660031879321,0.0035627294162986797
1772555898764653600,7.117653564453125,-0.006577040302753448,-0.00253526323181577,-0.0009289605463389306
1772555898774584600,7.12758447265625,-0.014956161591410637,-0.009336915203835814,-0.0015069476639619096
1772555898784516400,7.137516357421875,-0.014656886383891106,-0.0058651109074242406,0.005762413151352666
1772555898794447400,7.147447265625,-0.012861819660663604,-0.002764487144118175,0.00011957125905901192
1772555898804378600,7.157378662109375,-0.016153846943378448,-0.001489745367411524,0.002626731774397194
1772555898814310400,7.167310302734375,-0.003135375416278839,-0.0012060787209775298,0.00009907189372461288
1772555898824241400,7.177241455078125,-0.019746318477392194,-0.0014507833302021026,-0.005382848382391966
1772555898834172400,7.18717236328125,-0.03201718650758266,-0.003067826605401933,-0.004476743555255234
1772555898844103400,7.197103515625,-0.021690438282489774,-0.0064186166043393314,0.0017061006649862975
1772555898854035500,7.207035400390625,-0.023037176716327667,-0.002037296247575432,-0.0033015531628858294
1772555898863966700,7.216966796875,-0.019297405666112898,-0.007039451916422694,-0.0044999828669475385
1772555898873897700,7.226897705078125,-0.025284078860282895,-0.004518564269831404,-0.002679891300317831
1772555898883829800,7.236829833984375,-0.01974748752117157,0.0030970618330407886,0.007677188130957074
1772555898893760800,7.2467607421875,-0.01615735407471657,0.004365392135269939,-0.00034071232960559424
1772555898903691800,7.25669189453125,-0.01825286504924297,-0.0030487109129782764,0.009350811298447661
1772555898913623800,7.266623779296875,-0.016906711137294767,-0.0027143461257684975,0.005970320280990563
1772555898923554600,7.276554443359375,-0.01615735407471657,-0.0022539346729405223,-0.003616861623176373
1772555898933485800,7.28648583984375,-0.022590601992607116,0.0007452197435777634,-0.0027567102630389854
1772555898943416800,7.296416748046875,-0.016304653590917588,-0.0014018570214044302,0.0027396906295791266
1772555898953348900,7.306348876953125,-0.0077770637422800055,-0.006577241232153028,0.0048197346069151535
1772555898963279600,7.316279541015625,-0.009124386698007582,-0.001151992179872468,0.005625100739626214
1772555898973211000,7.3262109375,-0.018103811967372894,-0.006325074835680425,0.001510660291276872
1772555898983143000,7.336142822265625,-0.014961422288417816,-0.007352171127405017,0.006567792983795516
1772555898993073700,7.34607373046875,-0.024089316117763517,-0.006480374995246529,0.006289295702823438
1772555899003004700,7.356004638671875,-0.0285778597086668,0.0064923850934486835,0.008517328749527223
1772555899012936700,7.365936767578125,-0.02393850947022438,-0.0037205183604732154,0.0009796130213420838
1772555899022867700,7.37586767578125,-0.01989770964682102,-0.004781032864609733,0.009881082250247709
1772555899032798700,7.385798828125,-0.006130465579032898,-0.0018170319598633795,0.006583940400998108
1772555899042729700,7.395729736328125,-0.0230400993257761,-0.0020465572662651537,-0.0023808261553524062
1772555899052661800,7.405661865234375,-0.016457213804125785,-0.005696476342249662,0.0013678816865663975
1772555899062592800,7.4155927734375,-0.02693184606730938,-0.002053498463705182,0.003983146785455756
1772555899072523800,7.425523681640625,-0.022591771036386488,0.00210128312818706,-0.0074334196700714525
1772555899082455800,7.435455810546875,-0.018252280527353285,0.0018647161596454678,-0.011078050649585202
1772555899092386800,7.44538671875,-0.02738134340047836,-0.005981047170981764,0.002859271021792665
1772555899102317800,7.45531787109375,-0.01526186653971672,-0.008449656641064212,0.0033460635914700104
1772555899112249900,7.465249755859375,-0.011971008300781249,-0.00740224821367301,-0.0010253655589418486
1772555899122180600,7.4751806640625,-0.023794132563471793,-0.0064409745666198425,0.007200213702395558
1772555899132112000,7.48511181640625,-0.023645079481601713,-0.0015883925694506614,0.003895263006025925
1772555899142043000,7.49504296875,-0.020503274324536323,0.003298402224574238,0.005376678936509415
1772555899151974700,7.504974609375,-0.012272621595859528,-0.007778031856659799,0.00543183405669406
1772555899161905700,7.51490576171875,-0.00883037218749523,0.0013167177549097686,0.00004172481645364314
1772555899171837000,7.5248369140625,-0.019005729243159294,-0.0010863521982915699,0.006777978835487738
1772555899181768700,7.534768798828125,-0.014366379004716873,-0.0023248901504557577,0.0006097111298702657
1772555899191699700,7.54469970703125,-0.016312836897373197,-0.00041962278471328315,0.0042160148264141755
1772555899201630700,7.554630615234375,-0.01945581109821796,-0.00020157785355113446,0.0011950687031960115
1772555899211562800,7.564562744140625,-0.025592121896147728,-0.0031848771138116715,-0.005454351849178783
1772555899221493800,7.57449365234375,-0.0225999543428421,-0.00937526531969197,0.003806666840543039
1772555899231424800,7.5844248046875,-0.011826046872138977,-0.0033286694986745715,-0.001204530651285313
1772555899241355800,7.594355712890625,-0.014969605594873427,-0.004051092888554558,0.006345953226927667
1772555899251287800,7.604287841796875,-0.01721416965126991,-0.0029553152747917918,0.0028470965268090364
1772555899261218800,7.61421875,-0.02215221057534218,-0.008618501268792897,0.002364267746196128
1772555899271149800,7.62414990234375,-0.024396190109848975,-0.007874706297321244,0.0021357607865240425
1772555899281081600,7.63408154296875,-0.024996494090557098,-0.002511727092601359,0.005343342922488227
1772555899291012900,7.644012939453125,-0.011530278795957565,-0.0013700005784165114,0.00043445046108681707
1772555899300944000,7.65394384765625,-0.017515198424458502,-0.0015550930880475788,0.0007110937116900459
1772555899310875600,7.663875732421875,-0.021704466807842254,0.004076099465647712,-0.006017187063442543
1772555899320806700,7.673806640625,-0.019611293920874594,0.0016366064921952783,-0.0003851496929535642
1772555899330738000,7.683738037109375,-0.017066285613179206,-0.0014115381652023643,-0.004368255379213952
1772555899340668700,7.693668701171875,-0.022003742015361785,-0.004113764594914391,0.0030843302156310527
1772555899350600700,7.7036005859375,-0.022153964141011236,-0.008109720629593357,0.006681235896167345
1772555899360531700,7.71353173828125,-0.016168459990620613,-0.005091971110459417,0.004849157064221799
1772555899370462700,7.723462646484375,-0.012277882292866707,0.0006396404772531241,0.003896623846050352
1772555899380394800,7.733394775390625,-0.01302665483355522,-0.010277986313076689,0.0034748730363324282
1772555899390325800,7.74332568359375,-0.0167658413618803,-0.0023717249668668955,-0.003251686139171943
1772555899400256800,7.7532568359375,-0.014670914909243583,0.00018310148194432258,-0.005202130653779022
1772555899410188800,7.763188720703125,-0.018111410751938818,-0.0038400896195322273,-0.0016994014961412176
1772555899420119800,7.773119873046875,-0.01646481258869171,0.0032673403660301117,-0.0006410743825137615
1772555899430050800,7.78305078125,-0.02200140392780304,-0.002422441373951733,-0.003302512144111097
1772555899439981800,7.79298193359375,-0.014368132570385932,-0.0014720270476303993,0.000020362368016503752
1772555899449913900,7.802913818359375,-0.018407763350009917,-0.006337294996436685,0.00020206191074103116
1772555899459844900,7.812844970703125,-0.016160861206054686,-0.0006770590113475918,0.004581162910955026
1772555899469775600,7.822775634765625,-0.022445056042075157,-0.0045098329741042106,0.010333922317973337
1772555899479707600,7.832707763671875,-0.014514847564697266,-0.007905978218419476,-0.0029671564096352084
1772555899489639000,7.842638916015625,-0.019902385821938512,-0.005309349321341142,-0.007033592997794039
1772555899499569700,7.852569580078125,-0.014816460859775542,0.0021831709916703404,0.0058556763587985184
1772555899509501700,7.862501708984375,-0.020054946035146713,0.00219413991025649,-0.0009123656045645475
1772555899519432700,7.8724326171875,-0.022149287965893744,-0.003042609965754673,-0.006574108560150489
1772555899529364000,7.882364013671875,-0.019455226576328276,-0.0014540895321406423,0.001246849122783169
1772555899539294700,7.892294677734375,-0.015264204627275466,0.007129906678851694,0.0032963974971557033
1772555899549226800,7.902226806640625,-0.0071831895023584365,0.0018654376788530497,0.00172659089716617
1772555899559157800,7.91215771484375,-0.02244622508585453,-0.0036690530347172168,0.0020283320564078167
1772555899569088800,7.9220888671875,-0.01990121677815914,0.001062048874096945,-0.0028001566791208458
1772555899579020800,7.932020751953125,-0.005685644420981407,0.0003696552962996065,-0.0027139625332783905
1772555899588951800,7.941951904296875,-0.017954758885502815,0.004328521590447053,-0.0017433182696811854
1772555899598882600,7.951882568359375,-0.017057517784833907,-0.0068544324720278375,0.0008131110477494076
1772555899608814600,7.961814697265625,-0.033067572343349456,-0.006916501390188932,0.00033610465314704924
1772555899618745900,7.971745849609375,-0.016159107640385625,-0.010647075353795662,0.00500136108440347
1772555899628676600,7.981676513671875,-0.021695698979496955,-0.002381917567318305,0.0010818632528418674
1772555899638607600,7.991607666015625,-0.022744331249594688,-0.0011266385429073125,-0.010557328410842455
1772555899648540000,8.001539794921875,-0.003440495842695236,-0.007069527394277975,-0.0121660239828052
1772555899658471000,8.011470947265625,-0.015709610307216643,-0.0035877770925872026,-0.0018341703243320807
1772555899668401700,8.021401611328125,-0.014961422288417816,-0.0003554715073201805,-0.004745271998061798
1772555899678333700,8.031333740234375,-0.012715104666352272,0.002390922857681289,-0.0020055265695555135
1772555899688265000,8.041264892578125,-0.019749825608730315,-0.0004549954921938479,-0.0005025518278125674
1772555899698195700,8.05119580078125,-0.023641572350263595,0.0031331925923470407,0.0009823849337408318
1772555899708127700,8.061127685546875,-0.01376607502400875,0.001986999965598807,-0.004416752429748885
1772555899718058800,8.071058837890625,-0.023342297142744065,-0.005784547351347282,0.0005960616304306313
1772555899727989800,8.08098974609375,-0.022146949878334998,-0.00357270738761872,-0.0018547244885936379
1772555899737920800,8.090920654296875,-0.014816460859775542,-0.0026475462335627527,-0.0032434252009028567
1772555899747852800,8.100852783203125,-0.014366963526606559,-0.0012235961113590747,-0.003482211525994353
1772555899757783600,8.110783447265625,-0.014065350231528282,-0.0008036536662373692,-0.004313753279577941
1772555899767714800,8.12071484375,-0.02169628350138664,-0.008468032547971233,0.0006083639895776286
1772555899777646800,8.130646728515625,-0.027832009777426718,-0.0012821030992548911,0.0017100142217008397
1772555899787577900,8.140577880859375,-0.022296002960205077,-0.0003069196578580886,-0.008376691869553178
1772555899797508600,8.150508544921875,-0.015413257709145546,-0.002635727931605652,-0.0043144108667038375
1772555899807440000,8.16043994140625,-0.005386369213461876,-0.004258013637503609,-0.0012780845112632959
1772555899817372000,8.170371826171875,-0.016757073533535,-0.0011747885335702448,0.007423464531637728
1772555899827302700,8.180302734375,-0.02678396202921867,0.0004792622837703675,0.0003270947962068021
1772555899837233700,8.190233642578125,-0.02977729862630367,-0.0027070396021474153,0.001774188331980258
1772555899847165700,8.200165771484375,-0.01586100147664547,-0.0016548819344025104,0.008960551605536602
1772555899857096700,8.2100966796875,-0.018104981011152266,-0.0033311263172421603,0.0062130749617237595
1772555899867028000,8.220028076171875,-0.024091069683432578,-0.011253178887628019,0.0021965693293605
1772555899876960000,8.2299599609375,-0.020350129589438437,-0.00043482035384513433,-0.007496036577504128
1772555899886891000,8.23989111328125,-0.012866495835781097,-0.005203167266817763,-0.010234868690557777
1772555899896822000,8.249822021484375,-0.03949263695478439,-0.002947734756534919,-0.013226492821169085
1772555899906754000,8.259754150390625,-0.023021979147195816,-0.0028973014772403984,-0.011585904273600317
1772555899916684800,8.269684814453125,-0.008199673068523407,-0.004430219266097993,-0.012398165937978774
1772555899926616000,8.279615966796875,-0.004901800566911697,0.004213708704896271,-0.0003268253681482747
1772555899936547000,8.289547119140625,-0.01986030024588108,-0.0024156280406750735,-0.010984837674489245
1772555899946478800,8.299478759765625,-0.004595511096715927,0.0011533804193604737,0.0013933403548086062
1772555899956409900,8.309409912109375,-0.00414659828543663,-0.0024043120622169226,-0.0036134275570744645
1772555899966341000,8.319341064453125,-0.019258827221393583,-0.005769084920734167,-0.002283996451064013
1772555899976273000,8.32927294921875,-0.027638533031940457,-0.0047824211040977385,0.0031980562557931986
1772555899986204000,8.339203857421875,-0.01447276198863983,-0.0014576879950240255,0.005395397336711175
1772555899996135000,8.349135009765625,-0.0019061258822679519,0.0005175576006993651,0.006116295489785261
1772555900006066000,8.35906591796875,-0.005202244818210602,-0.0013546020798850804,0.005799375027720816
1772555900015998000,8.368998046875,-0.018527590337395667,-0.006747300569433718,0.007524554852512665
1772555900025929000,8.378928955078125,-0.005817161846160888,-0.009085543391807005,0.004137245935201645
1772555900035859700,8.388859619140625,-0.026771102547645566,-0.0009393084104172885,-0.008918968352978117
1772555900045791700,8.398791748046875,-0.023783026647567748,0.008891345127113162,-0.00897692278502509
1772555900055723000,8.408722900390625,0.0012017770051956176,-0.003909236732451245,0.0105450580177363
1772555900065654000,8.418654052734375,-0.044586160701513285,0.001110500258859247,-0.021861949791340155
1772555900075585800,8.428585693359375,-0.0028378537744283673,-0.008549482020037249,0.011176935313642024
1772555900085517000,8.43851708984375,-0.029622400325536726,0.0004416884860489517,0.0024035357440821826
1772555900095448000,8.448447998046875,-0.01840074908733368,-0.004279841876821592,-0.00004620919532608241
1772555900105378800,8.45837890625,-0.023338790011405944,-0.00423965599690564,0.0036756974046351387
1772555900115310800,8.468310791015625,-0.01959843443930149,0.0038366281539667394,-0.0028356070184148846
1772555900125242000,8.4782421875,-0.029175825601816176,-0.004021483201580122,-0.011216436206968501
1772555900135172900,8.4881728515625,-0.014662147080898283,-0.0027943160268012433,-0.009390394390164874
1772555900145105000,8.49810498046875,-0.020947510960698128,0.0013754165390506385,-0.0050735130051616575
1772555900155036000,8.508035888671875,-0.017954758885502815,-0.005206382137211039,-0.0019361556943506002
1772555900164967000,8.517966796875,-0.01571019482910633,-0.012153525260835886,0.0010723465058254077
1772555900174899000,8.52789892578125,-0.013465630772709845,-0.004940579941030592,0.011212143624341114
1772555900184830000,8.537829833984375,-0.018104981011152266,0.004770575402677059,0.001296072259102948
1772555900194761000,8.547760986328125,-0.008827449578046799,0.005906538896355778,0.00374047886969056
1772555900204692000,8.55769189453125,-0.009126140263676643,0.0012875829919707029,0.0008233630137052387
1772555900214624000,8.5676240234375,-0.015109306326508521,-0.0014829959662165492,-0.00039484910306055094
1772555900224555000,8.577554931640625,-0.020046178206801414,0.0008139649976976215,-0.0031012356846593318
1772555900234485800,8.58748583984375,-0.024086393508315086,-0.00115426633534953,-0.001443495072890073
1772555900244417800,8.597417724609375,-0.02588262927532196,-0.004273832261143252,0.002761441237083636
1772555900254349000,8.60734912109375,-0.010768646773695946,-0.005693882526364177,-0.0006540845611365512
1772555900264279800,8.61727978515625,-0.008972995528578758,-0.0027262831587344404,-0.006438207220798358
1772555900274210800,8.6272109375,-0.013462123641371726,-0.005443652358651161,0.008075023775547743
1772555900284142800,8.637142822265625,-0.015555881050229071,-0.000995641707535833,-0.0023061397842131554
1772555900294073900,8.647073974609375,-0.018697686207294464,-0.0004052471994888037,-0.00027062450177036226
1772555900304004900,8.6570048828125,-0.014207973572611807,-0.0038656350527424364,0.0013725624282611532
1772555900313937000,8.66693701171875,-0.011812602868676185,-0.007366510180011391,-0.0030370981069980187
1772555900323868200,8.6768681640625,-0.014807108509540557,-0.00431483099181205,-0.001450459103216417
1772555900333799000,8.686798828125,-0.015557050094008444,-0.006187246400723234,-0.005246230090409517
1772555900343731000,8.69673095703125,-0.02438333062827587,-0.007704272500704974,0.0011298397135687992
1772555900353662000,8.706661865234375,-0.020940496698021886,0.0032857893381733447,-0.0014911610063631086
1772555900363593000,8.716593017578125,-0.01630056193768978,-0.00714038240709342,-0.005241855309391394
1772555900373524000,8.72652392578125,-0.012409984239935874,0.000337807986466214,0.002679370710509829
1772555900383456000,8.7364560546875,-0.016449615019559858,-0.005314792681438848,0.0014131319006672129
1772555900393386800,8.74638671875,-0.018096213182806967,-0.0009799144154414535,-0.0027189766351133583
1772555900403318000,8.756318115234375,-0.020790274572372435,0.00042566893300972875,-0.004056988339801319
1772555900413250000,8.76625,-0.01540390535891056,-0.005232667355937883,0.002104927256843075
1772555900423180800,8.776180908203125,-0.013158756780624389,-0.0022527656291611493,0.007103804123215377
1772555900433111800,8.78611181640625,-0.01674889022707939,-0.006797779514500871,0.008240557634760625
1772555900443043800,8.7960439453125,-0.024081132811307904,-0.0052959235841874034,0.003445414046407677
1772555900452975000,8.80597509765625,-0.012560206365585327,0.002845973148802295,-0.012971084154839626
1772555900462905900,8.81590576171875,-0.021536709025502202,-0.007104041585233062,-0.004398490687273443
1772555900472836900,8.8258369140625,-0.012707505881786346,0.004432475155266001,0.002117037819745019
1772555900482769000,8.835768798828125,-0.01629880837202072,0.007116206947062164,-0.0030277457567630334
1772555900492700000,8.845699951171875,-0.016898527830839154,0.0025566256802529094,-0.0029035120223183182
1772555900502631000,8.855630859375,-0.006574117693305015,-0.003915958734182641,-0.002970330180833116
1772555900512563000,8.86556298828125,-0.019893033471703528,-0.005646755449008196,-0.0017158366077113896
1772555900522494000,8.875493896484375,-0.016902034962177275,-0.008474562753457576,0.003252960214228369
1772555900532425000,8.885425048828125,-0.01959668087363243,-0.0032908034400083125,0.0007848302347585558
1772555900542357000,8.89535693359375,-0.014059505012631415,0.0010241554159671068,-0.001512601086613722
1772555900552287700,8.905287841796875,-0.021093641433119772,0.00018987828260287642,0.003194727220968343
1772555900562219000,8.915218994140625,-0.01106733745932579,-0.0033355010982602834,0.009047462704009376
1772555900572150000,8.92514990234375,-0.007776479220390319,0.0060110221841372545,-0.003910972031811252
1772555900582082000,8.93508203125,-0.01600654742717743,-0.0009203662479296326,-0.0008383002879330888
1772555900592012800,8.9450126953125,-0.012715689188241957,-0.003219601367320865,-0.00008357749707065522
1772555900601944000,8.954944091796875,-0.014960837766528129,-0.0013564287107903509,0.0008145266867009923
1772555900611876000,8.9648759765625,-0.025884382840991017,-0.0018745160344522446,0.0016499911301536485
1772555900621806800,8.974806884765625,-0.02184241397380829,-0.0037489316042046993,-0.002343097094004042
1772555900631737900,8.98473779296875,-0.009423077383637428,-0.004602297030529007,-0.0022202059332747013
1772555900641669000,8.994669189453125,-0.014660393515229225,0.0003379084511660039,-0.003210947703407146
1772555900651601000,9.004600830078125,-0.017353870382905007,0.0006323248204775154,0.0015610296384897082
1772555900661532000,9.014531982421875,-0.02423603111207485,-0.011136511971708387,-0.0035581628390355035
1772555900671463000,9.024462890625,-0.025135610300302504,-0.004635541713004931,-0.0008593841751571744
1772555900681394700,9.034394775390625,-0.022740824118256567,-0.001937370403902605,-0.008316148188197986
1772555900691326000,9.044325927734375,-0.017651392024755477,-0.0057156650999095285,-0.003672135474369861
1772555900701257000,9.054257080078125,-0.02049509101808071,-0.00580994665408507,0.00364402819131501
1772555900711189000,9.06418896484375,-0.00867313579916954,0.001266001347824931,-0.002738896045135334
1772555900721120000,9.0741201171875,-0.021841244930028914,0.003012826748844236,-0.00007560425316914915
1772555900731051000,9.084051025390625,-0.01840074908733368,-0.002764633274590596,0.00132511569049675
1772555900740981800,9.093981689453125,-0.014361118307709694,-0.0062789889379404485,-0.0004674531149677932
1772555900750913800,9.103913818359375,-0.015258943930268287,-0.0031114191519562152,-0.004110540591366589
1772555900760845000,9.113844970703125,-0.01780336771607399,0.004222202538605779,-0.004652008790615946
1772555900770776000,9.123776123046875,-0.008526420804858208,-0.0020286654165480285,-0.003248224673606455
1772555900780707800,9.133707763671875,-0.003737432962656021,-0.0020829985528253016,-0.005520169927272945
1772555900790638800,9.143638916015625,-0.019748072043061254,0.0009641871233470737,-0.0032245058713015165
1772555900800570000,9.153570068359375,-0.017203063735365866,-0.00226671195612289,0.0037703990839188916
1772555900810500900,9.1635009765625,-0.013313070559501648,-0.004653588826349005,-0.0033234453342854977
1772555900820433000,9.173432861328125,-0.01675590448975563,-0.007484254808165133,0.008321701146150008
1772555900830364000,9.183364013671875,-0.018402502653002736,-0.007777693929942324,0.0014888822843087837
1772555900840295000,9.193294921875,-0.023937340426445006,-0.0022227723496966063,0.004633089461014606
1772555900850227000,9.20322705078125,-0.022442133432626722,-0.003930845776060596,0.00808504284606315
1772555900860158000,9.213157958984375,-0.024089900639653203,-0.002917924140160903,0.003339213725575246
1772555900870088700,9.223088623046875,-0.01585924791097641,-0.0045694359405431895,-0.008046934758801944
1772555900880020700,9.233020751953125,-0.012117723295092583,-0.005961328690359369,-0.008270724444161168
1772555900889952000,9.242951904296875,-0.013464461728930472,-0.0044125100794713944,0.003103496140404604
1772555900899882800,9.2528828125,-0.01136836623251438,-0.006394788204180077,-0.002055672154482454
1772555900909813800,9.262813720703125,-0.014211480703949928,-0.002638184750173241,0.0015315295493695885
1772555900919746000,9.27274609375,-0.017354454904794692,0.00038855179301463063,0.002594035081192851
1772555900929676800,9.2826767578125,-0.016306991678476334,-0.007801476664328947,-0.0029536484740907325
1772555900939607800,9.29260791015625,-0.024380992540717124,0.001966514299996197,-0.01130648911059834
1772555900949539800,9.302539794921875,-0.0034258827954530714,0.0007507909678388387,-0.0036051620522281154
1772555900959471000,9.31247119140625,-0.024661563047766684,-0.005241279920656234,-0.01979330855743028
1772555900969401900,9.32240185546875,0.002280219891667366,-0.0007537592430599034,0.0051731054886942724
1772555900979332900,9.332332763671875,-0.0017535656690597532,-0.006004126652469858,0.004146735282754525
1772555900989265000,9.342264892578125,-0.017464929541945458,-0.00012872267989441752,0.0018667711194138973
1772555900999196000,9.35219580078125,-0.017164485290646552,0.002960110180918127,0.012048704046336933
1772555901009127000,9.362126953125,-0.018664368459582328,-0.0011443933953065426,0.010313263122434727
1772555901019059000,9.372058837890625,-0.0059533554464578625,-0.014142762849293649,0.02160945916788187
1772555901028989700,9.38198974609375,-0.019430092135071752,-0.007981390675343572,0.012621485265879891
1772555901038921000,9.3919208984375,-0.020336685585975647,-0.00044715011245571076,0.0009071368735982105
1772555901048853000,9.40185302734375,-0.06103928285241127,-0.006233414496853947,-0.01925551188630052
