time,seconds_elapsed,z,y,x
1772526348384343000,0.080343017578125,-0.08927811986505985,0.04369666451588273,0.09690145435035229
1772526348394325200,0.0903251953125,0.0035369419544935225,0.04000248617306351,0.08025565917156637
1772526348404307200,0.10030712890625,0.1345142689079046,0.05544818484708666,0.07475238558016717
1772526348414290200,0.110290283203125,0.24382161584496498,0.05408332623466849,0.059675520218536254
1772526348424272400,0.1202724609375,0.29989246263504027,0.0337409415602684,0.05038410639055073
1772526348434254000,0.130254150390625,0.3429717259049415,0.025902795280516148,0.010706322127208113
1772526348444237300,0.1402373046875,0.36599838122725487,0.045915509609133,-0.035890813070535654
1772526348454219000,0.150218994140625,0.3723381056427955,0.028654432076215743,-0.05386456891745329
1772526348464201200,0.160201171875,0.3313479236066341,-0.047172523932904005,-0.04716412143073976
1772526348474184200,0.17018408203125,0.21298633259832858,-0.10400792535468935,-0.05243110204823315
1772526348484166100,0.180166259765625,0.0809668031156063,-0.14460238607153295,-0.07596746045835316
1772526348494149000,0.190149169921875,-0.12521101851165295,-0.1827028380155563,-0.13990648334026337
1772526348504131000,0.200131103515625,-0.2949427312731743,-0.1291606329202652,-0.20752375634349882
1772526348514113300,0.21011328125,-0.3909720789641142,-0.03749678696244955,-0.25448234526477753
1772526348524096300,0.22009619140625,-0.4063058416962623,0.0524685845144093,-0.25747794688418507
1772526348534078200,0.230078125,-0.3954886796057224,0.05265913865044713,-0.1639575132742524
1772526348544060200,0.24006005859375,-0.3535971648156643,0.027860359089076518,-0.09552052138596773
1772526348554043400,0.25004345703125,-0.29993688629865645,0.03052636342793703,-0.09298501155897974
1772526348564025000,0.260025146484375,-0.2831085010945797,0.02178060078397393,-0.1041581474803388
1772526348574007300,0.27000732421875,-0.23544366360008714,0.02074979643151164,-0.135335083771497
1772526348583990000,0.279989990234375,-0.1841238107293844,0.038338060092180964,-0.13856924338713286
1772526348593972200,0.28997216796875,-0.12146423319876193,-0.0011294424213469027,-0.14690423327311872
1772526348603954400,0.299954345703125,-0.06147299809455871,-0.07645823964998126,-0.11595650262795389
1772526348613937200,0.309937255859375,-0.0016384148567914962,-0.09309913945794104,-0.11749006887078285
1772526348623919400,0.31991943359375,0.08999182109236717,-0.10550327847898006,-0.10933430800922214
1772526348633902300,0.32990234375,0.12963117304146288,-0.155420278814435,-0.09409582234509288
1772526348643884300,0.33988427734375,0.21224983501732347,-0.1829031828932464,-0.07890629038922488
1772526348653866200,0.3498662109375,0.265636557289958,-0.1952965082593262,-0.07025631626993417
1772526348663849200,0.35984912109375,0.3217506586998701,-0.189501412114501,-0.07986117996126413
1772526348673831200,0.3698310546875,0.3153600808799267,-0.16645619822219013,-0.06161306415237486
1772526348683813000,0.379813232421875,0.27883915321230884,-0.10577858828902244,-0.06831409616097807
1772526348693796000,0.389796142578125,0.2045890911310911,-0.056362230952084064,-0.0702753862965852
1772526348703778300,0.3997783203125,0.11224106230139731,-0.031410160525143144,-0.02814567883647978
1772526348713760300,0.40976025390625,0.049230771636962885,0.0076652739308774465,0.033651436645910145
1772526348723743200,0.4197431640625,0.0036339725881814953,0.07025222461670637,0.08093129341080785
1772526348733725200,0.42972509765625,-0.03917641061246395,0.08890300294235348,0.12178783912993967
1772526348743707100,0.43970703125,-0.04274550127089023,0.08361424888446926,0.1428838186506182
1772526348753690400,0.4496904296875,-0.02394903086423874,0.08520721716433763,0.13866583562940357
1772526348763672000,0.459672119140625,-0.035227380725741386,0.0712738227494061,0.13495061449855567
1772526348773655300,0.4696552734375,-0.009991817182302474,0.06732450060173868,0.1413723911743611
1772526348783637200,0.47963720703125,0.008480243575572966,0.06508695080801845,0.11458601799234747
1772526348793619200,0.489619140625,-0.006264321091771125,0.06052300389334559,0.08890249148570001
1772526348803602200,0.499602294921875,-0.04684475328326225,0.04807838673144579,0.09744615568630396
1772526348813584100,0.509584228515625,-0.08343465453386306,0.037284167125076054,0.09024806087575853
1772526348823566000,0.519566162109375,-0.1425537829786539,0.043727205784618854,0.06338350789099931
1772526348833549300,0.52954931640625,-0.16657295646965503,0.06063026366010308,0.05025368494391441
1772526348843531000,0.539531005859375,-0.14973288082778452,0.0702726828828454,0.035189021476730704
1772526348853513200,0.54951318359375,-0.14724983184039592,0.05776172248646617,0.07315094173289835
1772526348863496200,0.55949609375,-0.11991349662542343,0.0796652189977467,0.06088197339884936
1772526348873478100,0.56947802734375,-0.07348667649328708,0.08376739361956716,0.04844079030305147
1772526348883460400,0.57946044921875,-0.0666974547445774,0.06420140014514326,0.030451617691293356
1772526348893443000,0.589443115234375,-0.04681611171066761,0.03126023066043854,0.0060369420766830445
1772526348903425300,0.59942529296875,-0.019497896674275397,0.005305851323157549,-0.06869264714978635
1772526348913408300,0.609408203125,0.028681904605031013,-0.002100625541061163,-0.12903854091055691
1772526348923390200,0.61939013671875,0.11029109727740287,-0.009920651642233132,-0.2063099235743284
1772526348933372200,0.6293720703125,0.18499065669178963,-0.026092618764191864,-0.2283333201382309
1772526348943355100,0.639355224609375,0.20642624343037605,-0.07743702155426144,-0.20642017901577053
1772526348953337000,0.649337158203125,0.18495500085651873,-0.059507104849070305,-0.2030019680701196
1772526348963319300,0.6593193359375,0.14878303275704383,-0.0389627678617835,-0.17236154980845747
1772526348973302000,0.669302001953125,0.12953764953911304,0.008959405394643545,-0.18283859322443605
1772526348983284200,0.6792841796875,0.110803722974658,0.03877016789913177,-0.18129019473865626
1772526348993266200,0.68926611328125,0.05465104312002658,-0.020836597932130097,-0.21872034620568154
1772526349003249200,0.699249267578125,0.019489713367819784,-0.030827684462070463,-0.2328090773127973
1772526349013231400,0.7092314453125,-0.009088730862736701,-0.05867372276484966,-0.24454715364053844
1772526349023213000,0.719213134765625,0.025223288583755492,-0.06561886572763323,-0.2475632865913212
1772526349033196300,0.7291962890625,0.05732055459022522,-0.08768208284527063,-0.22624979186244307
1772526349043178000,0.739177978515625,0.05955868890583515,-0.12390271239206194,-0.2000794316869229
1772526349053161200,0.7491611328125,0.06709551415145397,-0.1260061144120991,-0.20633330444991588
1772526349063143200,0.75914306640625,0.10359130737781524,-0.1066458726428449,-0.2297219249524176
1772526349073125000,0.769125,0.12871230463087557,-0.12247428702414036,-0.22629428859129547
1772526349083108000,0.779108154296875,0.14240472989678382,-0.13835647741928697,-0.1844113954991102
1772526349093090300,0.78909033203125,0.12859247764348983,-0.11578560304045676,-0.16159860212318597
1772526349103072300,0.799072265625,0.13800737172067165,-0.09474719892591238,-0.1272434011220932
1772526349113055200,0.80905517578125,0.17525018392205238,-0.05126680750921368,-0.06194573017284274
1772526349123037200,0.819037109375,0.17858605034649372,0.014550503399968146,-0.014637670226767659
1772526349133019100,0.82901904296875,0.17405366761386393,0.07634513466432691,0.02767163158394396
1772526349143002400,0.83900244140625,0.1599555841565132,0.13493439401611684,0.07937595372758806
1772526349152984000,0.848984130859375,0.14304945754110812,0.1613428007312119,0.15483327270671723
1772526349162966300,0.85896630859375,0.14753098686933516,0.18938699195459485,0.19962547737434505
1772526349172949200,0.86894921875,0.15697043086588383,0.2210888289026916,0.2186769454553723
1772526349182931200,0.87893115234375,0.15321312415897845,0.22446970351263879,0.2289084166124463
1772526349192914200,0.8889140625,0.14535598091781138,0.21592998483479023,0.26326595570109784
1772526349202896100,0.898896240234375,0.1515285320729017,0.19684256865754723,0.2667467104889452
1772526349212878300,0.90887841796875,0.15118834033310413,0.1879299250140786,0.2707632526539266
1772526349222861300,0.918861328125,0.12813421248197554,0.1914206897392869,0.2864550350435078
1772526349232843300,0.92884326171875,0.10454933875501156,0.22160364655703305,0.28459092167206107
1772526349242825200,0.9388251953125,0.0636737230092287,0.24186697464585302,0.2777016005497426
1772526349252808200,0.94880810546875,0.02487783614695072,0.2333814703732729,0.23943280630148947
1772526349262790100,0.9587900390625,-0.008264554998278618,0.20969591275081037,0.1734349511936307
1772526349272772400,0.9687724609375,-0.018100304836034774,0.14562398420423267,0.10959215522781014
1772526349282755000,0.978755126953125,-0.027491818037629127,0.09147066147327422,0.05080174728073179
1772526349292737300,0.9887373046875,-0.03705108902156353,0.0631781945772469,0.025277210728079078
1772526349302719200,0.99871923828125,-0.044589667832851405,0.005488076022267341,0.026682839742302893
1772526349312702200,1.0087021484375,-0.07228489948809147,-0.02786138200238347,0.0004579729005694389
1772526349322684400,1.018684326171875,-0.11467793405950069,-0.07224749008715152,-0.02072305455505848
1772526349332667100,1.028667236328125,-0.1289858608752489,-0.10366159613505005,-0.047218628096953034
1772526349342649300,1.0386494140625,-0.10830489189624785,-0.11587722684666514,-0.0999921138420701
1772526349352631000,1.048631103515625,-0.0745709645986557,-0.141174457449466,-0.15679098264575003
1772526349362614300,1.0586142578125,-0.0435749378323555,-0.17035700505301354,-0.19391886323057114
1772526349372596200,1.06859619140625,-0.009271686214208602,-0.18457228514924645,-0.22305698717050254
1772526349382578200,1.078578125,0.008269815695285797,-0.1840745647601783,-0.23780381686016916
1772526349392561200,1.08856103515625,0.007187281155586242,-0.21666838211193679,-0.23694091642051934
1772526349402543400,1.09854345703125,0.014704232656955718,-0.222705031927675,-0.24129582369439304
1772526349412525000,1.108525146484375,0.020447744745016098,-0.2244859239950776,-0.26312903144843874
1772526349422508300,1.11850830078125,0.014128478595614433,-0.22407164410576222,-0.27278686743602154
1772526349432490000,1.128489990234375,0.03751461488008499,-0.19090382625833152,-0.2592944217216223
1772526349442472200,1.13847216796875,0.054209729093313216,-0.16359730165973305,-0.25238142746277153
1772526349452455200,1.148455078125,0.04910919108390808,-0.12974646998420358,-0.21365714453198015
1772526349462437000,1.15843701171875,0.03861351603269577,-0.0822926448918879,-0.20649287892580032
1772526349472419300,1.16841943359375,-0.005503273591399192,-0.02937602434903383,-0.18717538031972944
1772526349482402000,1.178402099609375,-0.05567161833941936,0.020109014309942722,-0.15373575979359447
1772526349492384300,1.18838427734375,-0.058519993507862085,0.07359393626004457,-0.13379618376642466
1772526349502367200,1.1983671875,-0.027573651102185247,0.12926365490332245,-0.09670826986581087
1772526349512349200,1.20834912109375,0.015814824247360228,0.15803528361842034,-0.0436802979029715
1772526349522331100,1.2183310546875,0.043914545050263404,0.18220745571404695,-0.002033990045636892
1772526349532314400,1.228314453125,0.05237666844725609,0.18520839109569787,0.004138561109453439
1772526349542296000,1.238296142578125,0.07379355048537253,0.17606559195816515,0.006795943750441074
1772526349552278300,1.2482783203125,0.08346388062834739,0.16124679301083086,0.02402669921033084
1772526349562261000,1.258260986328125,0.1031353803038597,0.16936214879676698,0.019121902968734502
1772526349572243200,1.2682431640625,0.13858312578201293,0.16651012036651372,0.006508358980715274
1772526349582225200,1.27822509765625,0.14998597880601883,0.13192673663273452,-0.005649404063820839
1772526349592208100,1.2882080078125,0.15108254187107084,0.0998274247996509,-0.029875059912353754
1772526349602190300,1.2981904296875,0.1413373929262161,0.07163783375620841,-0.05891564176194369
1772526349612172000,1.308172119140625,0.13701368450820445,0.0440475237801671,-0.08587474116235971
1772526349622155300,1.3181552734375,0.13899696727991104,0.0018372984297573565,-0.07382679516784846
1772526349632137200,1.32813720703125,0.14329671030044555,-0.02881400655210018,-0.059728638645261525
1772526349642119200,1.338119140625,0.1493248845487833,-0.03729176590964198,-0.06158778358064591
1772526349652102100,1.34810205078125,0.15958908893167972,-0.021052286509424447,-0.05919694292135536
1772526349662084000,1.358083984375,0.15478081186711787,-0.017743308091908692,-0.04105637914016843
1772526349672067000,1.368067138671875,0.1530453663766384,-0.022568974682688713,-0.00978993793465197
1772526349682049300,1.37804931640625,0.1383528241574764,-0.027092005065083503,-0.004183057838305831
1772526349692031200,1.38803125,0.12536007159352303,-0.029551088654994964,-0.007673968693986535
1772526349702014200,1.39801416015625,0.05429214667975902,-0.07110635722801088,0.00039199499227106566
1772526349711996200,1.40799609375,0.002983399724960327,-0.09582929507419466,0.004818287001922726
1772526349721978000,1.41797802734375,-0.04798106383681297,-0.0980275357708335,-0.014434183543920516
1772526349731961300,1.42796142578125,-0.06872574570178985,-0.09440525362044572,-0.015067659141868353
1772526349741943000,1.437943115234375,-0.05719312881827354,-0.08384367372617126,0.02352298747189343
1772526349751925200,1.44792529296875,-0.011150924089550972,-0.0721264940559864,0.05232632649950683
1772526349761908200,1.457908203125,0.026979192340373992,-0.09183744895905256,0.07406783738210797
1772526349771890200,1.46789013671875,0.04266133011877536,-0.11173267438784242,0.08598572725616395
1772526349781872400,1.477872314453125,0.021170213800668716,-0.1199700491182506,0.10791465046964585
1772526349791855000,1.487855224609375,-0.034517186629772184,-0.08966945727020502,0.11491766109950839
1772526349801837300,1.49783740234375,-0.12531564792990685,-0.055580725185573096,0.12028276832923293
1772526349811819300,1.5078193359375,-0.22074761424958705,-0.017083821269869803,0.12228051801770924
1772526349821802200,1.51780224609375,-0.256628490447998,0.02201046401709318,0.1228027883261442
1772526349831784200,1.5277841796875,-0.24269991833865642,0.06012655192166567,0.12472279660329222
1772526349841767400,1.537767333984375,-0.19754618688225745,0.061003042495250695,0.13295498370192943
1772526349851749000,1.5477490234375,-0.11804653370976448,0.0680902242772281,0.13645290882028638
1772526349861731300,1.5577314453125,-0.062438043734431264,0.0762067491069436,0.13873510147333146
1772526349871714000,1.567714111328125,0.005396890607476234,0.0720157271578908,0.14124007003158331
1772526349881696300,1.5776962890625,0.056126376369595526,0.06157660459950566,0.1616466059833765
1772526349891678200,1.58767822265625,0.07949088534414768,0.07183160276263952,0.15819127789773046
1772526349901661200,1.5976611328125,0.11557166802883148,0.06475508850514888,0.1280630469419062
1772526349911643400,1.607643310546875,0.1564659884750843,0.08080240633413195,0.08896350095793604
1772526349921625000,1.617625,0.20541092890799045,0.08273264374434948,0.059549701881781214
1772526349931608300,1.6276083984375,0.22891981478929518,0.06136982998102903,0.04643281148150563
1772526349941590300,1.63759033203125,0.21986440167427063,0.04568696155026555,0.04228760143555701
1772526349951572200,1.647572265625,0.21883856575787067,0.052002428307384246,0.019344971134886143
1772526349961555200,1.65755517578125,0.23202888672053812,0.0553714663490653,-0.01173128126077354
1772526349971537200,1.667537109375,0.24343407783210277,0.029487375769019126,-0.001177227085828781
1772526349981520100,1.67752001953125,0.23499065913558004,-0.00123129536062479,-0.0044764878269284965
1772526349991502300,1.68750244140625,0.18109306473135947,-0.010946779819577932,-0.029813100592046976
1772526350001484000,1.697484130859375,0.1303279231339693,-0.002636924374848604,-0.06955043302290141
1772526350011467300,1.70746728515625,0.10084171640872955,0.011521510967612265,-0.07878850922845304
1772526350021449200,1.71744921875,0.07977613202631473,0.01634308590516448,-0.07198306699730456
1772526350031431200,1.72743115234375,0.06784194860458373,0.016666034249216317,-0.03900923735201359
1772526350041414100,1.7374140625,0.06510229450762271,0.01957359225898981,-0.023378975891321895
1772526350051396000,1.74739599609375,0.06926467488408088,0.03878492707684636,-0.018011530574038623
1772526350061378300,1.75737841796875,0.04768646480441093,0.021121113961935042,-0.014693126741051672
1772526350071361300,1.767361328125,0.03704115214943886,-0.0022204525284469125,-0.015296718657389283
1772526350081343200,1.77734326171875,0.03696867143511772,-0.007236088733375072,0.004985168001428246
1772526350091325200,1.7873251953125,0.023278584256768226,-0.007894991033524274,0.02532945237196982
1772526350101308200,1.79730810546875,0.013691256222128868,-0.013168839783221482,0.04308269733600318
1772526350111289900,1.807289794921875,0.009034954848885536,-0.007649053448438644,0.04555493266843259
1772526350121272000,1.81727197265625,-0.021461305701732634,-0.012009586745500563,0.050222851414233445
1772526350131255000,1.827255126953125,-0.037486557829380034,-0.03120981564745307,0.05515095546618104
1772526350141237000,1.837237060546875,-0.027741993406414985,-0.016478548853099344,0.020827537842839954
1772526350151220000,1.847219970703125,-0.006560673689842224,-0.008095043650269508,0.022151918314397334
1772526350161202000,1.857201904296875,-0.008222469422221183,-0.023944939211010933,0.034427316389232875
1772526350171184000,1.86718408203125,-0.030415012007951735,-0.009297112916409968,0.07841879913322627
1772526350181167000,1.8771669921875,-0.056448447930812835,0.03679258421584963,0.0835577694568783
1772526350191149000,1.887149169921875,-0.0701309363245964,0.06463540764823555,0.08962510667182505
1772526350201131000,1.897131103515625,-0.07522796720266342,0.07391030873283744,0.09058642598465085
1772526350211114200,1.9071142578125,-0.06739946553409099,0.08229512910991907,0.0978899539310485
1772526350221096000,1.917095947265625,-0.06347790817618369,0.07152882042378186,0.08568864400573074
1772526350231078100,1.927078125,-0.04497077610492706,0.062107204344868654,0.07650653577111662
1772526350241060900,1.937060791015625,-0.031571780827641484,0.05757219126373529,0.08560418059267103
1772526350251043000,1.94704296875,-0.00015256021320819854,0.07381985397040844,0.05738653249852359
1772526350261025300,1.957025390625,0.05381342325210571,0.08710691330581903,0.018713468298316
1772526350271008000,1.967008056640625,0.10509528219997882,0.07967164873853326,0.010102437949925661
1772526350280990200,1.976990234375,0.12307517552673816,0.059892889296263456,0.0007354746676981449
1772526350290972000,1.986971923828125,0.13925181882381438,0.053881520052254196,-0.013611030592769384
1772526350300955100,1.996955078125,0.15901158130466936,0.04369549547210336,-0.039461949555575845
1772526350310937000,2.00693701171875,0.17400515229701996,0.02507408937141299,-0.05434256169274449
1772526350320920000,2.016920166015625,0.18363982660472392,0.005825052891671657,-0.06942103448957204
1772526350330902000,2.026902099609375,0.19750819295942781,-0.022404431770741938,-0.07851385700553655
1772526350340884000,2.036884033203125,0.200428464320302,-0.057287675233930344,-0.0828725636716932
1772526350350867000,2.046866943359375,0.16742577390670776,-0.06211378021612763,-0.08577500711493194
1772526350360849200,2.05684912109375,0.08691022168993949,-0.043160804073512554,-0.08803038482628762
1772526350370831000,2.0668310546875,-0.009061258333921431,-0.004181815729290246,-0.09528926991336047
1772526350380814000,2.07681396484375,-0.09552724338769912,0.006968523838371038,-0.10109174564704299
1772526350390796300,2.08679638671875,-0.13838672642707825,0.01950681063309312,-0.09577427695132791
1772526350400778000,2.096778076171875,-0.14682956060171126,0.02202989936992526,-0.10952464294955133
1772526350410761200,2.10676123046875,-0.10462941825389861,0.0029686405472457407,-0.1271482701845467
1772526350420743000,2.116742919921875,-0.05418284108638763,-0.032605215528607366,-0.14169753147549927
1772526350430725000,2.12672509765625,-0.003527589604258537,-0.06914031785205006,-0.15235577667728065
1772526350440708000,2.1367080078125,0.023353987580537795,-0.09124664345905184,-0.14808394457697868
1772526350450690000,2.14668994140625,0.018957798448204992,-0.10735782030448317,-0.13295228028818964
1772526350460672300,2.15667236328125,-0.014045476487278937,-0.09062178955897689,-0.11247260603494942
1772526350470655000,2.166655029296875,-0.040047932749986644,-0.06362652286663652,-0.09876629837416112
1772526350480637200,2.17663720703125,-0.043669630378484724,-0.027605361414700744,-0.097376159190014
1772526350490620200,2.1866201171875,-0.03382861984372139,-0.01960822518095374,-0.09419957498051225
1772526350500602000,2.19660205078125,-0.031145664370059965,-0.01652881773561239,-0.08268595505841075
1772526350510584000,2.206583984375,-0.031087796702980994,-0.006783961051702499,-0.08324037407077849
1772526350520567300,2.2165673828125,-0.03613455869853496,0.008559884683042765,-0.07255377955734729
1772526350530549000,2.226549072265625,-0.049745735421776766,0.019717384643852708,-0.028801731592416762
1772526350540531200,2.23653125,-0.033330607193708416,0.046261984959244724,-0.01216908815614879
1772526350550514000,2.246513916015625,-0.025815993779897687,0.0756666508808732,-0.00007649930231273173
1772526350560496000,2.25649609375,0.012484218519926071,0.08272913661301136,0.01176598724797368
1772526350570478000,2.26647802734375,0.06686696609258651,0.08846008148044347,0.020345453414320945
1772526350580461000,2.2764609375,0.11739362275898456,0.08693067995607852,0.026469123926386236
1772526350590443000,2.286443115234375,0.14245616782307624,0.06675868341252207,0.029696926866471764
1772526350600425000,2.296425048828125,0.140384622246027,0.06208543090447783,0.041444793935865164
1772526350610408200,2.306408203125,0.12003507717847824,0.07831468117162585,0.04223704029209912
1772526350620390100,2.31639013671875,0.10481588073670864,0.09280570946931839,0.03590148059502244
1772526350630372000,2.3263720703125,0.11129062970876694,0.09908055195510387,0.04933423201143741
1772526350640355000,2.33635498046875,0.1353431209474802,0.09708704005032777,0.05100063085369765
1772526350650337000,2.3463369140625,0.1637286729544401,0.0859023598216474,0.05073927650377154
1772526350660319000,2.356319091796875,0.18562427842020987,0.05202274044305086,0.06614595834165811
1772526350670302200,2.36630224609375,0.18249357917904852,0.04998787361457944,0.061430547192320224
1772526350680284000,2.376283935546875,0.1726391246408224,0.04539338543117046,0.03301847250461578
1772526350690267100,2.38626708984375,0.1594283454120159,0.033842648369073865,0.03254413299113512
1772526350700248800,2.396248779296875,0.13623568587303161,0.031891952692717315,0.03804382638595998
1772526350710231000,2.40623095703125,0.08875555729568003,0.016623948673158882,0.06092851595431566
1772526350720214000,2.416214111328125,0.05151508318185806,0.041461014418303965,0.06078516196087003
1772526350730196000,2.426196044921875,0.026452538117766378,0.05418605595678091,0.02806106929294765
1772526350740178200,2.43617822265625,-0.0007137012273073196,0.03640884559527039,0.020512334413826463
1772526350750161200,2.4461611328125,-0.005230301868915557,0.019083032263070343,0.012806363146379588
1772526350760143000,2.45614306640625,-0.025403905847668645,-0.0071373045340180396,-0.003170446729660034
1772526350770125000,2.466125,-0.08554536307752132,-0.013940262547135353,-0.014677709976211189
1772526350780108000,2.47610791015625,-0.13345336167812347,-0.013303718209266662,-0.018243147372826934
1772526350790090000,2.486090087890625,-0.11925415593385695,0.012936784593015909,0.004616626949980855
1772526350800072000,2.496072021484375,-0.05151274509429931,0.013474690861999988,0.018325053502619267
1772526350810055000,2.506054931640625,0.025023966619372368,-0.0008091244257986545,0.021821955707669257
1772526350820037000,2.516037109375,0.09902560689747333,-0.01652151121199131,-0.017716712345927952
1772526350830019000,2.52601904296875,0.13744447714090346,-0.035285102262347934,-0.06034311728179455
1772526350840002000,2.536001953125,0.10620178213715553,-0.05597235485166311,-0.07985723443850874
1772526350849984300,2.545984375,0.061118193307518956,-0.07040200835093856,-0.08972432926259935
1772526350859967000,2.555967041015625,0.04992869077324867,-0.04385463155657053,-0.09988134694397449
1772526350869949200,2.56594921875,0.06010580139458179,-0.025898557496815917,-0.07507306890189647
1772526350879931000,2.575930908203125,0.0913280381321907,-0.044434769532084466,-0.037031215277314185
1772526350889914000,2.5859140625,0.12516776389181614,-0.04867883684262633,-0.0327870749015361
1772526350899896000,2.59589599609375,0.1700906092017889,-0.04302504886463284,-0.03912563027329743
1772526350909878000,2.6058779296875,0.17729367244839667,-0.04703180028796196,-0.043327977333962917
1772526350919861000,2.615861083984375,0.16520692881345747,-0.018014380118250847,-0.055293798002973196
1772526350929843200,2.62584326171875,0.09656184713244438,-0.01389203949123621,-0.039121830881014466
1772526350939825200,2.6358251953125,-0.008311901271343231,0.0114481534704566,-0.04567154478542507
1772526350949808000,2.64580810546875,-0.14541735571622846,0.04806859598979354,-0.0638175884593278
1772526350959790000,2.6557900390625,-0.2088420724004507,0.06191197403371334,-0.09578998597711325
1772526350969772000,2.66577197265625,-0.1953138977855444,0.07836641135886312,-0.0714871732391417
1772526350979755300,2.67575537109375,-0.1167296058923006,0.057874681341648096,-0.0163465930365026
1772526350989737000,2.685737060546875,0.004861468556523323,0.023022855930030346,0.013987462689727543
1772526350999720200,2.69572021484375,0.10164660305082797,0.01608224301189184,0.030225846111401913
1772526351009702000,2.705701904296875,0.1649491546601057,-0.010765870294719935,0.022999767315387724
1772526351019684000,2.71568408203125,0.15009469987750051,-0.05240297193229198,-0.009190291541069746
1772526351029667000,2.7256669921875,0.0916156229019165,-0.06984247477203608,-0.03476458551958203
1772526351039649000,2.73564892578125,-0.006691022071242332,-0.06680763712078333,-0.052409547803550956
1772526351049631200,2.74563134765625,-0.07384206580221653,-0.04276829762458801,-0.040585619823262094
1772526351059614200,2.7556142578125,-0.11119243003129958,-0.009360095150023699,-0.02613295077458024
1772526351069596200,2.76559619140625,-0.10071487515866756,0.018766221398860215,-0.003186886407807469
1772526351079578000,2.775578125,-0.0650239685744047,0.05080751943439245,0.012873583163693546
1772526351089561000,2.78556103515625,-0.012220599147677421,0.041337826430052516,0.017107713602110743
1772526351099543000,2.79554296875,0.04147650424838066,0.019324732064455747,-0.0008368892155587673
1772526351109525200,2.805525146484375,0.1052618709385395,-0.0011352876402437686,-0.03335296515598893
1772526351119508000,2.815508056640625,0.15392448729872701,-0.023659254137426613,-0.04972615393847227
1772526351129490200,2.825490234375,0.17123276497423648,-0.05020575414896011,-0.03318294235132634
1772526351139472100,2.83547216796875,0.16909049224853515,-0.050315936525166034,-0.021744506557285784
1772526351149455000,2.845455078125,0.1612941392838955,-0.026615035203099248,-0.012793722860515116
1772526351159437000,2.85543701171875,0.14715513929426668,0.0022023323498666287,0.01781776156760752
1772526351169419000,2.8654189453125,0.11726561246514319,0.03236220055297017,0.03812653623335063
1772526351179402200,2.87540234375,0.07540566185712815,0.051827802392840384,0.03805807410702109
1772526351189384200,2.88538427734375,0.050966801649332046,0.06254150410890578,0.028147651597857475
1772526351199366100,2.8953662109375,0.05775836148560047,0.06121361650601029,0.044922918375208974
1772526351209349000,2.90534912109375,0.05707330183088779,0.05623612035438418,0.07050203465931117
1772526351219331000,2.9153310546875,0.05540098470449447,0.05603241447582841,0.07959792591519653
1772526351229314000,2.92531396484375,0.05345803394317627,0.0693836250886321,0.07246442077346146
1772526351239296300,2.935296142578125,0.04778232639431953,0.06258841199055314,0.07288074648939073
1772526351249278000,2.94527783203125,0.043025487256050106,0.03806538063064217,0.0747249130513519
1772526351259261200,2.95526123046875,0.051591655549407,0.037126930736750365,0.06301715879663825
1772526351269243000,2.965242919921875,0.054203299352526664,0.03512231291607022,0.057262175466492767
1772526351279225000,2.97522509765625,0.046488194930553436,0.018421938005834818,0.06318710853606462
1772526351289208000,2.9852080078125,0.04816343466639519,0.007160247018188238,0.050520080795139075
1772526351299190000,2.99518994140625,0.052661915129423136,-0.0022299510091543196,0.027217750336602328
1772526351309172200,3.005172119140625,0.061200610893964766,-0.016759996142983437,0.026347324177622793
1772526351319155200,3.0151552734375,0.0230400993257761,-0.03425108303949237,0.019813392364233733
1772526351329137200,3.02513720703125,-0.008041267636418343,-0.020405951429903507,-0.011581716722249984
1772526351339119000,3.035119140625,-0.022149287965893744,-0.008742109382152558,-0.022915596163272857
1772526351349102000,3.04510205078125,-0.02308452298939228,-0.0215346631988883,0.00005187631770968437
1772526351359084000,3.055083984375,0.01106207676231861,-0.05422711861953139,0.01772168078199029
1772526351369066000,3.06506591796875,0.04756956042647362,-0.0587665156148374,-0.01905336777716875
1772526351379049000,3.075049072265625,0.08361059562265873,-0.05156827467381954,-0.05870689438208937
1772526351389031200,3.08503125,0.1148076979190111,-0.05230097286254167,-0.06119169693514705
1772526351399014000,3.095013916015625,0.1045475851893425,-0.05116144743859768,-0.03918400939702987
1772526351408996000,3.10499609375,0.08648001357913017,-0.021282003612071273,-0.01985971572399139
1772526351418978300,3.114978271484375,0.04316694155335426,-0.0031029344514012336,-0.011957564297318458
1772526351428961000,3.1249609375,0.02455927171707153,0.02054842864051461,-0.01564202496372163
1772526351438943200,3.134943115234375,0.03996317707598209,-0.004530775297433138,-0.009332111164554954
1772526351448925000,3.144925048828125,0.07932605017125606,-0.030065467917919156,-0.010881678694114088
1772526351458908200,3.154908203125,0.13900105893313883,-0.04983808988034725,-0.021814868379756807
1772526351468890000,3.16489013671875,0.16675532729923725,-0.051983577476441854,-0.038156639110669494
1772526351478872000,3.1748720703125,0.15957447588443754,-0.033893209512531754,-0.05541596307791769
1772526351488855000,3.18485498046875,0.09437690430879592,-0.01534443025663495,-0.05237834894768893
1772526351498837000,3.1948369140625,0.010769231295585631,0.012482172693312168,-0.06625533700026572
1772526351508819200,3.204819091796875,-0.06099310562312603,0.03764423260912299,-0.06470839981921017
1772526351518802200,3.21480224609375,-0.10224866059720515,0.04793853986933827,-0.03873509658575058
1772526351528784100,3.2247841796875,-0.09442834223508834,0.07109057513698935,-0.029423443687334655
1772526351538766000,3.23476611328125,-0.06927753436565398,0.06712985481247305,-0.011211860496550798
1772526351548749300,3.244749267578125,-0.04917056588232517,0.027320406993478534,0.011549129626899957
1772526351558731000,3.25473095703125,-0.02861000841259956,0.0109688455209136,0.01557166314125061
1772526351568714200,3.26471435546875,-0.0026057985842227933,0.002387918049842119,-0.011071282982081175
1772526351578696000,3.274696044921875,0.042159225815534586,0.01002513493001461,-0.02824146736115217
1772526351588678100,3.28467822265625,0.0645493367999792,-0.012541209404170512,-0.02555252053812146
1772526351598661000,3.2946611328125,0.07107493917644024,-0.03591872399076819,-0.021585662733763455
1772526351608643000,3.30464306640625,0.058151160195469856,-0.04391775992065668,-0.04567483272105455
1772526351618625300,3.314625244140625,0.028720483049750327,-0.02752951969951391,-0.055978930722922086
1772526351628608300,3.324608154296875,-0.0009340659797191619,-0.02124780908152461,-0.053488282950967546
1772526351638590200,3.334590087890625,-0.007203647768497467,-0.0029947979018092154,-0.05574541422799229
1772526351648572200,3.344572265625,0.03491290794909,0.01424815945252776,-0.04661934702955186
1772526351658555100,3.35455517578125,0.09875321969687938,-0.0005560264475643634,-0.01053651851825416
1772526351668537000,3.364537109375,0.1753887156099081,-0.013977818078547715,0.0071796093057841055
1772526351678519000,3.37451904296875,0.21945757443904876,-0.008224222987890243,-0.019328020000085235
1772526351688502000,3.384501953125,0.2052162831187248,-0.01128580251559615,-0.05109915932472795
1772526351698484200,3.394484130859375,0.1449549989014864,-0.018903145651519297,-0.05143452875893563
1772526351708466200,3.404466064453125,0.0763876586318016,-0.024538959581404923,-0.04530483036488294
1772526351718449200,3.41444921875,0.0312923793643713,-0.009058335724473,-0.0434399132758379
1772526351728431000,3.42443115234375,0.025275895553827286,0.013125000641494989,-0.029305662526562807
1772526351738413000,3.4344130859375,0.03454349011480808,0.019453326880186795,0.004077588169835508
1772526351748396000,3.44439599609375,0.06345218921303748,0.03468158341124654,0.014548019181936978
1772526351758378000,3.4543779296875,0.09604045360684395,0.045510582070052624,0.02004007725957781
1772526351768360200,3.464360107421875,0.10755319674611091,0.03049976768195629,0.023655893136560916
1772526351778343200,3.47434326171875,0.0741957015454769,0.003960720324516296,0.022492840706557035
1772526351788325000,3.4843251953125,0.03907704189121723,-0.011437632076442241,0.013077837031520902
1772526351798308000,3.49430810546875,0.018157003459334374,-0.001489800166338682,0.0017259104771539567
1772526351808290000,3.5042900390625,0.017941314882040024,-0.016341186209022997,-0.014092493966780603
1772526351818272000,3.51427197265625,0.022913842597603797,-0.027841508258134126,-0.002610657422430813
1772526351828255200,3.524255126953125,0.037569559937715526,-0.012458207295835017,0.0038916736762970683
1772526351838237000,3.53423681640625,0.06239362007081508,-0.003867196822166443,-0.0022889877200126646
1772526351848219100,3.54421923828125,0.05720949543118477,0.013880349053442478,0.006637684448808431
1772526351858202000,3.5542021484375,0.05950549741387367,0.021583032385259864,-0.007590382063761353
1772526351868184000,3.56418408203125,0.0396709161311388,-0.009779781866818667,-0.008601751063391566
1772526351878166300,3.574166259765625,0.00845744722187519,-0.025077596502751112,-0.020098091057129203
1772526351888149000,3.58414892578125,-0.010521978536248207,-0.004118833495676517,-0.04360515030752867
1772526351898131200,3.594131103515625,-0.001152092644572258,0.00523673160970211,-0.042501609512418506
1772526351908113000,3.60411279296875,0.017886369824409484,-0.004524491687119007,-0.033445063886232675
1772526351918096100,3.61409619140625,0.08217910151481628,0.010187339754402638,-0.023450214496627448
1772526351928078000,3.624078125,0.11394786621928214,0.01938186907917261,-0.023514658034965396
1772526351938060000,3.63406005859375,0.1440057353526354,0.022257570645958184,-0.036002383686229586
1772526351948043000,3.64404296875,0.17818389928638934,0.03237316033840179,-0.05976129880584776
1772526351958025200,3.654025146484375,0.17603461229801176,0.03383592636734247,-0.05447959554325789
1772526351968008000,3.664008056640625,0.1642611723959446,0.03799772222191095,-0.03349887643270194
1772526351977990100,3.673990234375,0.12532441575825215,0.0723040425799787,-0.03906410934440791
1772526351987972000,3.68397216796875,0.12766893305778504,0.08981894874349236,-0.05806402990128845
1772526351997955000,3.693955078125,0.13759937544167042,0.04083294564783573,-0.058292468362301585
1772526352007937300,3.703937255859375,0.17357435966432094,0.0036145372353494167,-0.06822411632258445
1772526352017919000,3.7139189453125,0.2002414173156023,-0.03689166067615151,-0.07764631692338735
1772526352027902200,3.723902099609375,0.20920622953772544,-0.04098243712112307,-0.09930044178348034
1772526352037884000,3.7338837890625,0.17411328884661198,-0.03636369127929211,-0.126094450282678
1772526352047866000,3.7438662109375,0.1118804122954607,-0.024925182420015332,-0.1405758705018088
1772526352057849000,3.75384912109375,0.002280219891667366,-0.020678484760969874,-0.15732249570656567
1772526352067831000,3.7638310546875,-0.07626841616630554,-0.011375818886607885,-0.17689203284494578
1772526352077813200,3.773813232421875,-0.14051964680254458,0.00398497798293829,-0.18215199919976294
1772526352087796200,3.783796142578125,-0.17349837181866168,-0.010086801989376544,-0.17034608180020003
1772526352097778200,3.793778076171875,-0.1525707346022129,-0.01671323439180851,-0.15352708547897637
1772526352107760000,3.803760009765625,-0.1099982518106699,-0.034246552994847294,-0.1205026581576094
1772526352117743400,3.813743408203125,-0.09667758246660232,-0.031244156308472156,-0.10249719199817627
1772526352127725000,3.82372509765625,-0.05620645586848259,-0.03226005535274744,-0.0807554984524846
1772526352137707300,3.833707275390625,-0.02505786888897419,-0.05141469154730439,-0.05757858447190374
1772526352147690200,3.843690185546875,0.01194178220629692,-0.07475567351579665,-0.06089563659802079
1772526352157672200,3.853672119140625,0.03232698310911655,-0.10179171060994267,-0.07097378035690635
1772526352167655200,3.8636552734375,0.003967150065302848,-0.10552812065929174,-0.0785674868889153
1772526352177637400,3.873637451171875,-0.024576807373762128,-0.09504968900382518,-0.08975340922661125
1772526352187619300,3.883619384765625,-0.022373744371533392,-0.0707560824856162,-0.08336823823414742
1772526352197602300,3.893602294921875,-0.0203735104650259,-0.0638688071899116,-0.05682403977755457
1772526352207584300,3.903584228515625,0.0026098902374505997,-0.037220892630517484,-0.017583477887697516
1772526352217566200,3.913566162109375,0.03879880947172642,-0.009628244566917419,0.028474070540629327
1772526352227549400,3.923549560546875,0.04430442115068436,0.004608808969706297,0.07715816808026284
1772526352237531100,3.93353125,0.020448329266905783,0.02831511711925268,0.09188081317674368
1772526352247513300,3.943513427734375,-0.01644260075688362,0.05642915870845318,0.10918719115611165
1772526352257496300,3.953496337890625,-0.031410452786087985,0.08792743590846658,0.11954586888942867
1772526352267478300,3.963478271484375,-0.026388240709900854,0.11226882709115743,0.11135744786728173
1772526352277460200,3.973460205078125,-0.003716390174627304,0.11137903864458203,0.11623802298307419
1772526352287443200,3.983443115234375,0.019323124629259107,0.10449147108793258,0.12691906453855334
1772526352297425200,3.993425048828125,0.06210369721353054,0.112757341260463,0.13008677132185548
1772526352307407000,4.003406982421875,0.07832125704288483,0.11645736482217907,0.13767119856886564
1772526352317390000,4.01339013671875,0.06328793856203556,0.1253667935952544,0.12369418420791625
1772526352327372300,4.023372314453125,0.07768237461745739,0.1342750533245504,0.1005206677608192
1772526352337354200,4.033354248046875,0.07246493223011494,0.11254384464025496,0.08902757917009294
1772526352347337200,4.043337158203125,0.09076338998675346,0.10908683605417609,0.07544011211600155
1772526352357319400,4.0533193359375,0.11205635338425636,0.09755962599813937,0.05908858717605471
1772526352367301000,4.063301025390625,0.13484978447258472,0.08643602830693126,0.05251278898231685
1772526352377284400,4.073284423828125,0.159519530826807,0.08627017022073269,0.04511434929408133
1772526352387266000,4.08326611328125,0.1666051051735878,0.0809410841524601,0.04457837925385683
1772526352397249300,4.093249267578125,0.17346973024606704,0.08391410861387848,0.023239019431360065
1772526352407231200,4.103231201171875,0.17136837405264377,0.08991539485529064,-0.007382401868887245
1772526352417213200,4.113213134765625,0.1558434726625681,0.07483166136145591,-0.029069259954802692
1772526352427196200,4.123196044921875,0.13139350653886794,0.05048705530837178,-0.04672839689459651
1772526352437178000,4.13317822265625,0.09892916078567504,0.030488515635579822,-0.050585912572965026
1772526352447160300,4.143160400390625,0.0589203910022974,0.02784881478175521,-0.05766100205834954
1772526352457143300,4.153143310546875,0.031814357411861414,0.04639364851489663,-0.06832085469532757
1772526352467125200,4.163125244140625,0.007917933517694473,0.057725189868360754,-0.054936947389319535
1772526352477107200,4.173107177734375,0.0014203881919384001,0.04164236233457923,-0.026327633096463975
1772526352487090400,4.18309033203125,0.040324996125698086,0.03671206632554531,-0.02003671625871211
1772526352497072000,4.193072021484375,0.07407119838297367,0.020120120225846767,-0.02950366931669414
1772526352507054300,4.203054443359375,0.09707681091725825,-0.01398892399445176,-0.04357420717999339
1772526352517037000,4.213037109375,0.106861122828722,-0.03535495262816548,-0.06307075214739888
1772526352527019300,4.223019287109375,0.09968260950148106,-0.041945583064854144,-0.06053217358049005
1772526352537001200,4.233001220703125,0.08000643365085125,-0.023728373850882053,-0.06355860872957855
1772526352546984200,4.242984130859375,0.05325345128178596,-0.013660714953392744,-0.04838895051795989
1772526352556966400,4.25296630859375,0.053292614248394966,-0.02403188684210181,-0.016224501026794312
1772526352566948000,4.262947998046875,0.052178515526652335,-0.02721972309798002,0.0018559300649911164
1772526352576931300,4.272931396484375,0.06614683512449264,-0.03147562697678804,0.0024437764229252932
1772526352586913300,4.282913330078125,0.09386427861154079,-0.041266076368093485,-0.018659619219228624
1772526352596895200,4.292895263671875,0.07497954539954661,-0.055430649190396065,-0.03199877406805753
1772526352606878200,4.302878173828125,0.030493922463059424,-0.04804170798286796,-0.0400928678702563
1772526352616860200,4.312860107421875,-0.0477314729899168,-0.02342486085966229,-0.05848579897731542
1772526352626843100,4.322843017578125,-0.09922025268673897,0.00202492995634675,-0.07177888619471341
1772526352636825300,4.332825439453125,-0.12608546325862408,0.03958820628374815,-0.047871319852024315
1772526352646807300,4.342807373046875,-0.12003975335359572,0.04849325114265084,-0.03089537940341979
1772526352656790300,4.352790283203125,-0.07639175028502941,0.052080169718712564,-0.013270911918208003
1772526352666772200,4.362772216796875,-0.032733810344338414,0.05063172447606921,-0.006939991863630712
1772526352676754200,4.372754150390625,-0.0007405892342329024,0.018772358878701923,-0.010811536067351699
1772526352686737400,4.3827373046875,0.004273439535498619,0.005857932247966527,-0.009484050323255359
1772526352696719000,4.392718994140625,0.016104747104644775,0.012703998750448225,-0.008567373869754374
1772526352706701300,4.402701416015625,0.02472001523673534,0.014691665436327456,-0.007461494987085461
1772526352716684300,4.412684326171875,0.016022329518198965,0.009263649038225411,0.013628712379932403
1772526352726666200,4.422666259765625,0.0226566529661417,0.025306729083508252,0.03162986769042909
1772526352736648400,4.4326484375,0.0360720148563385,0.024941256771981713,0.02979512654393911
1772526352746631200,4.442631103515625,0.02228665060997009,0.024317864176630972,0.025654775336198508
1772526352756613400,4.45261328125,0.027169161954522132,0.024527561404556034,0.02005640733987093
1772526352766595000,4.462594970703125,0.03878419642448425,0.0351592839255929,-0.003293926978856325
1772526352776578300,4.472578369140625,0.06690320644974708,0.01175984976813197,0.001944229402951896
1772526352786560300,4.482560302734375,0.10776946984529495,0.0014651041164994239,0.004247355246171355
1772526352796542200,4.492542236328125,0.13706746052205562,0.011881138060241938,0.012209895090572536
1772526352806525200,4.502525146484375,0.13068681957423686,0.00532908606827259,0.020396781742759048
1772526352816507400,4.51250732421875,0.1089566338032484,0.011271189468353987,0.027655264971032736
1772526352826489000,4.522489013671875,0.0831716196835041,0.022379151199012993,0.004467756531201302
1772526352836472300,4.532472412109375,0.06757189949154853,0.026409721889346836,-0.02038593155518174
1772526352846454000,4.5424541015625,0.06991583226919174,0.02170490519925952,-0.016034458347409963
1772526352856437200,4.552437255859375,0.05535305390954017,0.006780161659419536,-0.01076455512046814
1772526352866419200,4.562419189453125,0.04247779024541378,0.017045096694678068,-0.013595577295310794
1772526352876401200,4.572401123046875,0.022790508478879926,0.020743366690725087,-0.004442877818271518
1772526352886384000,4.582384033203125,-0.008667290580272675,0.0031825755588710306,0.009817666191793977
1772526352896366000,4.592365966796875,-0.036323943790793414,0.0015017828650772571,0.005495309480652213
1772526352906348300,4.602348388671875,-0.04883738840520382,-0.013689941047877073,-0.007512129195779561
1772526352916331300,4.612331298828125,-0.04990589441955089,-0.021513035888969897,-0.011447057491913437
1772526352926313200,4.622313232421875,-0.03558452360033989,-0.03749678696244955,-0.02476239307373762
1772526352936295200,4.632295166015625,-0.03231704623699188,-0.03887918123155832,-0.04563344126474112
1772526352946278400,4.6422783203125,-0.05432897155880928,-0.058521747073531145,-0.039738501474633814
1772526352956260000,4.652260009765625,-0.06748246764242649,-0.061129445353895424,-0.04022496981732547
1772526352966242300,4.6622421875,-0.08457213413119316,-0.05880100240632891,-0.029190694377385078
1772526352976225000,4.67222509765625,-0.09045710051655768,-0.05127718277275562,-0.02807093309983611
1772526352986207200,4.682207275390625,-0.08266133207380771,-0.039868484529852866,-0.01592149949222803
1772526352996189400,4.692189453125,-0.03928630072772503,-0.03581672492101788,-0.0038313217911869284
1772526353006172200,4.702172119140625,-0.0010322656571865082,-0.04615896297618746,0.0031524726815521714
1772526353016154400,4.712154296875,0.011428571987152098,-0.04082008616626263,-0.01299059713948518
1772526353026136000,4.722135986328125,-0.02232289096713066,-0.04792772621437907,-0.01146726002972573
1772526353036119300,4.732119384765625,-0.06293605638444423,-0.0642084144078195,-0.011592274648882447
1772526353046101200,4.742101318359375,-0.05978782148659229,-0.046383419381827114,-0.009508709840476512
1772526353056083200,4.752083251953125,-0.009594926819205284,-0.03179842919036746,-0.011027188112027943
1772526353066066200,4.762066162109375,0.08754325889647006,-0.02324512037858367,0.01075180523674935
1772526353076048100,4.772048095703125,0.16679799739718437,-0.040577071190625424,0.03388345530349761
1772526353086030300,4.7820302734375,0.21252631387114523,-0.023672259749472138,0.06635390200391411
1772526353096013300,4.792013427734375,0.22139584902524947,0.011093202552944421,0.07357515849433839
1772526353105995800,4.801995849609375,0.21147475899159907,0.02030044522881508,0.07849654054455459
1772526353115978800,4.811978759765625,0.19498130483031273,0.030381401999294757,0.08439261284582317
1772526353125960700,4.821960693359375,0.18278350203633306,0.030883506302535533,0.0747485496552661
1772526353135943000,4.83194287109375,0.21226795519590377,0.021840514277666805,0.07041947094239294
1772526353145926000,4.84192578125,0.24031214641928672,0.010714724629372358,0.07194817834701389
1772526353155907800,4.851907958984375,0.26159926459789273,0.01667524046897888,0.07737919041980057
1772526353165889800,4.861889892578125,0.25984336084127424,0.0416455772049725,0.08314074962120503
1772526353175872800,4.871872802734375,0.18793430892825125,0.07246551675200462,0.11129552507959306
1772526353185855000,4.88185498046875,0.05311608863770961,0.13333251177743077,0.12165475080218166
1772526353195836700,4.891836669921875,-0.08017652952075004,0.1906336310148239,0.10041300613526254
1772526353205820000,4.90181982421875,-0.15775661280751227,0.2255310491338372,0.09346841116175054
1772526353215801600,4.911801513671875,-0.14940145691633225,0.20583368436470625,0.0951638534354046
1772526353225783800,4.92178369140625,-0.08624678934514522,0.18457155449688434,0.08316515341009945
1772526353235766800,4.931766845703125,-0.00724924047589302,0.1462505916699767,0.06892535992711782
1772526353245748700,4.941748779296875,0.057710430690646165,0.11738587784394622,0.04466401171069592
1772526353255731000,4.95173095703125,0.09295710063874721,0.06775748519152403,0.018167890179529786
1772526353265714000,4.9617138671875,0.06806289787888527,0.0291867853872478,-0.005439779901131987
1772526353275695900,4.97169580078125,0.06243687469065189,0.007168868716061115,-0.02353244941998273
1772526353285677800,4.981677734375,0.06355974124073982,-0.00518339398726821,-0.04956135529819876
1772526353295660800,4.991660888671875,0.07835399026870728,-0.009541004674881696,-0.06668748133983463
1772526353305642800,5.001642822265625,0.10510463455021381,-0.02503054249063134,-0.08950710631534457
1772526353315624700,5.011624755859375,0.08888590567708014,-0.061271922564506524,-0.12193550397232174
1772526353325607700,5.021607666015625,0.0752069244146347,-0.0888356367945671,-0.14948979278691113
1772526353335590000,5.03158984375,0.06386953784227371,-0.11219824607297778,-0.18054500239454208
1772526353345572600,5.041572509765625,0.07754793458282946,-0.12053528178557753,-0.19277053344566375
1772526353355554800,5.051554931640625,0.07644844890832901,-0.13159472819939255,-0.1950823175193742
1772526353365537000,5.061537109375,0.07623919007182121,-0.14432327686920762,-0.19537103480026125
1772526353375518700,5.071518798828125,0.08934884701371193,-0.13658727578967808,-0.1910077250242233
1772526353385502000,5.081501953125,0.10721943474709987,-0.1111250638835132,-0.1784408697221428
1772526353395483600,5.091483642578125,0.10791676936149597,-0.10199877748936415,-0.14353124970868228
1772526353405467000,5.101466796875,0.08689794673025608,-0.09270634074807166,-0.1308078521380201
1772526353415448800,5.11144873046875,0.05764905589222908,-0.07103650686219334,-0.10622622245866804
1772526353425430800,5.1214306640625,-0.00364858563542366,-0.06062821783348918,-0.10153799157720059
1772526353435413800,5.131413818359375,-0.10232172583341598,-0.04142579697445035,-0.10298607149366289
1772526353445395700,5.141395751953125,-0.13021218779981136,-0.02538140175491571,-0.08001143861953168
1772526353455378000,5.1513779296875,-0.1339659873753786,-0.014927373888343571,-0.03967164678350091
1772526353465361000,5.16136083984375,-0.09344050024151801,0.0041971594288945195,0.0010035144867375492
1772526353475342800,5.1713427734375,-0.03642740416526794,0.012586802111566067,0.02867554792948067
1772526353485324800,5.18132470703125,-0.0009492635488510131,0.02775689871460199,0.031782537501491605
1772526353495308000,5.19130810546875,-0.012984569257497787,0.03886997501179576,0.02697499108929187
1772526353505289700,5.201289794921875,-0.0362111310660839,0.017332535333931445,0.041690293129533526
1772526353515272000,5.21127197265625,-0.05545359167456627,0.028238252490758894,0.048485579292848704
1772526353525254700,5.221254638671875,-0.05402852730751037,0.04702405537292361,0.061323871947452424
1772526353535236900,5.23123681640625,-0.04806815759837627,0.06043649465367198,0.07753741318881512
1772526353545218800,5.24121875,-0.025251345634460447,0.08033449656143785,0.08460917820595204
1772526353555201800,5.251201904296875,0.008636895442008971,0.07957651780098676,0.08968604307882487
1772526353565184000,5.26118408203125,0.04298690881133079,0.10123685320615768,0.077535988416709
1772526353575165700,5.271165771484375,0.0430605585694313,0.08286693764850497,0.06614223201461136
1772526353585149000,5.28114892578125,0.034710078853368756,0.055722617874294514,0.035585948372446
1772526353595131000,5.291130859375,0.048365094718337054,0.058495735849440095,-0.0027393253033980726
1772526353605112800,5.30111279296875,0.042673605078458784,0.05826119644120335,-0.019629267968982456
1772526353615095800,5.311095703125,0.06294365516901015,0.036046442023664714,-0.01804842851832509
1772526353625077800,5.321077880859375,0.09782792154550551,0.021514789454638958,-0.02444368251338601
1772526353635060700,5.331060791015625,0.1535112303227186,0.012731471279263495,-0.0346941871644929
1772526353645043000,5.34104296875,0.18318039239943026,0.003513561078906059,-0.04667177133653313
1772526353655024600,5.351024658203125,0.16275953566133974,-0.005100684139877558,-0.05550700236223638
1772526353665007900,5.3610078125,0.13730477640926836,-0.01414952138364315,-0.07118216241057962
1772526353674989800,5.37098974609375,0.13857903412878514,-0.012925824807584285,-0.08839322678931057
1772526353684971800,5.3809716796875,0.17850597084760664,-0.020825930407643318,-0.07111158139239997
1772526353694954800,5.390954833984375,0.18763444919884203,-0.030460166323930022,-0.05251118154712021
1772526353704936700,5.400936767578125,0.20686931102275846,-0.0500038018360734,-0.0659737070472911
1772526353714919000,5.4109189453125,0.2127408334046602,-0.054749681188911194,-0.09914400911275296
1772526353724902000,5.42090185546875,0.20385960781276224,-0.09784165780991315,-0.08503039929270743
1772526353734883800,5.4308837890625,0.15829729555547237,-0.11471300537288188,-0.07086578993778675
1772526353744865800,5.44086572265625,0.07777589811980724,-0.08814721613898872,-0.07031334368679672
1772526353754848800,5.450848876953125,-0.02616612239181995,-0.04521890564709902,-0.06286120104994625
1772526353764830700,5.460830810546875,-0.1402659643024206,0.014580898538231848,-0.0510927295839414
1772526353774813000,5.47081298828125,-0.18622049074769018,0.061567398379743093,-0.023039989727921782
1772526353784795600,5.480795654296875,-0.1823725831478834,0.09098857704475521,0.008882138907350599
1772526353794777900,5.49077783203125,-0.1479307998418808,0.07790478519648313,0.04759425647631287
1772526353804759800,5.500759765625,-0.12057751349210738,0.05318564674258232,0.057628414962999516
1772526353814742800,5.51074267578125,-0.08443009531199931,0.027333412605524063,0.060241447005607185
1772526353824725000,5.52072509765625,-0.050832946136593816,0.0015974983245134354,0.04335548639539629
1772526353834706700,5.530706787109375,-0.024416648375988004,-0.006757365305721759,0.04598009927794337
1772526353844690000,5.54068994140625,0.01857493661046028,0.004935264445096254,0.03672605831827968
1772526353854671600,5.550671630859375,0.08287468256354331,0.0396142175078392,0.052625236380845306
1772526353864653800,5.56065380859375,0.1507236454308033,0.0327965003170073,0.07646309848818927
1772526353874636800,5.57063671875,0.20083529155552385,0.02492050624489784,0.0813873300826177
1772526353884618800,5.58061865234375,0.19081541732251642,0.037802930302172896,0.07995455733314157
1772526353894601000,5.59060107421875,0.14462182142436503,0.036263299644738435,0.026450126964971423
1772526353904584000,5.600583984375,0.09390519514381886,0.03413081766068935,0.01649276004154235
1772526353914566000,5.61056591796875,0.09040975424349307,0.046128713968396184,0.003784852300956845
1772526353924547800,5.6205478515625,0.13105857549607752,0.05367810643464326,0.00908913272153586
1772526353934530800,5.63053076171875,0.20310615909695623,0.06025792321637272,0.02056220143754035
1772526353944512800,5.6405126953125,0.23027181392014026,0.060832508233934636,0.028502492917515335
1772526353954496000,5.65049609375,0.21563246319293974,0.06483005343750119,0.047135699053853744
1772526353964477700,5.660477783203125,0.16639643085896968,0.0824107183136046,0.038705176371522244
1772526353974460000,5.6704599609375,0.11485095253884792,0.0886101574756205,0.011761676399037241
1772526353984442600,5.680442626953125,0.0918032544285059,0.0860110808931291,0.009538264728523791
1772526353994424800,5.6904248046875,0.11057342135012149,0.0719793406702578,0.020348887480422854
1772526354004407000,5.700406982421875,0.15022446373701095,0.06047682666406035,0.0342674861850217
1772526354014389800,5.7103896484375,0.17488602678477763,0.050799336127936835,0.01459163912795484
1772526354024372000,5.7203720703125,0.17376374475657938,0.02584215113446116,0.009997004814073443
1772526354034353700,5.730353759765625,0.12722294285595417,-0.01934475193917751,0.010596833870746194
1772526354044337000,5.7403369140625,0.10202595775723457,0.06652224430814385,0.10972038471736013
1772526354054318800,5.75031884765625,-0.03137304338514805,0.07004281964972615,0.1213505436912179
1772526354064300800,5.76030078125,-0.11297288370728492,0.07727993129640817,0.08959178892411292
1772526354074283800,5.77028369140625,-0.10498130043148994,0.07113529106155038,0.08268350737299769
1772526354084265700,5.780265625,-0.1425146200120449,-0.05956906416937709,0.017809870522096753
1772526354094248000,5.790248046875,-0.1707183857113123,-0.12410992540195584,-0.002165507470816374
1772526354104231000,5.80023095703125,-0.2038613613784313,-0.12464607810527085,-0.08811948788184672
1772526354114212600,5.810212646484375,-0.22084406036138532,-0.08775105642825365,-0.09959036464076489
1772526354124194300,5.8201943359375,-0.21070961983799932,-0.07400850841030478,-0.049616154225356875
1772526354134177500,5.830177490234375,-0.20068331586420535,-0.07684796961992979,0.02199007881619036
1772526354144159500,5.840159423828125,-0.19329262109100817,-0.0514316426821053,0.06264799669068306
1772526354154141400,5.850141357421875,-0.20855799476206302,-0.01571384809091687,0.07494451061878353
1772526354164124400,5.86012451171875,-0.22611001806557177,-0.0035476094789803026,0.07635065108966081
1772526354174106400,5.8701064453125,-0.17245850737690924,0.006210691208392381,0.06028243660312146
1772526354184088600,5.880088623046875,-0.11265665736496448,0.009838672447204589,0.054650495130755004
1772526354194071600,5.890071533203125,-0.031092472878098486,0.01768164103254676,0.06951295055672525
1772526354204053500,5.900053466796875,0.05095686477720737,0.016275427496433258,0.07886639677025377
1772526354214035500,5.910035400390625,0.137743752348423,0.025467910994589327,0.06654832859747112
1772526354224018400,5.920018310546875,0.2106587664335966,0.045739860781282185,0.02197553883418441
1772526354234000400,5.93000048828125,0.2173679086834192,0.026695553093403577,-0.04962568923868239
1772526354243982600,5.939982666015625,0.1467278537929058,-0.05531754420474171,-0.20529340347554534
1772526354253965300,5.94996533203125,0.1151134028673172,-0.15733035021945832,-0.4107536879505962
1772526354263947500,5.959947509765625,0.14440262571573256,-0.22215441230759023,-0.5011302340442314
1772526354273929500,5.969929443359375,0.20341537117660044,-0.24549773236364125,-0.45274190458077934
1772526354283912400,5.979912353515625,0.23856676405668256,-0.20995295625180005,-0.32919260873626915
1772526354293894700,5.989894775390625,0.23201018202006815,-0.12913257586956023,-0.20016816941630095
1772526354303877400,5.99987744140625,0.14648644625246524,-0.041253363016992804,-0.13752747924923897
1772526354313859600,6.009859619140625,0.08136720061004162,0.026974954556673765,-0.0728237921377644
1772526354323841300,6.01984130859375,0.07611819404065609,0.11319207941591738,-0.049760896458290516
1772526354333824500,6.029824462890625,0.10074117864370345,0.13460107040852307,-0.02109287424813956
1772526354343806500,6.039806396484375,0.12162556124031543,0.11311740674450993,0.033471476969122886
1772526354353788400,6.049788330078125,0.10283376700878143,0.09064896982684731,0.05548292736690491
1772526354363771400,6.059771484375,0.06464695195555686,0.09867752411216497,0.05810005106274038
1772526354373753600,6.069753662109375,0.017797522497177122,0.12896598713099955,0.05961896772570908
1772526354383735300,6.0797353515625,-0.005272971966862678,0.14354776245206594,0.0712589174412191
1772526354393718500,6.089718505859375,-0.0028349311649799344,0.13570815486758947,0.11706413507629185
1772526354403700200,6.0997001953125,0.01945113492310047,0.12008651510477066,0.18162487005311995
1772526354413682400,6.109682373046875,0.04033376395404339,0.10318871792629361,0.21727076845187693
1772526354423665400,6.11966552734375,0.015799626678228377,0.09881941680088639,0.23176457322854546
1772526354433647400,6.1296474609375,-0.008151742273569107,0.10334858466312288,0.21248642025217412
1772526354443629600,6.139629638671875,-0.040972061857581135,0.09694485510066152,0.18134378808941692
1772526354453612300,6.1496123046875,-0.07945522950887679,0.09326879693642258,0.16064736581295727
1772526354463594500,6.159594482421875,-0.09130757986605167,0.1013477662347257,0.12247710003573446
1772526354473576400,6.169576416015625,-0.08499123632609844,0.07373144503459333,0.11017492355182766
1772526354483559400,6.179559326171875,-0.0322334596067667,0.05977277004793286,0.10504139658827334
1772526354493541400,6.189541259765625,0.039275194811820985,0.061705930067598815,0.11080335764847696
1772526354503523300,6.1995234375,0.1106558389365673,0.04923793203011155,0.12312723450753837
1772526354513506300,6.20950634765625,0.1772580166131258,0.05420929070189595,0.11897928451523183
1772526354523488500,6.219488525390625,0.2337111407190561,0.05439546092376112,0.10594521356020122
1772526354533470500,6.229470458984375,0.24035247842967508,0.046628334053605794,0.09827153712715953
1772526354543453400,6.239453369140625,0.20199089133143425,0.03477335334792733,0.07830624213684349
1772526354553435600,6.249435546875,0.1443617091834545,0.01264744625762105,0.05440389995854348
1772526354563417300,6.259417236328125,0.1036152727752924,0.036737200766801835,0.001802884703502059
1772526354573400600,6.269400634765625,0.05094458981752396,0.030137217979878186,-0.01573529273774475
1772526354583382300,6.27938232421875,0.033164602977037425,0.011655366480350494,-0.03156611827183515
1772526354593364500,6.289364501953125,0.0662181467950344,0.021447277176380158,-0.07601045934986322
1772526354603347500,6.299347412109375,0.08711831148266792,0.009730243636667728,-0.07694441573172807
1772526354613329400,6.309329345703125,0.09912906727194785,-0.010244915160536765,-0.056031135834194716
1772526354623311600,6.3193115234375,0.10386837075352669,-0.005613894359022379,-0.0594192804351449
1772526354633294300,6.32929443359375,0.07077741753458976,-0.005437222617864609,-0.07973755358159541
1772526354643276500,6.339276611328125,0.03779518538713455,-0.020742343777418137,-0.08003573281057179
1772526354653258500,6.349258544921875,0.015487491989135741,-0.03288520151376724,-0.09199654851090162
1772526354663241500,6.359241455078125,0.014706570744514464,-0.04596504783928394,-0.08811199869513511
1772526354673223400,6.369223388671875,0.028717560440301892,-0.06851385651677847,-0.0652649011908099
1772526354683206700,6.37920654296875,0.034732290685176845,-0.07611585595309733,-0.08940518031083047
1772526354693188400,6.389188232421875,0.01518120251893997,-0.09488894548416137,-0.09179499805681407
1772526354703170600,6.399170654296875,-0.03095803284347057,-0.11551146227419376,-0.09254077492281794
1772526354713153300,6.4091533203125,-0.042218262526392936,-0.10158552051335573,-0.12321662982404231
1772526354723135500,6.419135498046875,0.0012006079614162444,-0.09262450768351554,-0.1361093926122412
1772526354733117400,6.429117431640625,0.0322726225733757,-0.09748992176279425,-0.11968768851291388
1772526354743100400,6.439100341796875,0.038861937835812564,-0.10197788083180785,-0.10747936432491988
1772526354753082600,6.44908251953125,0.05448854603469371,-0.08915113248452544,-0.11245335334520787
1772526354763064300,6.459064208984375,0.08865151239931583,-0.07812675738409161,-0.0990591803735122
1772526354773047600,6.469047607421875,0.1560299351453781,-0.0777459413729608,-0.08000639711823314
1772526354783029500,6.479029541015625,0.20124445687830447,-0.06189049285426736,-0.05894570810664445
1772526354793011500,6.489011474609375,0.20128537341058253,-0.03807254102379083,-0.04720061751622706
1772526354802994400,6.498994384765625,0.14071779972314835,-0.020363427462428807,-0.042736404648981985
1772526354812976400,6.508976318359375,0.10080722961723804,0.008418576516211033,-0.027035781365819272
1772526354822958600,6.51895849609375,0.06494038194417953,0.03704904319494962,-0.01635558006055653
1772526354832941600,6.528941650390625,0.08031973738372325,0.061434419649839395,-0.0030265812795609234
1772526354842923500,6.538923583984375,0.12668284462988375,0.05813742393106222,0.019868958476372062
1772526354852905500,6.548905517578125,0.1714461154639721,0.03491816864609718,0.04472290229108184
1772526354862888400,6.558888427734375,0.20401918228864668,0.035533816326409576,0.03884045665636658
1772526354872870400,6.568870361328125,0.22274200293719768,0.038598026202619075,0.020789068995974956
1772526354882852600,6.5788525390625,0.17113456529676913,0.0258504805713892,0.007952602972276509
1772526354892835300,6.58883544921875,0.09348784651458263,0.00824175864458084,0.0013485285321250557
1772526354902817500,6.598817626953125,-0.00694470457136631,0.03976327058970928,0.026878764173202216
1772526354912799200,6.60879931640625,-0.08016834621429443,0.07686565140709281,0.06130341368131339
1772526354922782500,6.618782470703125,-0.10908230600953102,0.11545651721656322,0.07098386335950345
1772526354932764400,6.628764404296875,-0.13465806129276753,0.11454670889526605,0.07564827497396617
1772526354942746400,6.638746337890625,-0.11461597473919391,0.09040551645979285,0.030770510914735493
1772526354952729300,6.648729248046875,-0.07448562440276145,0.05281505986452102,0.023882724162377415
1772526354962711300,6.658711181640625,-0.060900751164555546,0.006300415318459272,0.04293320586271584
1772526354972693500,6.668693603515625,-0.03151975837945938,-0.018475275628268718,0.06085029961895197
1772526354982676500,6.678676513671875,0.013636895686388015,-0.006456774923950434,0.06744063779469579
1772526354992658400,6.688658447265625,0.05502279904186725,0.003419453054666519,0.03884966287612915
1772526355002640400,6.698640380859375,0.1292600016415119,-0.025550036320090293,-0.01455437585748732
1772526355012623600,6.70862353515625,0.1741290709376335,-0.1036605732217431,-0.10112922811321913
1772526355022605300,6.718605224609375,0.19060849657356738,-0.16060864123776555,-0.2378789279229939
1772526355032587500,6.72858740234375,0.2574094116926193,-0.17301351091116665,-0.31209881406165657
1772526355042570200,6.7385703125,0.38195933594703674,-0.17542437144517897,-0.3264209155332297
1772526355052552400,6.748552490234375,0.5088718976795673,-0.17013883225768803,-0.29384704499095676
1772526355062534400,6.758534423828125,0.6332026262253523,-0.12505509729757905,-0.2665115865588188
1772526355072517400,6.768517333984375,0.6559609860002994,-0.18991583813428878,-0.16548684173338113
1772526355082499600,6.77849951171875,0.41652620693743225,-0.23432094318047164,-0.20348690204285083
1772526355092481300,6.788481201171875,0.10267243896722793,-0.20479849609807133,-0.24541582623384892
1772526355102464500,6.798464599609375,-0.21943419356346128,-0.08035290900096297,-0.2831599390208721
1772526355112446200,6.8084462890625,-0.39643735863268376,0.007666150713711977,-0.3048896864004433
1772526355122429400,6.818429443359375,-0.43248307000398634,0.050217152325809,-0.3073797496505081
1772526355132411100,6.8284111328125,-0.3724894968122244,0.021668372581154106,-0.2878841179985553
1772526355142393300,6.838393310546875,-0.28537060080766674,-0.02385872223228216,-0.21110607180967925
1772526355152376300,6.848376220703125,-0.2261135251969099,-0.019609394224733113,-0.10832958794608712
1772526355162358300,6.858358154296875,-0.22837620943188666,0.05284282465428114,-0.05538841748386621
1772526355172340500,6.868340576171875,-0.20724925025105476,0.1498832490839064,-0.041632425462454554
1772526355182323200,6.8783232421875,-0.13927578422129153,0.1687101146288216,0.008576981948316097
1772526355192305400,6.888305419921875,-0.029882512566447257,0.12903686041012405,0.08443959379270673
1772526355202287400,6.898287353515625,0.07141746900379657,0.073036448507756,0.12888210823982954
1772526355212270300,6.908270263671875,0.13067162200510501,0.017273060231655837,0.11357406447082757
1772526355222252300,6.918252197265625,0.16553016941845416,-0.021242694514989852,0.097311350325495
1772526355232234200,6.928234130859375,0.1495768134832382,-0.03389510920867324,0.12168532860353588
1772526355242217200,6.93821728515625,0.08266308563947677,-0.03871814545094967,0.16139504237510263
1772526355252199400,6.948199462890625,0.022341011145710944,-0.03858750480860471,0.16912439451813696
1772526355262181400,6.958181396484375,0.028869536131620407,-0.012681640788167714,0.17488924165517092
1772526355272164400,6.968164306640625,0.09106266519427299,-0.017906097438186407,0.1552129927393049
1772526355282146300,6.978146240234375,0.20968846009671688,-0.04418883194699883,0.13041669739596545
1772526355292128300,6.988128173828125,0.33201427856087684,-0.09416896064653991,0.10621084222644567
1772526355302111500,6.998111572265625,0.43727498045563695,-0.12011632572114467,0.09454195867739618
1772526355312093200,7.00809326171875,0.5160188468247652,-0.12908245311751962,0.07595496630296111
1772526355322075400,7.018075439453125,0.5633469997107983,-0.09199687730446457,0.039493002280965445
1772526355332058400,7.028058349609375,0.5840969422727823,-0.0835645645238459,0.02831606696732342
1772526355342040300,7.038040283203125,0.5327244824320078,-0.07877163115888834,0.01823664456680417
1772526355352022500,7.0480224609375,0.5256354009538888,-0.010850772099196911,-0.05347133181616664
1772526355362005200,7.058005126953125,0.5033282920777797,-0.04938771576434373,-0.03909048589468002
1772526355371987500,7.067987548828125,0.40984804434776306,-0.12370777434185147,0.02547171038687229
1772526355381969200,7.07796923828125,0.17699030558764933,-0.1634998326346278,0.11015504980757831
1772526355391952400,7.087952392578125,-0.11051380011737345,-0.08370411912500858,0.11219232778884469
1772526355401934300,7.097934326171875,-0.3229489285737276,0.04122355240061879,0.05934051611050963
1772526355411916300,7.107916259765625,-0.419335419139266,0.12627967065647244,0.03052460986226797
1772526355421899300,7.117899169921875,-0.3770002522349357,0.1483326586410403,0.06437266505882143
1772526355431881500,7.127881591796875,-0.2852648023456335,0.09690744569972157,0.15345595647152513
1772526355441863400,7.137863525390625,-0.17460370271205902,0.04809519173577428,0.18541396013777703
1772526355451846400,7.147846435546875,-0.08014554986059665,0.05981544014587998,0.14824384784642605
1772526355461828400,7.157828369140625,-0.026160861694812774,0.062480859962850806,0.1310224812693894
1772526355471810300,7.167810302734375,-0.06032032092809677,0.04772781972810626,0.16271211632303892
1772526355481793300,7.177793212890625,-0.19083178393542766,0.06973433822244406,0.1892578856822103
1772526355491775200,7.187775146484375,-0.3184276517570019,0.09514423541948198,0.1699049139039591
1772526355501757400,7.19775732421875,-0.4243552931278944,0.09936477572396397,0.16452406111583112
1772526355511740200,7.207740234375,-0.46273149327337737,0.08174480175077915,0.13386683784984052
1772526355521722400,7.217722412109375,-0.4328717770606279,0.040653205166757106,0.09980835477299987
1772526355531704300,7.227704345703125,-0.34945348913967605,-0.013660568822920322,0.06646755497884005
1772526355541687300,7.237687255859375,-0.27177812878489493,-0.057145198023319244,0.05478486210014671
1772526355551669200,7.247669189453125,-0.21466215685606002,-0.04987111536711454,0.056476870307698844
1772526355561651200,7.257651123046875,-0.14571546187996864,-0.047483343447744845,0.04504011501409113
1772526355571634200,7.26763427734375,-0.06110007312893867,-0.03430222870483994,0.035848800559714435
1772526355581616400,7.277616455078125,0.02284428449273109,-0.042709407044202084,0.03319719007238745
1772526355591598300,7.287598388671875,0.11807751336991787,-0.035783261042833324,0.03922620457094163
1772526355601581300,7.297581298828125,0.18263503347635268,-0.025018413661420345,-0.0021884134223684668
1772526355611563300,7.307563232421875,0.24398235936462878,-0.04835150458440184,-0.06615348406098782
1772526355621545200,7.317545166015625,0.2721329335719347,-0.06614069764465093,-0.1212784283030778
1772526355631528400,7.327528564453125,0.2676344531089067,-0.09913651992604136,-0.1363517865333706
1772526355641510100,7.33751025390625,0.2588829913765192,-0.07213643092811108,-0.15038213851675392
1772526355651492400,7.347492431640625,0.24675123955607411,-0.02990340922400355,-0.19510646557994185
1772526355661475300,7.357475341796875,0.23892975215017795,-0.039056875886023044,-0.1792543049968779
1772526355671457300,7.367457275390625,0.2297773084014654,-0.04701704111024737,-0.1601288948968053
1772526355681439500,7.377439453125,0.20425532913208005,-0.039248014543950556,-0.1269205989085138
1772526355691422200,7.387422119140625,0.18692367058098316,-0.02144406230598688,-0.1337215841602534
1772526355701404400,7.397404296875,0.1610024628609419,0.0017843991987407206,-0.11136961322911083
1772526355711387400,7.407387451171875,0.11105097573399543,0.03099792646244168,-0.07075593635514378
1772526355721369300,7.417369384765625,0.08126490927934646,0.04710398874133825,-0.0568660888209939
1772526355731351300,7.427351318359375,0.03369184172153473,0.0423212845094502,-0.06475238509140908
1772526355741334500,7.43733447265625,0.003211363261938095,0.06878624371737241,-0.02023154471106827
1772526355751316200,7.447316162109375,-0.027370237484574317,0.08739201385751366,-0.011597718008980155
1772526355761298400,7.45729833984375,0.01032791726887226,0.05498378220573067,-0.03236505009718239
1772526355771280400,7.4672802734375,0.06012450609505176,0.012509352961182593,-0.07613748326301574
1772526355781263400,7.477263427734375,0.07574526907503605,-0.04887231358811259,-0.088070716836676
1772526355791245300,7.487245361328125,0.028113749328255652,-0.08829524630755185,-0.07221373394802212
1772526355801228300,7.497228271484375,-0.026145079603791234,-0.07782938187271356,-0.057157326852530235
1772526355811210500,7.50721044921875,-0.12910685690641402,-0.06143836517259478,-0.024957915645837783
1772526355821192200,7.517192138671875,-0.1853396162599325,-0.029936142449826002,0.007396101600676774
1772526355831175400,7.527175537109375,-0.18065759592354297,-0.006512889025360346,0.02185505425967276
1772526355841157400,7.537157470703125,-0.16804478258788585,-0.019802140317857264,0.011355433685705065
1772526355851139300,7.547139404296875,-0.11487842506766319,-0.02623144271299243,-0.01080101467333734
1772526355861122300,7.557122314453125,-0.04189385287761688,-0.04222235417962074,-0.024457564908266068
1772526355871104300,7.567104248046875,-0.0008124854266643523,-0.055803135764598846,-0.03686835286580026
1772526355881086500,7.57708642578125,0.002307107898592949,-0.05493585141077637,-0.015782529412955045
1772526355891069400,7.5870693359375,0.014435937109589576,-0.0015831775382161139,0.0013745032235980034
1772526355901051400,7.597051513671875,-0.028971827462315556,-0.008287643612921237,0.015238485664129256
1772526355911033300,7.607033447265625,-0.039543490359187125,0.013409662801772354,0.007012070719152688
1772526355921016300,7.617016357421875,0.027208324921131132,0.032993776454776524,-0.007714154573902487
1772526355930998300,7.626998291015625,0.10695639989674091,0.050601329337805506,-0.012999255369976162
1772526355940980500,7.63698046875,0.22304420075416564,0.030280133581906555,-0.008338131691142916
1772526355950963200,7.646963134765625,0.30498131020665165,0.03502367484718561,-0.010907324592024087
1772526355960945400,7.6569453125,0.3499164304763078,0.05341521771475673,-0.001982844380289316
1772526355970927400,7.66692724609375,0.37455461264848705,0.04951061149165034,-0.004877689038962125
1772526355980910300,7.676910400390625,0.3345598713904619,-0.0008282675176858902,-0.02087605315968394
1772526355990892300,7.686892333984375,0.270616099268198,0.0735002666272223,-0.10246274173930286
