time,seconds_elapsed,z,y,x
1772526348384343000,0.080343017578125,0.11625228822231293,-0.14972220361232758,0.20309273898601532
1772526348394325200,0.0903251953125,0.10903360694646835,-0.12426353991031647,0.16788220405578613
1772526348404307200,0.10030712890625,0.10572675615549088,-0.09401722252368927,0.11853516101837158
1772526348414290200,0.110290283203125,0.1011919155716896,-0.06999263167381287,0.06263647228479385
1772526348424272400,0.1202724609375,0.0885419026017189,-0.03567727282643318,0.0112257469445467
1772526348434254000,0.130254150390625,0.08280811458826065,-0.00554120447486639,-0.03717108070850372
1772526348444237300,0.1402373046875,0.07750017195940018,0.0053497920744121075,-0.08237291127443314
1772526348454219000,0.150218994140625,0.07244892418384552,0.01658397726714611,-0.1200380027294159
1772526348464201200,0.160201171875,0.06634389609098434,0.01221506204456091,-0.150460883975029
1772526348474184200,0.17018408203125,0.05617295578122139,-0.00571421580389142,-0.17554032802581787
1772526348484166100,0.180166259765625,0.044231075793504715,-0.020090224221348763,-0.1799744814634323
1772526348494149000,0.190149169921875,0.03105899877846241,-0.009279809892177582,-0.16595284640789032
1772526348504131000,0.200131103515625,0.01685662753880024,0.0199824720621109,-0.14114338159561157
1772526348514113300,0.21011328125,0.010378292761743069,0.033058710396289825,-0.10843771696090698
1772526348524096300,0.22009619140625,0.01411630492657423,0.024375205859541893,-0.07861004769802094
1772526348534078200,0.230078125,0.023964060470461845,0.008097280748188496,-0.041138216853141785
1772526348544060200,0.24006005859375,0.03831477090716362,-0.018602507188916206,-0.013462111353874207
1772526348554043400,0.25004345703125,0.04837822914123535,-0.03510843589901924,0.013297153636813164
1772526348564025000,0.260025146484375,0.04976920038461685,-0.03617742657661438,0.03624268248677254
1772526348574007300,0.27000732421875,0.05653229355812073,-0.02407657727599144,0.0484870970249176
1772526348583990000,0.279989990234375,0.06083995848894119,-0.011168234050273895,0.0634564608335495
1772526348593972200,0.28997216796875,0.060746315866708755,-0.005872046574950218,0.07499558478593826
1772526348603954400,0.299954345703125,0.0626470074057579,-0.00825690757483244,0.08585995435714722
1772526348613937200,0.309937255859375,0.06161634251475334,-0.013776933774352074,0.09239108860492706
1772526348623919400,0.31991943359375,0.05740135535597801,-0.022858578711748123,0.09773099422454834
1772526348633902300,0.32990234375,0.05065698176622391,-0.028212999925017357,0.10482954978942871
1772526348643884300,0.33988427734375,0.031923506408929825,-0.048897769302129745,0.10462076216936111
1772526348653866200,0.3498662109375,0.008555568754673004,-0.07433173060417175,0.08491958677768707
1772526348663849200,0.35984912109375,-0.008215954527258873,-0.09365110099315643,0.06001157686114311
1772526348673831200,0.3698310546875,-0.022339973598718643,-0.09078893810510635,0.03395245224237442
1772526348683813000,0.379813232421875,-0.03603261336684227,-0.08129742741584778,0.005478467792272568
1772526348693796000,0.389796142578125,-0.04389701038599014,-0.07114880532026291,-0.010803211480379105
1772526348703778300,0.3997783203125,-0.04510102421045303,-0.052106402814388275,-0.023440709337592125
1772526348713760300,0.40976025390625,-0.0417618528008461,-0.03642628714442253,-0.024980101734399796
1772526348723743200,0.4197431640625,-0.03368981182575226,-0.026421857997775078,-0.021371785551309586
1772526348733725200,0.42972509765625,-0.020348111167550087,-0.008526130579411983,-0.016597097739577293
1772526348743707100,0.43970703125,-0.012236122973263264,-0.0008253341075032949,-0.008768469095230103
1772526348753690400,0.4496904296875,-0.004379313439130783,-0.005298413336277008,0.0033095963299274445
1772526348763672000,0.459672119140625,0.004926836583763361,-0.013668728061020374,0.011587765999138355
1772526348773655300,0.4696552734375,0.0057835360057652,-0.025901298969984055,0.01836284063756466
1772526348783637200,0.47963720703125,0.007144145201891661,-0.03346467390656471,0.02192188799381256
1772526348793619200,0.489619140625,0.007868099957704544,-0.038229625672101974,0.02675144374370575
1772526348803602200,0.499602294921875,0.012952872551977634,-0.02628161944448948,0.02716876193881035
1772526348813584100,0.509584228515625,0.017385907471179962,-0.0051788222044706345,0.034069109708070755
1772526348823566000,0.519566162109375,0.023481883108615875,0.018954209983348846,0.04670793563127518
1772526348833549300,0.52954931640625,0.02882751077413559,0.03502711281180382,0.06315623223781586
1772526348843531000,0.539531005859375,0.03346087783575058,0.034403663128614426,0.08167105913162231
1772526348853513200,0.54951318359375,0.04303513467311859,0.03165223449468613,0.10516316443681717
1772526348863496200,0.55949609375,0.04839501157402992,0.01711137592792511,0.1260434091091156
1772526348873478100,0.56947802734375,0.05539477989077568,0.0024041645228862762,0.144668847322464
1772526348883460400,0.57946044921875,0.0653773695230484,0.0008965488523244858,0.15645892918109894
1772526348893443000,0.589443115234375,0.06310936063528061,0.003976405132561922,0.15928277373313904
1772526348903425300,0.59942529296875,0.06052663177251816,0.016366228461265564,0.1510823667049408
1772526348913408300,0.609408203125,0.04990663379430771,0.029748111963272095,0.11622167378664017
1772526348923390200,0.61939013671875,0.04679659381508827,0.05139002203941345,0.06947360932826996
1772526348933372200,0.6293720703125,0.03407492861151695,0.07741892337799072,0.02379826456308365
1772526348943355100,0.639355224609375,0.02088535949587822,0.07536829262971878,-0.014994405210018158
1772526348953337000,0.649337158203125,0.00888148508965969,0.0584852397441864,-0.036864906549453735
1772526348963319300,0.6593193359375,0.009918252006173134,0.03116520121693611,-0.04694310575723648
1772526348973302000,0.669302001953125,0.0088501563295722,0.02296607196331024,-0.04421451687812805
1772526348983284200,0.6792841796875,0.002568291500210762,0.00498068006709218,-0.030660094693303108
1772526348993266200,0.68926611328125,0.004789320752024651,-0.009496292099356651,-0.013863179832696915
1772526349003249200,0.699249267578125,0.0007109558209776878,-0.013193026185035706,0.007610687520354986
1772526349013231400,0.7092314453125,-0.001078170258551836,-0.020850462839007378,0.03025634214282036
1772526349023213000,0.719213134765625,-0.004227358382195234,-0.045450881123542786,0.0429588221013546
1772526349033196300,0.7291962890625,-0.012609047815203667,-0.065030038356781,0.054206859320402145
1772526349043178000,0.739177978515625,-0.019805707037448883,-0.07892881333827972,0.06299742311239243
1772526349053161200,0.7491611328125,-0.02742588333785534,-0.07794568687677383,0.061717595905065536
1772526349063143200,0.75914306640625,-0.04145488515496254,-0.08273272216320038,0.056541211903095245
1772526349073125000,0.769125,-0.05380985140800476,-0.075099416077137,0.04981512576341629
1772526349083108000,0.779108154296875,-0.06686946004629135,-0.05507776886224747,0.04008420184254646
1772526349093090300,0.78909033203125,-0.07820331305265427,-0.0332874096930027,0.029081355780363083
1772526349103072300,0.799072265625,-0.09179768711328506,-0.03238779306411743,0.0187821127474308
1772526349113055200,0.80905517578125,-0.0984288677573204,-0.025117190554738045,0.0034920175094157457
1772526349123037200,0.819037109375,-0.10171467065811157,-0.018096566200256348,-0.007157430984079838
1772526349133019100,0.82901904296875,-0.10530490428209305,-0.0180449727922678,-0.015467295423150063
1772526349143002400,0.83900244140625,-0.09826856851577759,-0.016441483050584793,-0.01923886314034462
1772526349152984000,0.848984130859375,-0.0889275074005127,-0.007302507758140564,-0.023539334535598755
1772526349162966300,0.85896630859375,-0.07884930819272995,-0.001316520618274808,-0.025590233504772186
1772526349172949200,0.86894921875,-0.06851670891046524,0.001588022569194436,-0.027309929952025414
1772526349182931200,0.87893115234375,-0.0625714659690857,0.008268828503787518,-0.027806343510746956
1772526349192914200,0.8889140625,-0.052230652421712875,0.008366122841835022,-0.021957237273454666
1772526349202896100,0.898896240234375,-0.051045011729002,-0.0051345061510801315,-0.019836295396089554
1772526349212878300,0.90887841796875,-0.043927356600761414,-0.0268595851957798,-0.01581421121954918
1772526349222861300,0.918861328125,-0.03673229366540909,-0.04288249462842941,-0.01202533207833767
1772526349232843300,0.92884326171875,-0.018549039959907532,-0.047554511576890945,-0.01128231268376112
1772526349242825200,0.9388251953125,0.0007775202393531799,-0.04277414083480835,-0.005492067895829678
1772526349252808200,0.94880810546875,0.013200115412473679,-0.033464740961790085,-0.006794617511332035
1772526349262790100,0.9587900390625,0.02096456103026867,-0.012275833636522293,-0.010888427495956421
1772526349272772400,0.9687724609375,0.02146097458899021,0.009276596829295158,-0.019294163212180138
1772526349282755000,0.978755126953125,0.02444135583937168,0.01840723305940628,-0.030713627114892006
1772526349292737300,0.9887373046875,0.02939177304506302,0.02430061623454094,-0.03690662607550621
1772526349302719200,0.99871923828125,0.039903003722429276,0.017334317788481712,-0.03438381478190422
1772526349312702200,1.0087021484375,0.040164582431316376,0.015005978755652905,-0.027612818405032158
1772526349322684400,1.018684326171875,0.045878924429416656,0.01182563230395317,-0.01403016410768032
1772526349332667100,1.028667236328125,0.05254548788070679,0.012901629321277142,0.0021761548705399036
1772526349342649300,1.0386494140625,0.05195985734462738,0.003486289642751217,0.011954749934375286
1772526349352631000,1.048631103515625,0.04519328102469444,-0.008376561105251312,0.01651647314429283
1772526349362614300,1.0586142578125,0.03993486985564232,-0.012533489614725113,0.017513293772935867
1772526349372596200,1.06859619140625,0.03498126193881035,-0.026629388332366943,0.016988739371299744
1772526349382578200,1.078578125,0.02518855221569538,-0.026889313012361526,0.011254420503973961
1772526349392561200,1.08856103515625,0.013002043589949608,-0.019793834537267685,0.00783483311533928
1772526349402543400,1.09854345703125,0.006431759800761938,-0.01085333526134491,-0.0008638501167297363
1772526349412525000,1.108525146484375,-0.006621007341891527,-0.005130089819431305,0.0030007525347173214
1772526349422508300,1.11850830078125,-0.026382194831967354,-0.002381707774475217,0.004807973746210337
1772526349432490000,1.128489990234375,-0.044060904532670975,-0.0100923553109169,0.00722674373537302
1772526349442472200,1.13847216796875,-0.05649679899215698,-0.026842838153243065,0.007948992773890495
1772526349452455200,1.148455078125,-0.06325607746839523,-0.03938773274421692,0.013309314846992493
1772526349462437000,1.15843701171875,-0.0730767473578453,-0.04362775385379791,0.015685386955738068
1772526349472419300,1.16841943359375,-0.07575720548629761,-0.03492819890379906,0.021345404908061028
1772526349482402000,1.178402099609375,-0.0804816484451294,-0.029015982523560524,0.02431030198931694
1772526349492384300,1.18838427734375,-0.08139105141162872,-0.019297458231449127,0.028214139863848686
1772526349502367200,1.1983671875,-0.07619255781173706,-0.008932966738939285,0.025868160650134087
1772526349512349200,1.20834912109375,-0.06808926165103912,-0.006958290468901396,0.0183880515396595
1772526349522331100,1.2183310546875,-0.06416189670562744,-0.0033963127061724663,0.014349368400871754
1772526349532314400,1.228314453125,-0.057183992117643356,0.003917260095477104,0.005433992482721806
1772526349542296000,1.238296142578125,-0.052593767642974854,0.001571814063936472,0.005819351878017187
1772526349552278300,1.2482783203125,-0.04892382398247719,0.0015859105624258518,-0.000412533525377512
1772526349562261000,1.258260986328125,-0.03948318585753441,-0.0049902331084012985,-0.0010277237743139267
1772526349572243200,1.2682431640625,-0.03460931405425072,-0.0126768434420228,-0.005106086377054453
1772526349582225200,1.27822509765625,-0.030210038647055626,-0.015641475096344948,-0.009721610695123672
1772526349592208100,1.2882080078125,-0.028602231293916702,-0.01639535278081894,-0.007142430637031794
1772526349602190300,1.2981904296875,-0.03167605400085449,-0.01803266443312168,-0.006322176661342382
1772526349612172000,1.308172119140625,-0.0351267084479332,-0.0219925194978714,-0.009027149528265
1772526349622155300,1.3181552734375,-0.04012599587440491,-0.021130986511707306,-0.008237255737185478
1772526349632137200,1.32813720703125,-0.04383498802781105,-0.022786714136600494,-0.013803262263536453
1772526349642119200,1.338119140625,-0.04247118532657623,-0.024364903569221497,-0.013850133866071701
1772526349652102100,1.34810205078125,-0.04301267862319946,-0.02766413800418377,-0.014880156144499779
1772526349662084000,1.358083984375,-0.041093070060014725,-0.03173983842134476,-0.016259940341114998
1772526349672067000,1.368067138671875,-0.03457781299948692,-0.043988022953271866,-0.013218699023127556
1772526349682049300,1.37804931640625,-0.03489845618605614,-0.056250281631946564,-0.015138836577534676
1772526349692031200,1.38803125,-0.035609520971775055,-0.06412764638662338,-0.013806991279125214
1772526349702014200,1.39801416015625,-0.03521137684583664,-0.060949962586164474,-0.011166999116539955
1772526349711996200,1.40799609375,-0.041374027729034424,-0.052821651101112366,-0.008709612302482128
1772526349721978000,1.41797802734375,-0.043043024837970734,-0.041500020772218704,-0.0062967874109745026
1772526349731961300,1.42796142578125,-0.043635234236717224,-0.030890101566910744,-0.002764992881566286
1772526349741943000,1.437943115234375,-0.04239073768258095,-0.020901117473840714,-0.00975632295012474
1772526349751925200,1.44792529296875,-0.040963124483823776,-0.014848001301288605,-0.01440584659576416
1772526349761908200,1.457908203125,-0.04043715074658394,-0.017923684790730476,-0.025246774777770042
1772526349771890200,1.46789013671875,-0.043651312589645386,-0.031419236212968826,-0.03384985029697418
1772526349781872400,1.477872314453125,-0.04462496563792229,-0.04562746733427048,-0.03843235224485397
1772526349791855000,1.487855224609375,-0.04308415949344635,-0.05567045509815216,-0.02821984328329563
1772526349801837300,1.49783740234375,-0.03352607041597366,-0.058765314519405365,-0.01610725186765194
1772526349811819300,1.5078193359375,-0.025616537779569626,-0.046593379229307175,0.005940616130828857
1772526349821802200,1.51780224609375,-0.015576951205730438,-0.02646653726696968,0.029025163501501083
1772526349831784200,1.5277841796875,-0.005143956281244755,-0.01115940697491169,0.04651964455842972
1772526349841767400,1.537767333984375,0.0036082565784454346,-0.003400553949177265,0.05644604563713074
1772526349851749000,1.5477490234375,0.012286730110645294,-0.005044413730502129,0.06141657009720802
1772526349861731300,1.5577314453125,0.017243938520550728,-0.002581255743280053,0.06291166692972183
1772526349871714000,1.567714111328125,0.019904155284166336,-0.006623454391956329,0.05766044557094574
1772526349881696300,1.5776962890625,0.025535140186548233,-0.005615980364382267,0.048716217279434204
1772526349891678200,1.58767822265625,0.028566688299179077,0.0070716990157961845,0.04143691435456276
1772526349901661200,1.5976611328125,0.03359127417206764,0.02140030264854431,0.026849979534745216
1772526349911643400,1.607643310546875,0.03343911096453667,0.035469308495521545,0.017004363238811493
1772526349921625000,1.617625,0.03225613757967949,0.03463467210531235,-0.000182347372174263
1772526349931608300,1.6276083984375,0.03308077156543732,0.02909453585743904,-0.006208636332303286
1772526349941590300,1.63759033203125,0.03182562440633774,0.023576466366648674,-0.014605317264795303
1772526349951572200,1.647572265625,0.031144922599196434,0.021003054454922676,-0.014622094109654427
1772526349961555200,1.65755517578125,0.03215532377362251,0.011873205192387104,-0.020687177777290344
1772526349971537200,1.667537109375,0.0349859856069088,0.0012021304573863745,-0.02486674301326275
1772526349981520100,1.67752001953125,0.030565135180950165,-0.015325180254876614,-0.026600996032357216
1772526349991502300,1.68750244140625,0.025524038821458817,-0.02400948293507099,-0.022728227078914642
1772526350001484000,1.697484130859375,0.022029438987374306,-0.02749050222337246,-0.010949863120913506
1772526350011467300,1.70746728515625,0.020779181271791458,-0.033787067979574203,-0.008861234411597252
1772526350021449200,1.71744921875,0.01849605143070221,-0.03621640428900719,0.00048326561227440834
1772526350031431200,1.72743115234375,0.022770969197154045,-0.033359330147504807,0.002336826641112566
1772526350041414100,1.7374140625,0.024829592555761337,-0.03234120458364487,0.0040849256329238415
1772526350051396000,1.74739599609375,0.026813285425305367,-0.030002357438206673,0.003458637511357665
1772526350061378300,1.75737841796875,0.028472168371081352,-0.024533556774258614,0.0008703111670911312
1772526350071361300,1.767361328125,0.02491355501115322,-0.021938780322670937,-0.0017536133527755737
1772526350081343200,1.77734326171875,0.02455163188278675,-0.025111405178904533,-0.0033075669780373573
1772526350091325200,1.7873251953125,0.02702084742486477,-0.024898983538150787,-0.0037242602556943893
1772526350101308200,1.79730810546875,0.0275657307356596,-0.026689160615205765,-0.006337886676192284
1772526350111289900,1.807289794921875,0.02538706734776497,-0.019525138661265373,-0.0035696220584213734
1772526350121272000,1.81727197265625,0.019994433969259262,-0.011156154796481133,-0.003554441500455141
1772526350131255000,1.827255126953125,0.01979212649166584,0.0029952735640108585,-0.007297337055206299
1772526350141237000,1.837237060546875,0.012790942564606667,0.013657771050930023,-0.012950961478054523
1772526350151220000,1.847219970703125,0.00790991447865963,0.019746877253055573,-0.01740136742591858
1772526350161202000,1.857201904296875,0.008836962282657623,0.018269354477524757,-0.020137500017881393
1772526350171184000,1.86718408203125,0.013160159811377525,0.01761571876704693,-0.01612926460802555
1772526350181167000,1.8771669921875,0.019225507974624634,0.01829615794122219,-0.009369364008307457
1772526350191149000,1.887149169921875,0.022667095065116882,0.01730860397219658,0.002692890353500843
1772526350201131000,1.897131103515625,0.030754584819078445,0.01767212525010109,0.012922624126076698
1772526350211114200,1.9071142578125,0.029179072007536888,0.016100913286209106,0.023851441219449043
1772526350221096000,1.917095947265625,0.03460845723748207,0.01859975792467594,0.029456594958901405
1772526350231078100,1.927078125,0.03731555491685867,0.020199749618768692,0.040886081755161285
1772526350241060900,1.937060791015625,0.046175889670848846,0.018238065764307976,0.04454047232866287
1772526350251043000,1.94704296875,0.047043003141880035,0.021259916946291924,0.04424139857292175
1772526350261025300,1.957025390625,0.04364055022597313,0.01865587942302227,0.04221872612833977
1772526350271008000,1.967008056640625,0.04519005864858627,0.011771227233111858,0.0407554991543293
1772526350280990200,1.976990234375,0.04311652481555939,0.00786676723510027,0.031821124255657196
1772526350290972000,1.986971923828125,0.04260723665356636,0.008880993351340294,0.018059594556689262
1772526350300955100,1.996955078125,0.03871423006057739,0.027826454490423203,0.001030544750392437
1772526350310937000,2.00693701171875,0.03840210661292076,0.0477714017033577,-0.020265422761440277
1772526350320920000,2.016920166015625,0.03712005913257599,0.06287498772144318,-0.0392305925488472
1772526350330902000,2.026902099609375,0.033334992825984955,0.056075021624565125,-0.05653909593820572
1772526350340884000,2.036884033203125,0.025709565728902817,0.025147734209895134,-0.06525375694036484
1772526350350867000,2.046866943359375,0.024088416248559952,-0.005887565668672323,-0.059773679822683334
1772526350360849200,2.05684912109375,0.02160182222723961,-0.0243667084723711,-0.04483441635966301
1772526350370831000,2.0668310546875,0.02227773703634739,-0.032769229263067245,-0.022954681888222694
1772526350380814000,2.07681396484375,0.02625783160328865,-0.03093457780778408,0.00038046715781092644
1772526350390796300,2.08679638671875,0.02831193432211876,-0.019423311576247215,0.019477196037769318
1772526350400778000,2.096778076171875,0.03192850574851036,-0.0033958752173930407,0.030824659392237663
1772526350410761200,2.10676123046875,0.030494648963212967,0.006029280833899975,0.03085901401937008
1772526350420743000,2.116742919921875,0.028494879603385925,0.012139104306697845,0.025964390486478806
1772526350430725000,2.12672509765625,0.019705288112163544,0.002621023915708065,0.01368863694369793
1772526350440708000,2.1367080078125,0.012475604191422462,-0.0022725346498191357,0.004194468259811401
1772526350450690000,2.14668994140625,0.006914725061506033,-0.01178019680082798,0.00398745434358716
1772526350460672300,2.15667236328125,0.005896065849810839,-0.006926852744072676,0.009012838825583458
1772526350470655000,2.166655029296875,-0.0011853217147290707,-0.009723433293402195,0.023189999163150787
1772526350480637200,2.17663720703125,-0.0008100820705294609,-0.01489875465631485,0.030758969485759735
1772526350490620200,2.1866201171875,-0.005126132629811764,-0.019468817859888077,0.03355218097567558
1772526350500602000,2.19660205078125,-0.007401271257549524,-0.02411177195608616,0.04378750920295715
1772526350510584000,2.206583984375,-0.015296299010515213,-0.027902955189347267,0.042149219661951065
1772526350520567300,2.2165673828125,-0.0207014512270689,-0.026996413245797157,0.04374711588025093
1772526350530549000,2.226549072265625,-0.015928704291582108,-0.016329975798726082,0.04184339940547943
1772526350540531200,2.23653125,-0.012764335609972477,-0.007774835918098688,0.04140397906303406
1772526350550514000,2.246513916015625,-0.010477125644683838,0.002978379838168621,0.043160777539014816
1772526350560496000,2.25649609375,-0.008219031617045403,0.009161174297332764,0.04422284662723541
1772526350570478000,2.26647802734375,-0.010556953027844429,0.007298378273844719,0.03620824217796326
1772526350580461000,2.2764609375,-0.011846455745398998,-0.000006406335160136223,0.02871091105043888
1772526350590443000,2.286443115234375,-0.01250513270497322,-0.003303526435047388,0.020707933232188225
1772526350600425000,2.296425048828125,-0.015401320531964302,-0.002465429250150919,0.0186943169683218
1772526350610408200,2.306408203125,-0.014691993594169617,0.0011509398464113474,0.020977621898055077
1772526350620390100,2.31639013671875,-0.01516204234212637,-0.0006794508080929518,0.027691183611750603
1772526350630372000,2.3263720703125,-0.010772189125418663,0.002390414010733366,0.03265993297100067
1772526350640355000,2.33635498046875,-0.008149773813784122,-0.0041329991072416306,0.03847414627671242
1772526350650337000,2.3463369140625,-0.0065747513435781,-0.01582709699869156,0.03698757290840149
1772526350660319000,2.356319091796875,-0.008236563764512539,-0.02643366903066635,0.034425076097249985
1772526350670302200,2.36630224609375,-0.009587513282895088,-0.0322624109685421,0.02080824412405491
1772526350680284000,2.376283935546875,-0.01407893467694521,-0.020436378195881844,0.0051560476422309875
1772526350690267100,2.38626708984375,-0.016288496553897858,-0.008681908249855042,-0.014179922640323639
1772526350700248800,2.396248779296875,-0.013381922617554665,0.012174904346466064,-0.03416135162115097
1772526350710231000,2.40623095703125,-0.006640227045863867,0.02984929271042347,-0.04415291175246239
1772526350720214000,2.416214111328125,-0.004919026046991348,0.039448924362659454,-0.04813620075583458
1772526350730196000,2.426196044921875,-0.0027893383521586657,0.04417044296860695,-0.044041503220796585
1772526350740178200,2.43617822265625,-0.004483108874410391,0.03649095073342323,-0.03515399992465973
1772526350750161200,2.4461611328125,0.001646693330258131,0.021495508030056953,-0.031039681285619736
1772526350760143000,2.45614306640625,-0.00031525781378149986,0.008736834861338139,-0.01771428808569908
1772526350770125000,2.466125,-0.0001668473705649376,0.006178455427289009,0.0014728959649801254
1772526350780108000,2.47610791015625,0.006061221472918987,0.009870927780866623,0.021135281771421432
1772526350790090000,2.486090087890625,0.014295981265604496,0.015552516095340252,0.03453550860285759
1772526350800072000,2.496072021484375,0.019195131957530975,0.010820345021784306,0.037753939628601074
1772526350810055000,2.506054931640625,0.02740182727575302,0.00548580614849925,0.02788941003382206
1772526350820037000,2.516037109375,0.02143395133316517,0.0015640349593013525,0.013984248042106628
1772526350830019000,2.52601904296875,0.017171192914247513,0.0021390472538769245,-0.0002414695918560028
1772526350840002000,2.536001953125,0.013203348964452744,0.011557316407561302,-0.0029586930759251118
1772526350849984300,2.545984375,0.006992412265390158,0.02327326498925686,-0.0008911024779081345
1772526350859967000,2.555967041015625,0.002167563419789076,0.020111294463276863,-0.0017307978123426437
1772526350869949200,2.56594921875,0.00661081587895751,0.015030649490654469,0.0038434648886322975
1772526350879931000,2.575930908203125,0.009288091212511063,0.009933891706168652,0.005051740910857916
1772526350889914000,2.5859140625,0.006127064116299152,0.0014357063919305801,0.0025380714796483517
1772526350899896000,2.59589599609375,0.005827724933624268,-0.019490348175168037,-0.0010089925490319729
1772526350909878000,2.6058779296875,-0.0008474928326904774,-0.04139992967247963,-0.006955298129469156
1772526350919861000,2.615861083984375,-0.0023860009387135506,-0.06305462121963501,-0.01509072259068489
1772526350929843200,2.62584326171875,-0.0019034268334507942,-0.07027654349803925,-0.013235831633210182
1772526350939825200,2.6358251953125,0.0018244660459458828,-0.055596932768821716,-0.0017022136598825455
1772526350949808000,2.64580810546875,0.0006740004755556583,-0.0290688443928957,0.012859152629971504
1772526350959790000,2.6557900390625,0.00176722789183259,-0.004725952632725239,0.030070895329117775
1772526350969772000,2.66577197265625,0.007210191804915667,0.020174583420157433,0.0305944737046957
1772526350979755300,2.67575537109375,0.010859521105885506,0.039760272949934006,0.020542636513710022
1772526350989737000,2.685737060546875,0.019299248233437538,0.041751570999622345,0.006822120863944292
1772526350999720200,2.69572021484375,0.018732260912656784,0.025096429511904716,-0.01192520186305046
1772526351009702000,2.705701904296875,0.01833336427807808,0.01055599469691515,-0.02640453539788723
1772526351019684000,2.71568408203125,0.012538591399788857,-0.004953988827764988,-0.029442669823765755
1772526351029667000,2.7256669921875,0.006197663024067879,-0.02329564280807972,-0.021377380937337875
1772526351039649000,2.73564892578125,0.001820491161197424,-0.031738393008708954,-0.007470087613910437
1772526351049631200,2.74563134765625,-0.003771430579945445,-0.030828280374407768,0.013615579344332218
1772526351059614200,2.7556142578125,0.0020837956108152866,-0.02344360016286373,0.02814951352775097
1772526351069596200,2.76559619140625,0.0115494504570961,-0.007210110314190388,0.03160123527050018
1772526351079578000,2.775578125,0.022456426173448563,0.006532066501677036,0.03591635450720787
1772526351089561000,2.78556103515625,0.02696916088461876,0.02220134437084198,0.03301271051168442
1772526351099543000,2.79554296875,0.02690870687365532,0.019579462707042694,0.02773912064731121
1772526351109525200,2.805525146484375,0.019430536776781082,0.006895035970956087,0.020492393523454666
1772526351119508000,2.815508056640625,0.010771268978714943,-0.004455089569091797,0.01328960806131363
1772526351129490200,2.825490234375,0.003897635266184807,-0.01834619976580143,0.008468488231301308
1772526351139472100,2.83547216796875,0.0008523105643689632,-0.024770809337496758,0.0010992554016411304
1772526351149455000,2.845455078125,-0.0021936192642897367,-0.029437046498060226,-0.005801707040518522
1772526351159437000,2.85543701171875,-0.0007456587627530098,-0.02421298623085022,-0.009931204840540886
1772526351169419000,2.8654189453125,0.004327228292822838,-0.014762550592422485,-0.005726960022002459
1772526351179402200,2.87540234375,0.007190925069153309,-0.0037021758034825325,-0.005015896167606115
1772526351189384200,2.88538427734375,0.008889319375157356,-0.004623154178261757,-0.001304603647440672
1772526351199366100,2.8953662109375,0.010155119933187962,-0.007281521335244179,0.00029382575303316116
1772526351209349000,2.90534912109375,0.012498697265982628,-0.010633128695189953,-0.0005927411839365959
1772526351219331000,2.9153310546875,0.014210309833288193,-0.01422067265957594,-0.004160577431321144
1772526351229314000,2.92531396484375,0.022015344351530075,-0.003772848518565297,-0.007785758934915066
1772526351239296300,2.935296142578125,0.022183921188116074,-0.004482846707105637,-0.0063473861664533615
1772526351249278000,2.94527783203125,0.026687918230891228,0.005609528161585331,-0.00836295634508133
1772526351259261200,2.95526123046875,0.02410331927239895,0.008740340359508991,-0.010340353474020958
1772526351269243000,2.965242919921875,0.02690436877310276,0.010755210183560848,-0.011056920513510704
1772526351279225000,2.97522509765625,0.03051135502755642,0.014004266820847988,-0.008801223710179329
1772526351289208000,2.9852080078125,0.03066055290400982,0.01699640601873398,-0.010732371360063553
1772526351299190000,2.99518994140625,0.03108186461031437,0.010165131650865078,-0.009105179458856583
1772526351309172200,3.005172119140625,0.03174907714128494,-0.007698649540543556,-0.00835505686700344
1772526351319155200,3.0151552734375,0.03257625550031662,-0.013202337548136711,-0.0047094551846385
1772526351329137200,3.02513720703125,0.03181452304124832,-0.004592965357005596,0.004853246733546257
1772526351339119000,3.035119140625,0.03382627293467522,0.003163224318996072,0.012417156249284744
1772526351349102000,3.04510205078125,0.03727647662162781,0.01192888617515564,0.013849315233528614
1772526351359084000,3.055083984375,0.034313708543777466,0.018147367984056473,0.010042859241366386
1772526351369066000,3.06506591796875,0.030986420810222626,0.022732600569725037,0.004712987691164017
1772526351379049000,3.075049072265625,0.02125975489616394,0.014535125344991684,-0.00350898876786232
1772526351389031200,3.08503125,0.017528414726257324,0.00767089007422328,-0.010051844641566277
1772526351399014000,3.095013916015625,0.020423004403710365,-0.002450986299663782,-0.011307790875434875
1772526351408996000,3.10499609375,0.02129313163459301,-0.00644082622602582,-0.004580200649797916
1772526351418978300,3.114978271484375,0.023966412991285324,-0.006963870953768492,0.001865181140601635
1772526351428961000,3.1249609375,0.027357716113328934,0.0008172271773219109,0.01564357616007328
1772526351438943200,3.134943115234375,0.028879977762699127,0.005396532826125622,0.014083229005336761
1772526351448925000,3.144925048828125,0.025668032467365265,0.0015790811739861965,0.013078063726425171
1772526351458908200,3.154908203125,0.01980534940958023,-0.011045900173485279,0.0012413784861564636
1772526351468890000,3.16489013671875,0.01346078421920538,-0.02841745689511299,-0.012934539467096329
1772526351478872000,3.1748720703125,0.0077584246173501015,-0.03376428410410881,-0.02450038120150566
1772526351488855000,3.18485498046875,0.009459743276238441,-0.03263544291257858,-0.027649657800793648
1772526351498837000,3.1948369140625,0.007422159425914288,-0.021094636991620064,-0.02393481507897377
1772526351508819200,3.204819091796875,0.009402843192219734,-0.008112866431474686,-0.012671329081058502
1772526351518802200,3.21480224609375,0.01401011273264885,0.003505173372104764,-0.0020716828294098377
1772526351528784100,3.2247841796875,0.016310017555952072,0.005554475821554661,0.0061468323692679405
1772526351538766000,3.23476611328125,0.023857949301600456,0.005063388962298632,0.011121084913611412
1772526351548749300,3.244749267578125,0.032160963863134384,0.003022471908479929,0.017408985644578934
1772526351558731000,3.25473095703125,0.03335778787732124,0.008540541864931583,0.021319039165973663
1772526351568714200,3.26471435546875,0.03425547853112221,0.009837962687015533,0.022565485909581184
1772526351578696000,3.274696044921875,0.033633630722761154,0.0001949230208992958,0.02146187238395214
1772526351588678100,3.28467822265625,0.031249739229679108,-0.015707820653915405,0.01687147095799446
1772526351598661000,3.2946611328125,0.0266355462372303,-0.02180778980255127,0.015271976590156555
1772526351608643000,3.30464306640625,0.02613336592912674,-0.025040145963430405,0.017399486154317856
1772526351618625300,3.314625244140625,0.024062756448984146,-0.020589737221598625,0.02163471095263958
1772526351628608300,3.324608154296875,0.020722968503832817,-0.006484152749180794,0.027265610173344612
1772526351638590200,3.334590087890625,0.021208729594945908,0.006522459909319878,0.032695263624191284
1772526351648572200,3.344572265625,0.027028888463974,0.010230815969407558,0.03215029090642929
1772526351658555100,3.35455517578125,0.026053905487060547,0.001657567685469985,0.02528386376798153
1772526351668537000,3.364537109375,0.024692554026842117,-0.015293941833078861,0.013294495642185211
1772526351678519000,3.37451904296875,0.0216474961489439,-0.027067776769399643,0.0014109383337199688
1772526351688502000,3.384501953125,0.015050435438752174,-0.0357498973608017,-0.009012768045067787
1772526351698484200,3.394484130859375,0.009645816870033741,-0.030375637114048004,-0.011216267943382263
1772526351708466200,3.404466064453125,0.004022358451038599,-0.01648714207112789,-0.008311377838253975
1772526351718449200,3.41444921875,0.00014532823115587234,-0.005334889981895685,-0.005086556542664766
1772526351728431000,3.42443115234375,0.0021310108713805676,0.0008032838813960552,-0.0016023451462388039
1772526351738413000,3.4344130859375,0.005991262849420309,0.010693199001252651,-0.0038822777569293976
1772526351748396000,3.44439599609375,0.012779220007359982,0.012199140153825283,-0.00640358030796051
1772526351758378000,3.4543779296875,0.016516167670488358,0.003695400431752205,-0.008457410149276257
1772526351768360200,3.464360107421875,0.017548829317092896,-0.009952502325177193,-0.014356490224599838
1772526351778343200,3.47434326171875,0.016399143263697624,-0.01865198463201523,-0.007816297933459282
1772526351788325000,3.4843251953125,0.01577962376177311,-0.01667920872569084,-0.00034737493842840195
1772526351798308000,3.49430810546875,0.012726576998829842,-0.014663993380963802,0.005966447293758392
1772526351808290000,3.5042900390625,0.010925645008683205,-0.014309755526483059,0.007983880117535591
1772526351818272000,3.51427197265625,0.008122401311993599,-0.010324069298803806,0.005852552130818367
1772526351828255200,3.524255126953125,0.010380495339632034,-0.006580996327102184,-0.0005821776576340199
1772526351838237000,3.53423681640625,0.012286351062357426,-0.001722115557640791,-0.0073456293903291225
1772526351848219100,3.54421923828125,0.01616060547530651,0.0048550888895988464,-0.010032402351498604
1772526351858202000,3.5542021484375,0.018100984394550323,0.00957287847995758,-0.013731800019741058
1772526351868184000,3.56418408203125,0.019436312839388847,0.005984882358461618,-0.013243643566966057
1772526351878166300,3.574166259765625,0.01602214202284813,-0.000039720674976706505,-0.005585990380495787
1772526351888149000,3.58414892578125,0.015539480373263359,-0.0007240972481667995,0.002113829366862774
1772526351898131200,3.594131103515625,0.014390591531991959,0.007631037849932909,0.009834866039454937
1772526351908113000,3.60411279296875,0.0134695153683424,0.012337375432252884,0.015775758773088455
1772526351918096100,3.61409619140625,0.017296211794018745,0.0035247099585831165,0.01809723488986492
1772526351928078000,3.624078125,0.01595848612487316,0.004333702847361565,0.013889972120523453
1772526351938060000,3.63406005859375,0.012388784438371658,0.0006050108931958675,0.009821195155382156
1772526351948043000,3.64404296875,0.010509951040148735,-0.008057892322540283,-0.0004841717891395092
1772526351958025200,3.654025146484375,0.007699782494455576,-0.016790930181741714,-0.0028338790871202946
1772526351968008000,3.664008056640625,0.010807150043547153,-0.014692128635942936,-0.005761492066085339
1772526351977990100,3.673990234375,0.015767019242048264,-0.008196146227419376,0.0002703010104596615
1772526351987972000,3.68397216796875,0.015814051032066345,0.006934887729585171,0.002319158986210823
1772526351997955000,3.693955078125,0.015380488708615303,0.009834270924329758,0.0008485615253448486
1772526352007937300,3.703937255859375,0.01025708019733429,-0.002701577264815569,-0.007031729444861412
1772526352017919000,3.7139189453125,0.005065512843430042,-0.020971128717064857,-0.016672104597091675
1772526352027902200,3.723902099609375,-0.0022195044439285994,-0.04219922050833702,-0.029606278985738754
1772526352037884000,3.7338837890625,-0.011364532634615898,-0.05250139161944389,-0.03834384307265282
1772526352047866000,3.7438662109375,-0.01685846410691738,-0.04694278538227081,-0.048961248248815536
1772526352057849000,3.75384912109375,-0.023083338513970375,-0.027327537536621094,-0.0516318678855896
1772526352067831000,3.7638310546875,-0.024916063994169235,-0.009413173422217369,-0.05220160633325577
1772526352077813200,3.773813232421875,-0.02435147389769554,0.01405353657901287,-0.04404833912849426
1772526352087796200,3.783796142578125,-0.024418486282229424,0.024231016635894775,-0.03502297401428223
1772526352097778200,3.793778076171875,-0.0230815801769495,0.018833855167031288,-0.02314021810889244
1772526352107760000,3.803760009765625,-0.023977186530828476,0.004141249693930149,-0.014682281762361526
1772526352117743400,3.813743408203125,-0.01804685965180397,0.001237871591001749,-0.0017795334570109844
1772526352127725000,3.82372509765625,-0.020285271108150482,-0.007493129000067711,0.008919714950025082
1772526352137707300,3.833707275390625,-0.022454949095845222,-0.015379016287624836,0.010231055319309235
1772526352147690200,3.843690185546875,-0.024664126336574554,-0.029983429238200188,0.009873216040432453
1772526352157672200,3.853672119140625,-0.03048579767346382,-0.03040394000709057,0.0031886817887425423
1772526352167655200,3.8636552734375,-0.039813682436943054,-0.01946316473186016,0.0032322690822184086
1772526352177637400,3.873637451171875,-0.04646146297454834,-0.007274408359080553,0.0018791165202856064
1772526352187619300,3.883619384765625,-0.0550842359662056,0.006608420051634312,0.001842366997152567
1772526352197602300,3.893602294921875,-0.053565699607133865,0.011228471994400024,0.001313996035605669
1772526352207584300,3.903584228515625,-0.05380654335021973,0.00895314384251833,-0.001138421706855297
1772526352217566200,3.913566162109375,-0.04938169941306114,-0.0033048540353775024,0.0004986235871911049
1772526352227549400,3.923549560546875,-0.04526510462164879,-0.023455165326595306,0.0070269182324409485
1772526352237531100,3.93353125,-0.04419291764497757,-0.032887283712625504,0.010922856628894806
1772526352247513300,3.943513427734375,-0.03839017078280449,-0.023473605513572693,0.019816219806671143
1772526352257496300,3.953496337890625,-0.0318843349814415,-0.010648621246218681,0.023918285965919495
1772526352267478300,3.963478271484375,-0.026838773861527443,0.0008284698706120253,0.021314065903425217
1772526352277460200,3.973460205078125,-0.022383570671081543,0.012223603203892708,0.019029872491955757
1772526352287443200,3.983443115234375,-0.018791310489177704,0.01756763458251953,0.010287071578204632
1772526352297425200,3.993425048828125,-0.012193062342703342,0.018958337604999542,0.005750376731157303
1772526352307407000,4.003406982421875,-0.00677825091406703,0.01982584223151207,0.0033108312636613846
1772526352317390000,4.01339013671875,-0.000707575585693121,0.018476154655218124,0.00582698592916131
1772526352327372300,4.023372314453125,0.0013572797179222107,0.0221939068287611,0.007661017123609781
1772526352337354200,4.033354248046875,0.006944592110812664,0.01821168139576912,0.008283398114144802
1772526352347337200,4.043337158203125,0.006587161682546139,0.018324995413422585,0.007989651523530483
1772526352357319400,4.0533193359375,0.008253767155110836,0.015195781365036964,0.009814449585974216
1772526352367301000,4.063301025390625,0.008810198865830898,0.009250752627849579,0.007556798402220011
1772526352377284400,4.073284423828125,0.011063233017921448,-0.0011108079925179482,0.007207125425338745
1772526352387266000,4.08326611328125,0.011283209547400475,-0.006679211277514696,0.0023162299767136574
1772526352397249300,4.093249267578125,0.011110903695225716,-0.005804895889014006,-0.005373115185648203
1772526352407231200,4.103231201171875,0.012108610942959785,-0.00010369648225605488,-0.01572783850133419
1772526352417213200,4.113213134765625,0.008351422846317291,0.0015956666320562363,-0.023960735648870468
1772526352427196200,4.123196044921875,0.001841515302658081,0.002665327861905098,-0.03198022395372391
1772526352437178000,4.13317822265625,0.000292088370770216,0.004935672506690025,-0.03085264377295971
1772526352447160300,4.143160400390625,-0.0017478885129094124,0.008613251149654388,-0.029497627168893814
1772526352457143300,4.153143310546875,-0.003309299936518073,0.011965105310082436,-0.02236488088965416
1772526352467125200,4.163125244140625,0.0000023990869522094727,0.013965986669063568,-0.012440964579582214
1772526352477107200,4.173107177734375,0.0037023285403847694,0.01189564447849989,-0.003659456968307495
1772526352487090400,4.18309033203125,0.004488677252084017,0.0022631087340414524,-0.0005362802185118198
1772526352497072000,4.193072021484375,-0.00033217668533325195,-0.0038834670558571815,-0.004924370441585779
1772526352507054300,4.203054443359375,-0.008424099534749985,-0.006472400389611721,-0.01512596569955349
1772526352517037000,4.213037109375,-0.009790834039449692,-0.004981297068297863,-0.024852896109223366
1772526352527019300,4.223019287109375,-0.018625706434249878,0.00042308750562369823,-0.026536719873547554
1772526352537001200,4.233001220703125,-0.01911839097738266,0.008758781477808952,-0.028048330917954445
1772526352546984200,4.242984130859375,-0.02400347590446472,0.019050559028983116,-0.027305489405989647
1772526352556966400,4.25296630859375,-0.016805749386548996,0.02430790476500988,-0.02401089109480381
1772526352566948000,4.262947998046875,-0.009232988581061363,0.01955316960811615,-0.01832539774477482
1772526352576931300,4.272931396484375,-0.010409839451313019,0.002886576112359762,-0.016255589202046394
1772526352586913300,4.282913330078125,-0.017461711540818214,-0.024482369422912598,-0.01419900730252266
1772526352596895200,4.292895263671875,-0.020038053393363953,-0.0518287718296051,-0.00890917144715786
1772526352606878200,4.302878173828125,-0.020333759486675262,-0.06253036111593246,-0.0036165807396173477
1772526352616860200,4.312860107421875,-0.026497114449739456,-0.05067477002739906,0.0014306418597698212
1772526352626843100,4.322843017578125,-0.024556811898946762,-0.03225674107670784,0.006151714827865362
1772526352636825300,4.332825439453125,-0.019808396697044373,-0.016085229814052582,0.01027109194546938
1772526352646807300,4.342807373046875,-0.012064989656209946,0.0035529194865375757,0.012007206678390503
1772526352656790300,4.352790283203125,-0.006188724189996719,0.007885616272687912,-0.00022895308211445808
1772526352666772200,4.362772216796875,-0.003830510191619396,0.010506636463105679,-0.00755983404815197
1772526352676754200,4.372754150390625,-0.0030283660162240267,0.01103154569864273,-0.011960175819694996
1772526352686737400,4.3827373046875,-0.005568628199398518,0.004148137755692005,-0.014697729609906673
1772526352696719000,4.392718994140625,-0.007327379658818245,0.003092194441705942,-0.01783786341547966
1772526352706701300,4.402701416015625,-0.008036667481064796,0.0052702222019433975,-0.013481374830007553
1772526352716684300,4.412684326171875,-0.008925097063183784,0.003095485270023346,-0.010119134560227394
1772526352726666200,4.422666259765625,-0.008651533164083958,-0.001325309043750167,-0.0046714600175619125
1772526352736648400,4.4326484375,-0.0068363226018846035,-0.002649432746693492,-0.0009808512404561043
1772526352746631200,4.442631103515625,-0.0035626066382974386,-0.0029940365348011255,0.006839880254119635
1772526352756613400,4.45261328125,-0.00423931609839201,0.0006105517968535423,0.011195214465260506
1772526352766595000,4.462594970703125,-0.008358043618500233,0.0009565283544361591,0.012978639453649521
1772526352776578300,4.472578369140625,-0.00933276116847992,0.003660435788333416,0.007849391549825668
1772526352786560300,4.482560302734375,-0.011523810215294361,-0.007802436128258705,0.003016641829162836
1772526352796542200,4.492542236328125,-0.014369930140674114,-0.011790785938501358,-0.0077206906862556934
1772526352806525200,4.502525146484375,-0.011958466842770576,-0.004978004842996597,-0.015185531228780746
1772526352816507400,4.51250732421875,-0.01176485512405634,-0.001745992572978139,-0.016000723466277122
1772526352826489000,4.522489013671875,-0.012166978791356087,0.0035447035916149616,-0.01828172244131565
1772526352836472300,4.532472412109375,-0.011471893638372421,0.00304562714882195,-0.015779683366417885
1772526352846454000,4.5424541015625,-0.012992373667657375,-0.0002981233410537243,-0.016201704740524292
1772526352856437200,4.552437255859375,-0.013592650182545185,-0.008425824344158173,-0.017587346956133842
1772526352866419200,4.562419189453125,-0.011614633724093437,-0.01779438741505146,-0.01497301273047924
1772526352876401200,4.572401123046875,-0.010302228853106499,-0.02236011065542698,-0.010882396250963211
1772526352886384000,4.582384033203125,-0.0035733107943087816,-0.01670214906334877,-0.004936268087476492
1772526352896366000,4.592365966796875,-0.0020233511459082365,-0.016198012977838516,-0.00164380157366395
1772526352906348300,4.602348388671875,-0.0003630397841334343,-0.008769980631768703,0.0019883946515619755
1772526352916331300,4.612331298828125,0.0039225188083946705,-0.004939289763569832,0.0015593594871461391
1772526352926313200,4.622313232421875,-0.0002346332184970379,-0.007927639409899712,0.0032834066078066826
1772526352936295200,4.632295166015625,0.00020638620480895042,-0.0068855443969368935,0.0033356044441461563
1772526352946278400,4.6422783203125,-0.005976291373372078,-0.008149979636073112,0.005135009065270424
1772526352956260000,4.652260009765625,-0.0063126483000814915,-0.00970393419265747,0.011130317114293575
1772526352966242300,4.6622421875,-0.007713292725384235,-0.0031511313281953335,0.020097268745303154
1772526352976225000,4.67222509765625,-0.006335106678307056,0.001535765826702118,0.021919403225183487
1772526352986207200,4.682207275390625,-0.002982713980600238,0.0028085105586797,0.027941076084971428
1772526352996189400,4.692189453125,0.0007025683298707008,0.003884693840518594,0.02331942692399025
1772526353006172200,4.702172119140625,0.0018513333052396774,-0.006710744462907314,0.0168757364153862
1772526353016154400,4.712154296875,0.0012819496914744377,-0.008273486979305744,0.021181270480155945
1772526353026136000,4.722135986328125,0.0008908337913453579,-0.0009005558677017689,0.02512798085808754
1772526353036119300,4.732119384765625,0.0013928399421274662,0.015207573771476746,0.038450710475444794
1772526353046101200,4.742101318359375,-0.0005162684246897697,0.020522983744740486,0.04729790613055229
1772526353056083200,4.752083251953125,-0.00486707454547286,0.01723824068903923,0.048579953610897064
1772526353066066200,4.762066162109375,-0.005474464502185583,0.007125283591449261,0.043558210134506226
1772526353076048100,4.772048095703125,-0.0014451020397245884,0.00294731673784554,0.033145248889923096
1772526353086030300,4.7820302734375,0.00036578020080924034,-0.006570913828909397,0.022041020914912224
1772526353096013300,4.792013427734375,0.00510008167475462,-0.0104141216725111,0.01683906838297844
1772526353105995800,4.801995849609375,0.007870030589401722,-0.0059022135101258755,0.014474181458353996
1772526353115978800,4.811978759765625,0.008131553418934345,0.00225451635196805,0.01552240177989006
1772526353125960700,4.821960693359375,0.007535343058407307,0.010288853198289871,0.012986185029149055
1772526353135943000,4.83194287109375,0.0048103975132107735,0.006917823571711779,0.006460108794271946
1772526353145926000,4.84192578125,-0.002485685981810093,-0.0029253908433020115,-0.004808967933058739
1772526353155907800,4.851907958984375,-0.007193089462816715,-0.0209006629884243,-0.019230784848332405
1772526353165889800,4.861889892578125,-0.005274737253785133,-0.04538244009017944,-0.03331686183810234
1772526353175872800,4.871872802734375,0.0038207569159567356,-0.0555591806769371,-0.036534760147333145
1772526353185855000,4.88185498046875,0.014803621917963028,-0.04334889352321625,-0.02795165590941906
1772526353195836700,4.891836669921875,0.024104446172714233,-0.012851438485085964,-0.011634469032287598
1772526353205820000,4.90181982421875,0.03536239638924599,0.02054384909570217,0.002886769361793995
1772526353215801600,4.911801513671875,0.04279128462076187,0.04034524783492088,0.00631771981716156
1772526353225783800,4.92178369140625,0.05339960753917694,0.04736987501382828,0.004121764097362757
1772526353235766800,4.931766845703125,0.05888652056455612,0.03829355537891388,-0.0004034792073071003
1772526353245748700,4.941748779296875,0.06161266565322876,0.02264312654733658,-0.0056889597326517105
1772526353255731000,4.95173095703125,0.061027832329273224,0.011547598987817764,-0.006812547333538532
1772526353265714000,4.9617138671875,0.059910573065280914,0.004628624301403761,-0.003081907518208027
1772526353275695900,4.97169580078125,0.06132710725069046,0.008876100182533264,-0.0003369874320924282
1772526353285677800,4.981677734375,0.05809935927391052,0.00220809830352664,-0.0019756308756768703
1772526353295660800,4.991660888671875,0.061067983508110046,0.005085643846541643,-0.005760781932622194
1772526353305642800,5.001642822265625,0.055851828306913376,0.0008558405097573996,-0.009435055777430534
1772526353315624700,5.011624755859375,0.054474443197250366,-0.002867258619517088,-0.009273668751120567
1772526353325607700,5.021607666015625,0.04645787924528122,0.0009484020993113518,-0.009920106269419193
1772526353335590000,5.03158984375,0.038675323128700256,-0.0053334622643888,-0.008855639956891537
1772526353345572600,5.041572509765625,0.029725078493356705,-0.016599712893366814,-0.004976303782314062
1772526353355554800,5.051554931640625,0.017252162098884583,-0.019602693617343903,-0.0036109010688960552
1772526353365537000,5.061537109375,0.008750267326831818,-0.019463224336504936,-0.00883042998611927
1772526353375518700,5.071518798828125,-0.0003201924264431,-0.019817691296339035,-0.013685371726751328
1772526353385502000,5.081501953125,-0.009012207388877869,-0.022550586611032486,-0.019994935020804405
1772526353395483600,5.091483642578125,-0.010241257026791573,-0.025857433676719666,-0.02814607135951519
1772526353405467000,5.101466796875,-0.0188911072909832,-0.033341772854328156,-0.029121944680809975
1772526353415448800,5.11144873046875,-0.022060802206397057,-0.03371434658765793,-0.027721652761101723
1772526353425430800,5.1214306640625,-0.024833591654896736,-0.02512705884873867,-0.01798815280199051
1772526353435413800,5.131413818359375,-0.02738303504884243,-0.00872784573584795,0.0017314883880317211
1772526353445395700,5.141395751953125,-0.03158871456980705,0.0020728097297251225,0.012717029079794884
1772526353455378000,5.1513779296875,-0.0319431833922863,0.0058505036868155,0.018624719232320786
1772526353465361000,5.16136083984375,-0.025703642517328262,0.009547051042318344,0.02213609591126442
1772526353475342800,5.1713427734375,-0.025433864444494247,0.008100155740976334,0.01919277012348175
1772526353485324800,5.18132470703125,-0.02330522984266281,0.0037931695114821196,0.01306217536330223
1772526353495308000,5.19130810546875,-0.024352118372917175,0.008159421384334564,0.011347899213433266
1772526353505289700,5.201289794921875,-0.026116453111171722,0.009495838545262814,0.012192652560770512
1772526353515272000,5.21127197265625,-0.02326340600848198,0.015349999070167542,0.01552346721291542
1772526353525254700,5.221254638671875,-0.021849066019058228,0.015512378886342049,0.021801957860589027
1772526353535236900,5.23123681640625,-0.015382376499474049,0.01506922859698534,0.024062715470790863
1772526353545218800,5.24121875,-0.006748889107257128,0.01872018724679947,0.02376115880906582
1772526353555201800,5.251201904296875,0.0004757344722747803,0.017865046858787537,0.02454279735684395
1772526353565184000,5.26118408203125,0.0012192018330097198,0.018586326390504837,0.024390287697315216
1772526353575165700,5.271165771484375,0.0066208913922309875,0.02010645717382431,0.024844355881214142
1772526353585149000,5.28114892578125,0.0074370927177369595,0.015559593215584755,0.02750547230243683
1772526353595131000,5.291130859375,0.007079430390149355,0.004300546832382679,0.03075745888054371
1772526353605112800,5.30111279296875,0.009259382262825966,0.00616262573748827,0.032634809613227844
1772526353615095800,5.311095703125,0.008173078298568726,0.012241024523973465,0.0348963662981987
1772526353625077800,5.321077880859375,0.009055936709046364,0.018743211403489113,0.023070067167282104
1772526353635060700,5.331060791015625,0.006392509676516056,0.021033262833952904,0.01709047146141529
1772526353645043000,5.34104296875,0.0040258970111608505,0.021466225385665894,0.008331693708896637
1772526353655024600,5.351024658203125,0.0019371798262000084,0.02288142964243889,0.0065324618481099606
1772526353665007900,5.3610078125,0.0019262912683188915,0.026784151792526245,0.009649421088397503
1772526353674989800,5.37098974609375,-0.005314577836543322,0.02011852338910103,0.012532292865216732
1772526353684971800,5.3809716796875,-0.0011649872176349163,-0.0016212949994951487,0.011067656800150871
1772526353694954800,5.390954833984375,-0.0019966925028711557,-0.008491983637213707,0.016453901305794716
1772526353704936700,5.400936767578125,-0.004782236181199551,-0.013246460817754269,0.008362851105630398
1772526353714919000,5.4109189453125,-0.01521836593747139,-0.02194088138639927,-0.005908496677875519
1772526353724902000,5.42090185546875,-0.023624634370207787,-0.03145289421081543,-0.018294325098395348
1772526353734883800,5.4308837890625,-0.02948225662112236,-0.04626832529902458,-0.030263636261224747
1772526353744865800,5.44086572265625,-0.03819608315825462,-0.04501809552311897,-0.03352521359920502
1772526353754848800,5.450848876953125,-0.039781197905540466,-0.02820795588195324,-0.028224723413586617
1772526353764830700,5.460830810546875,-0.030735088512301445,-0.0038107624277472496,-0.019971763715147972
1772526353774813000,5.47081298828125,-0.021597784012556076,0.00843125581741333,-0.007234928663820028
1772526353784795600,5.480795654296875,-0.010715498588979244,0.015098873525857925,0.0007009380497038364
1772526353794777900,5.49077783203125,-0.004034426063299179,0.018843544647097588,0.009371391497552395
1772526353804759800,5.500759765625,0.004149355925619602,0.020102400332689285,0.014418444596230984
1772526353814742800,5.51074267578125,0.003461994230747223,0.02662608027458191,0.024454301223158836
1772526353824725000,5.52072509765625,-0.0011571170762181282,0.023725777864456177,0.030614890158176422
1772526353834706700,5.530706787109375,-0.002810673788189888,0.020208805799484253,0.037727925926446915
1772526353844690000,5.54068994140625,-0.0007237587124109268,0.008486436679959297,0.04387814551591873
1772526353854671600,5.550671630859375,-0.0008577154949307442,0.00175210100132972,0.0349552258849144
1772526353864653800,5.56065380859375,0.000993903260678053,-0.008076689206063747,0.02681615948677063
1772526353874636800,5.57063671875,0.004772129934281111,-0.01618521474301815,0.012034283019602299
1772526353884618800,5.58061865234375,-0.00000965828076004982,-0.008358601480722427,0.0005641365423798561
1772526353894601000,5.59060107421875,0.001081705093383789,0.008251268416643143,-0.003920094575732946
1772526353904584000,5.600583984375,0.002026067581027746,0.029062559828162193,-0.00600242055952549
1772526353914566000,5.61056591796875,-0.00045386841520667076,0.035387299954891205,-0.005294818431138992
1772526353924547800,5.6205478515625,-0.001946744043380022,0.024959351867437363,-0.009035050868988037
1772526353934530800,5.63053076171875,-0.0029310486279428005,0.00023270118981599808,-0.014567235484719276
1772526353944512800,5.6405126953125,0.003060797695070505,-0.025140032172203064,-0.02223101444542408
1772526353954496000,5.65049609375,0.006318109575659037,-0.037246763706207275,-0.027313390746712685
1772526353964477700,5.660477783203125,0.008164998143911362,-0.05091523006558418,-0.02889743633568287
1772526353974460000,5.6704599609375,0.013252167031168938,-0.049365803599357605,-0.02986815758049488
1772526353984442600,5.680442626953125,0.013746250420808792,-0.05617595836520195,-0.034319184720516205
1772526353994424800,5.6904248046875,0.01661926880478859,-0.06327807903289795,-0.044558506458997726
1772526354004407000,5.700406982421875,0.023020971566438675,-0.06955410540103912,-0.06046529859304428
1772526354014389800,5.7103896484375,0.028031710535287857,-0.0721496194601059,-0.08305583149194717
1772526354024372000,5.7203720703125,0.029544074088335037,-0.08079369366168976,-0.09176508337259293
1772526354034353700,5.730353759765625,0.02865031734108925,-0.10899683088064194,-0.09341464191675186
1772526354044337000,5.7403369140625,0.05669992417097092,-0.10441257804632187,-0.08380932360887527
1772526354054318800,5.75031884765625,0.08247772604227066,-0.08846903592348099,-0.07056968659162521
1772526354064300800,5.76030078125,0.08603093028068542,-0.06934002041816711,-0.059404656291007996
1772526354074283800,5.77028369140625,0.08063163608312607,-0.0678798034787178,-0.05468820035457611
1772526354084265700,5.780265625,0.06969358772039413,-0.039958275854587555,-0.053362295031547546
1772526354094248000,5.790248046875,0.05580892786383629,-0.011993487365543842,-0.05841484293341637
1772526354104231000,5.80023095703125,0.03723137453198433,0.020832976326346397,-0.05277729406952858
1772526354114212600,5.810212646484375,0.026668747887015343,0.037534188479185104,-0.04297339916229248
1772526354124194300,5.8201943359375,0.018767209723591805,0.031032416969537735,-0.029363930225372314
1772526354134177500,5.830177490234375,0.01609739102423191,0.023523101583123207,-0.005490824580192566
1772526354144159500,5.840159423828125,0.018164394423365593,0.011967958882451057,0.01995319128036499
1772526354154141400,5.850141357421875,0.022922929376363754,0.007860032841563225,0.05090418457984924
1772526354164124400,5.86012451171875,0.025051049888134003,0.012570859864354134,0.07628810405731201
1772526354174106400,5.8701064453125,0.029986154288053513,0.006120683625340462,0.09239836782217026
1772526354184088600,5.880088623046875,0.029136331751942635,0.005683884955942631,0.0989563912153244
1772526354194071600,5.890071533203125,0.0288029033690691,0.0141370240598917,0.09622453153133392
1772526354204053500,5.900053466796875,0.029752027243375778,0.017501289024949074,0.08202109485864639
1772526354214035500,5.910035400390625,0.02766117826104164,0.0223543681204319,0.06125456467270851
1772526354224018400,5.920018310546875,0.0200460497289896,0.02253342606127262,0.038210585713386536
1772526354234000400,5.93000048828125,0.0036841207183897495,0.031879790127277374,0.017244849354028702
1772526354243982600,5.939982666015625,-0.033973488956689835,0.058927472680807114,0.003369777463376522
1772526354253965300,5.94996533203125,-0.08270054310560226,0.0863572359085083,-0.006076987367123365
1772526354263947500,5.959947509765625,-0.1263657659292221,0.09619726240634918,-0.018404489383101463
1772526354273929500,5.969929443359375,-0.15035444498062134,0.09962768107652664,-0.028804132714867592
1772526354283912400,5.979912353515625,-0.15435051918029785,0.09607872366905212,-0.03930870443582535
1772526354293894700,5.989894775390625,-0.14822471141815186,0.06840262562036514,-0.03353497385978699
1772526354303877400,5.99987744140625,-0.1323883980512619,0.06445792317390442,-0.014606380835175514
1772526354313859600,6.009859619140625,-0.1140674501657486,0.05596163868904114,0.00004819594323635101
1772526354323841300,6.01984130859375,-0.09559237957000732,0.03711860254406929,0.012991777621209621
1772526354333824500,6.029824462890625,-0.07813374698162079,0.005332443863153458,0.016093295067548752
1772526354343806500,6.039806396484375,-0.0648052915930748,-0.012186151929199696,0.015332525596022606
1772526354353788400,6.049788330078125,-0.05579208582639694,-0.009180775843560696,0.01204858161509037
1772526354363771400,6.059771484375,-0.046081237494945526,0.00021621398627758026,0.0064115626737475395
1772526354373753600,6.069753662109375,-0.042695026844739914,0.016076402738690376,0.0029278816655278206
1772526354383735300,6.0797353515625,-0.033375028520822525,0.02939886599779129,0.0032229595817625523
1772526354393718500,6.089718505859375,-0.020402561873197556,0.031228957697749138,0.0007385755889117718
1772526354403700200,6.0997001953125,-0.00935428962111473,0.017685677856206894,-0.0006275284104049206
1772526354413682400,6.109682373046875,0.0031575076282024384,0.0018092439277097583,0.0027751922607421875
1772526354423665400,6.11966552734375,0.015663383528590202,-0.012277602218091488,0.011722428724169731
1772526354433647400,6.1296474609375,0.02450188249349594,-0.028282398357987404,0.02237613871693611
1772526354443629600,6.139629638671875,0.03026300109922886,-0.03218254819512367,0.030854402109980583
1772526354453612300,6.1496123046875,0.03615311533212662,-0.02379891835153103,0.04516782611608505
1772526354463594500,6.159594482421875,0.0368628092110157,-0.01207777950912714,0.054491639137268066
1772526354473576400,6.169576416015625,0.03763965517282486,0.009945763275027275,0.05606876313686371
1772526354483559400,6.179559326171875,0.03499304875731468,0.02793300896883011,0.05363960564136505
1772526354493541400,6.189541259765625,0.04110740125179291,0.03983787074685097,0.042098529636859894
1772526354503523300,6.1995234375,0.040835849940776825,0.048000916838645935,0.024549543857574463
1772526354513506300,6.20950634765625,0.047985903918743134,0.04251240938901901,0.016244210302829742
1772526354523488500,6.219488525390625,0.0523739717900753,0.02078542858362198,0.00526586826890707
1772526354533470500,6.229470458984375,0.0515180304646492,-0.0017326630186289549,0.003242664970457554
1772526354543453400,6.239453369140625,0.051340438425540924,-0.014203514903783798,0.006224596872925758
1772526354553435600,6.249435546875,0.05043816193938255,-0.024597033858299255,0.015390397980809212
1772526354563417300,6.259417236328125,0.04712953791022301,-0.02463201805949211,0.025132419541478157
1772526354573400600,6.269400634765625,0.04233798012137413,-0.019766423851251602,0.032015360891819
1772526354583382300,6.27938232421875,0.03739462047815323,-0.007851951755583286,0.03223506733775139
1772526354593364500,6.289364501953125,0.035092584788799286,-0.0062772249802947044,0.02074992097914219
1772526354603347500,6.299347412109375,0.03106771595776081,0.002057787496596575,0.008228275924921036
1772526354613329400,6.309329345703125,0.03443475440144539,0.005871433764696121,-0.0025934791192412376
1772526354623311600,6.3193115234375,0.03397964686155319,0.0028861593455076218,-0.008193845860660076
1772526354633294300,6.32929443359375,0.030932189896702766,0.004328261129558086,-0.0068436237052083015
1772526354643276500,6.339276611328125,0.02948075905442238,0.009403938427567482,-0.0038808556273579597
1772526354653258500,6.349258544921875,0.02629881352186203,0.010819142684340477,-0.0017979973927140236
1772526354663241500,6.359241455078125,0.02501918002963066,0.005373039282858372,0.0022071292623877525
1772526354673223400,6.369223388671875,0.024198926985263824,-0.0018329417798668146,0.004087054170668125
1772526354683206700,6.37920654296875,0.02234896831214428,-0.01131040882319212,0.009876595810055733
1772526354693188400,6.389188232421875,0.014357620850205421,-0.017574697732925415,0.013339504599571228
1772526354703170600,6.399170654296875,0.012528745457530022,-0.011279396712779999,0.020778600126504898
1772526354713153300,6.4091533203125,0.005484151188284159,-0.000993203604593873,0.02302337810397148
1772526354723135500,6.419135498046875,-0.0010760948061943054,0.004464530386030674,0.021273767575621605
1772526354733117400,6.429117431640625,-0.005428499076515436,0.004690366797149181,0.015379659831523895
1772526354743100400,6.439100341796875,-0.006541786715388298,0.017908530309796333,0.015222354792058468
1772526354753082600,6.44908251953125,-0.012684900313615799,0.024666035547852516,0.01713237538933754
1772526354763064300,6.459064208984375,-0.016207728534936905,0.02415311150252819,0.013267861679196358
1772526354773047600,6.469047607421875,-0.02130075916647911,0.006630308926105499,0.008730899542570114
1772526354783029500,6.479029541015625,-0.026452023535966873,-0.01267477497458458,0.004002635832875967
1772526354793011500,6.489011474609375,-0.030425727367401123,-0.02525954321026802,0.0038785324431955814
1772526354802994400,6.498994384765625,-0.032287001609802246,-0.02816847153007984,0.005177087616175413
1772526354812976400,6.508976318359375,-0.03086513839662075,-0.017969628795981407,0.010354273021221161
1772526354822958600,6.51895849609375,-0.028787074610590935,-0.004694835748523474,0.012736470438539982
1772526354832941600,6.528941650390625,-0.02772447280585766,0.014938786625862122,0.006822122260928154
1772526354842923500,6.538923583984375,-0.021397046744823456,0.021450074389576912,-0.004967754706740379
1772526354852905500,6.548905517578125,-0.01979728601872921,0.022615740075707436,-0.020347243174910545
1772526354862888400,6.558888427734375,-0.020837437361478806,0.01274084486067295,-0.0348159596323967
1772526354872870400,6.568870361328125,-0.03048580326139927,-0.0005432683974504471,-0.04340864717960358
1772526354882852600,6.5788525390625,-0.03635932505130768,-0.0067155263386666775,-0.054865654557943344
1772526354892835300,6.58883544921875,-0.036821912974119186,-0.0033162678591907024,-0.05277640372514725
1772526354902817500,6.598817626953125,-0.028500158339738846,-0.005050176754593849,-0.040325507521629333
1772526354912799200,6.60879931640625,-0.022730154916644096,0.003378994530066848,-0.026546044275164604
1772526354922782500,6.618782470703125,-0.01155164372175932,0.016300927847623825,-0.014105260372161865
1772526354932764400,6.628764404296875,-0.00006463145837187767,0.029772527515888214,-0.009436206892132759
1772526354942746400,6.638746337890625,0.006403470411896706,0.04227595031261444,-0.008493800647556782
1772526354952729300,6.648729248046875,0.006113718263804913,0.043626975268125534,-0.005572579801082611
1772526354962711300,6.658711181640625,0.0021443688310682774,0.02127765119075775,0.0041678426787257195
1772526354972693500,6.668693603515625,-0.004545758478343487,0.004917585756629705,0.007416632492095232
1772526354982676500,6.678676513671875,-0.002428345149382949,0.011011081747710705,0.0014443122781813145
1772526354992658400,6.688658447265625,0.002921679522842169,0.03614572808146477,-0.018844181671738625
1772526355002640400,6.698640380859375,0.004032540135085583,0.058856405317783356,-0.05435724928975105
1772526355012623600,6.70862353515625,-0.0032655864488333464,0.07979683578014374,-0.09731697291135788
1772526355022605300,6.718605224609375,-0.009699256159365177,0.10031194984912872,-0.1315755993127823
1772526355032587500,6.72858740234375,-0.03236808255314827,0.10124138742685318,-0.1530822217464447
1772526355042570200,6.7385703125,-0.057061176747083664,0.08428157866001129,-0.1835394650697708
1772526355052552400,6.748552490234375,-0.06429189443588257,0.061892807483673096,-0.22720201313495636
1772526355062534400,6.758534423828125,-0.0519539900124073,0.062409237027168274,-0.28133341670036316
1772526355072517400,6.768517333984375,-0.0438888743519783,0.0035776114091277122,-0.3176110088825226
1772526355082499600,6.77849951171875,-0.05796608328819275,-0.035535190254449844,-0.30702173709869385
1772526355092481300,6.788481201171875,-0.08773516118526459,-0.0712529718875885,-0.24950650334358215
1772526355102464500,6.798464599609375,-0.09550493955612183,-0.06400839984416962,-0.18225184082984924
1772526355112446200,6.8084462890625,-0.08647149801254272,-0.006030848249793053,-0.11022930592298508
1772526355122429400,6.818429443359375,-0.08601941168308258,0.026165377348661423,-0.053132105618715286
1772526355132411100,6.8284111328125,-0.0911683738231659,0.011896426789462566,-0.015045440755784512
1772526355142393300,6.838393310546875,-0.09972768276929855,-0.03144874423742294,0.02051353082060814
1772526355152376300,6.848376220703125,-0.09952554851770401,-0.06650526821613312,0.05023600906133652
1772526355162358300,6.858358154296875,-0.08573027700185776,-0.05922849476337433,0.07269701361656189
1772526355172340500,6.868340576171875,-0.07231194525957108,-0.028857804834842682,0.08415473252534866
1772526355182323200,6.8783232421875,-0.05888967961072922,-0.008444780483841896,0.0819675624370575
1772526355192305400,6.888305419921875,-0.04853717237710953,-0.0020872822497040033,0.06918385624885559
1772526355202287400,6.898287353515625,-0.04002004489302635,0.010484538972377777,0.05015895143151283
1772526355212270300,6.908270263671875,-0.04241928830742836,0.025832336395978928,0.02401762641966343
1772526355222252300,6.918252197265625,-0.04302612319588661,0.01850752718746662,0.0040092067793011665
1772526355232234200,6.928234130859375,-0.03928917646408081,0.004917149432003498,-0.0028931740671396255
1772526355242217200,6.93821728515625,-0.04022198170423508,0.0005170446820557117,0.00605442188680172
1772526355252199400,6.948199462890625,-0.030656971037387848,0.004513916559517384,0.020810730755329132
1772526355262181400,6.958181396484375,-0.022845670580863953,0.010567216202616692,0.03191931173205376
1772526355272164400,6.968164306640625,-0.01760163903236389,0.010440715588629246,0.031971774995326996
1772526355282146300,6.978146240234375,-0.020969389006495476,0.0011685348581522703,0.01951502077281475
1772526355292128300,6.988128173828125,-0.020912930369377136,-0.007955721579492092,-0.010314514860510826
1772526355302111500,6.998111572265625,-0.026147373020648956,-0.020566053688526154,-0.03894003480672836
1772526355312093200,7.00809326171875,-0.03027181141078472,-0.03999488055706024,-0.07765280455350876
1772526355322075400,7.018075439453125,-0.039219632744789124,-0.05635882169008255,-0.11397655308246613
1772526355332058400,7.028058349609375,-0.041492901742458344,-0.05847177654504776,-0.15734107792377472
1772526355342040300,7.038040283203125,-0.04075293615460396,-0.035647470504045486,-0.19392375648021698
1772526355352022500,7.0480224609375,-0.03774036839604378,-0.01886822283267975,-0.22705720365047455
1772526355362005200,7.058005126953125,-0.04423960670828819,-0.04883897304534912,-0.2517092227935791
1772526355371987500,7.067987548828125,-0.05191323906183243,-0.08807825297117233,-0.2550131380558014
1772526355381969200,7.07796923828125,-0.050189871340990067,-0.10731618106365204,-0.23093396425247192
1772526355391952400,7.087952392578125,-0.04528139904141426,-0.09295135736465454,-0.17474766075611115
1772526355401934300,7.097934326171875,-0.03746383637189865,-0.05710010230541229,-0.11897770315408707
1772526355411916300,7.107916259765625,-0.027007468044757843,-0.029443977400660515,-0.07594767957925797
1772526355421899300,7.117899169921875,-0.012489158660173416,-0.023978199809789658,-0.045070547610521317
1772526355431881500,7.127881591796875,-0.0045593297109007835,-0.030341820791363716,-0.03113102912902832
1772526355441863400,7.137863525390625,-0.003451833501458168,-0.04744439572095871,-0.040539614856243134
1772526355451846400,7.147846435546875,0.0012888596393167973,-0.05494944751262665,-0.06367049366235733
1772526355461828400,7.157828369140625,0.004908182192593813,-0.06114964932203293,-0.0905807614326477
1772526355471810300,7.167810302734375,0.019639723002910614,-0.05647606775164604,-0.10491149872541428
1772526355481793300,7.177793212890625,0.033031340688467026,-0.029360998421907425,-0.10322589427232742
1772526355491775200,7.187775146484375,0.04658763110637665,-0.00031443359330296516,-0.08536887168884277
1772526355501757400,7.19775732421875,0.061040449887514114,0.034180156886577606,-0.05734159052371979
1772526355511740200,7.207740234375,0.0712299644947052,0.06646032631397247,-0.023790555074810982
1772526355521722400,7.217722412109375,0.0758194699883461,0.07474741339683533,0.004757379647344351
1772526355531704300,7.227704345703125,0.07499787956476212,0.06827566772699356,0.022783517837524414
1772526355541687300,7.237687255859375,0.08053157478570938,0.05401582270860672,0.043046802282333374
1772526355551669200,7.247669189453125,0.08748988062143326,0.04300418496131897,0.06832952052354813
1772526355561651200,7.257651123046875,0.08897514641284943,0.03147786855697632,0.09140074253082275
1772526355571634200,7.26763427734375,0.08963774144649506,0.02565300278365612,0.10499857366085052
1772526355581616400,7.277616455078125,0.09602470695972443,0.02306688018143177,0.10237279534339905
1772526355591598300,7.287598388671875,0.10428237169981003,0.02287300117313862,0.09585470706224442
1772526355601581300,7.297581298828125,0.1029048040509224,0.02976115047931671,0.08727044612169266
1772526355611563300,7.307563232421875,0.08973973244428635,0.03500118479132652,0.06783203780651093
1772526355621545200,7.317545166015625,0.0826345682144165,0.0393035002052784,0.05470328405499458
1772526355631528400,7.327528564453125,0.06702551990747452,0.03209245949983597,0.04208975285291672
1772526355641510100,7.33751025390625,0.051116444170475006,0.031178241595625877,0.03290334716439247
1772526355651492400,7.347492431640625,0.037510886788368225,0.029375813901424408,0.023362042382359505
1772526355661475300,7.357475341796875,0.027090732008218765,0.028078565374016762,0.0069955866783857346
1772526355671457300,7.367457275390625,0.01731639727950096,0.03132256120443344,-0.007536217570304871
1772526355681439500,7.377439453125,0.008682748302817345,0.039584483951330185,-0.022050784900784492
1772526355691422200,7.387422119140625,0.0029982305131852627,0.04721364378929138,-0.036996711045503616
1772526355701404400,7.397404296875,0.002526010386645794,0.04983636736869812,-0.04729215428233147
1772526355711387400,7.407387451171875,0.0036991331726312637,0.04885605722665787,-0.04412885382771492
1772526355721369300,7.417369384765625,-0.00048807868734002113,0.04395037516951561,-0.04187776893377304
1772526355731351300,7.427351318359375,0.0009300545789301395,0.04087522253394127,-0.03163418546319008
1772526355741334500,7.43733447265625,0.012659676373004913,0.03819978982210159,-0.02508440613746643
1772526355751316200,7.447316162109375,0.018317563459277153,0.04686438664793968,-0.011746495962142944
1772526355761298400,7.45729833984375,0.009999899193644524,0.045238930732011795,-0.017420008778572083
1772526355771280400,7.4672802734375,-0.00007031112909317017,0.03987239673733711,-0.03532310947775841
1772526355781263400,7.477263427734375,-0.005589204374700785,0.044954657554626465,-0.052981190383434296
1772526355791245300,7.487245361328125,-0.0069841681979596615,0.047172535210847855,-0.058381546288728714
1772526355801228300,7.497228271484375,-0.012450436130166054,0.04917056858539581,-0.0524744912981987
1772526355811210500,7.50721044921875,-0.011158270761370659,0.061580631881952286,-0.040965378284454346
1772526355821192200,7.517192138671875,0.002377686556428671,0.07341499626636505,-0.023700011894106865
1772526355831175400,7.527175537109375,0.010298727080225945,0.07895064353942871,-0.0062235500663518906
1772526355841157400,7.537157470703125,0.014953823760151863,0.07995466142892838,0.006155446171760559
1772526355851139300,7.547139404296875,0.01711311563849449,0.07986331731081009,0.005518151912838221
1772526355861122300,7.557122314453125,0.01992727257311344,0.07772903889417648,0.015896759927272797
1772526355871104300,7.567104248046875,0.01053217239677906,0.040926285088062286,0.018359649926424026
1772526355881086500,7.57708642578125,0.00992186926305294,0.020216137170791626,0.022946855053305626
1772526355891069400,7.5870693359375,0.013944307342171669,0.01602698490023613,0.035573165863752365
1772526355901051400,7.597051513671875,0.014104388654232025,0.0272509828209877,0.052297547459602356
1772526355911033300,7.607033447265625,0.014337414875626564,0.03993402048945427,0.06527966260910034
1772526355921016300,7.617016357421875,0.014938876032829285,0.03710556775331497,0.06650002300739288
1772526355930998300,7.626998291015625,0.01707286760210991,0.040984462946653366,0.058814674615859985
1772526355940980500,7.63698046875,0.016309112310409546,0.03237598389387131,0.03304431587457657
1772526355950963200,7.646963134765625,0.016001516953110695,0.031020699068903923,-0.004183745011687279
1772526355960945400,7.6569453125,0.017334317788481712,0.04864761233329773,-0.05949670448899269
1772526355970927400,7.66692724609375,0.01659395918250084,0.07028686255216599,-0.11223315447568893
1772526355980910300,7.676910400390625,0.021942324936389923,0.11432456970214844,-0.15279620885849
1772526355990892300,7.686892333984375,0.019058920443058014,0.16405005753040314,-0.1479276865720749
