time,seconds_elapsed,z,y,x
1772526006945535200,0.08553515625,-1.0459498991459608,0.14602321265488863,1.410599203851819
1772526006955518200,0.095518310546875,-1.014352399355173,0.13000789739936588,1.5101218004859982
1772526006965501200,0.105501220703125,-0.8602847041934728,0.16605448555350302,1.6541732746765017
1772526006975484200,0.115484130859375,-0.5767676222980022,0.2256330482035875,1.8452566952854395
1772526006985467100,0.125467041015625,-0.26502339382767676,0.27572189797461033,2.0070802652709183
1772526006995451100,0.135451171875,-0.029428923580050465,0.3179641258984804,2.11538720299378
1772526007005434400,0.145434326171875,0.14222060550153254,0.372298065893352,2.1753844294473526
1772526007015417300,0.155417236328125,0.24424188708364963,0.41513942875415083,2.1626218323774635
1772526007025400000,0.165400146484375,0.2271551432043314,0.5462038494691253,1.9930840347528456
1772526007035384000,0.175384033203125,0.02212473804652691,0.6736585552543402,1.713160885696113
1772526007045367300,0.1853671875,-0.31409283742308614,0.8201850412562489,1.4007447493135927
1772526007055350300,0.195350341796875,-0.7052244908630847,1.034802482187748,1.1402800417035817
1772526007065333200,0.205333251953125,-1.1123474941611289,1.2738444625407457,0.9907806773707271
1772526007075316200,0.215316162109375,-1.4464549456089735,1.5313532429546117,0.916850056502223
1772526007085300200,0.22530029296875,-1.6721031913816928,1.7863249061062931,0.9048546444125473
1772526007095283200,0.235283203125,-1.7628566444963216,2.057433465066552,0.9484094162397086
1772526007105266400,0.245266357421875,-1.7353735942870379,2.3297049303263426,1.0275104985486716
1772526007115249200,0.255249267578125,-1.6174696839183569,2.5509961499333382,1.1150384137455374
1772526007125232000,0.265232177734375,-1.3594897788614033,2.74981104157716,1.1618498492810874
1772526007135216000,0.275216064453125,-0.9697557172596454,2.9055069224625822,1.1930493627302348
1772526007145199400,0.285199462890625,-0.5587824682742357,2.9642876127332447,1.2123893654290585
1772526007155182000,0.29518212890625,-0.18020868311226368,2.9810917402788997,1.2185305715978145
1772526007165165300,0.305165283203125,0.07037994264960289,3.0026605980083345,1.1999058775614946
1772526007175149300,0.3151494140625,0.21996844657063483,2.983612198667228,1.2332130308143794
1772526007185132300,0.32513232421875,0.29251813447475433,2.920017093852162,1.3464311214543878
1772526007195115300,0.335115234375,0.29533552998304363,2.8344094791933894,1.475635447385907
1772526007205098200,0.34509814453125,0.17387480391561985,2.6598110371783372,1.6183495354928075
1772526007215081200,0.355081298828125,0.022961773392558095,2.47004191403836,1.659461005821079
1772526007225065200,0.365065185546875,-0.13074293367564677,2.3567808610394594,1.6007478278286753
1772526007235048200,0.375048095703125,-0.28032091620266436,2.254232340712845,1.6090762418434024
1772526007245031200,0.38503125,-0.4093488626539707,2.115567966388166,1.7182389196127652
1772526007255014100,0.39501416015625,-0.5102186361134052,1.9398887433990835,1.8229206525757908
1772526007264997000,0.4049970703125,-0.5555202516078949,1.8219927240759133,1.892098818220198
1772526007274981400,0.4149814453125,-0.5514700994342565,1.7409052171900867,1.8881857364296912
1772526007284964400,0.42496435546875,-0.5439063861817122,1.6529685750618577,1.8462471676275134
1772526007294947000,0.434947021484375,-0.5593880329519509,1.5793705471485853,1.754735589621961
1772526007304930300,0.444930419921875,-0.5725631563454866,1.5495935407832264,1.6209692164719103
1772526007314914300,0.454914306640625,-0.5774520974308252,1.5212027280792593,1.508752411828935
1772526007324897300,0.464897216796875,-0.6460515864044427,1.5131962394952774,1.4146090240150688
1772526007334880300,0.47488037109375,-0.8138859411120414,1.4934458293646573,1.3770106763742864
1772526007344863200,0.48486328125,-1.044407345879078,1.5388669795855878,1.4573346515417098
1772526007354846200,0.49484619140625,-1.2429513116270303,1.7035209506914017,1.5914621130891142
1772526007364831000,0.5048310546875,-1.3520365402460097,1.9270535194844007,1.7555952751912176
1772526007374814000,0.51481396484375,-1.365844700846076,2.128035233773291,1.9565417720362543
1772526007384797200,0.524797119140625,-1.3554384576439857,2.263714162546396,2.1531106383189558
1772526007394780000,0.53477978515625,-1.2927677741974593,2.3691090122148393,2.3241366286747156
1772526007404763000,0.544762939453125,-1.2301818464249372,2.506213297615945,2.4634388625115156
1772526007414747000,0.554746826171875,-1.2171616213321685,2.6011077960580584,2.595613874816894
1772526007424730000,0.564730224609375,-1.2311112362295389,2.6739959221363065,2.701859788356721
1772526007434713000,0.574713134765625,-1.224230829066038,2.7187390269652005,2.783593776452541
1772526007444696000,0.584696044921875,-1.1931933012455702,2.7667396722853184,2.851168598553538
1772526007454680000,0.59468017578125,-1.1140122125029563,2.822419473931193,2.8730294249668717
1772526007464663000,0.6046630859375,-1.0017530300229787,2.811425201708078,2.9459102445214986
1772526007474646000,0.61464599609375,-0.9324643897414207,2.7474378827050328,3.005854425613582
1772526007484629000,0.62462890625,-0.8985463380485773,2.740577641546726,3.0069518654614686
1772526007494612000,0.634612060546875,-0.9200766173332929,2.774958926837146,2.9656404886469243
1772526007504596000,0.644595947265625,-1.0062649544894695,2.8126293168008325,2.9420696434453126
1772526007514579000,0.654578857421875,-1.1269815841913222,2.846969101037085,2.9256887097477913
1772526007524562200,0.664562255859375,-1.276329849615693,2.9391178079023956,2.849522292651236
1772526007534545000,0.674544921875,-1.4018278683751821,2.955564500312507,2.833449401989579
1772526007544528100,0.684528076171875,-1.4551082076638937,2.9065809814348813,2.8468574573561547
1772526007554512100,0.69451220703125,-1.4414970309406518,2.989839110358059,2.7386376133948565
1772526007564495000,0.7044951171875,-1.403745100173354,3.0790505947276947,2.5666914394542575
1772526007574477800,0.714477783203125,-1.356653678652644,3.1082015781491994,2.4131989138320087
1772526007584461000,0.7244609375,-1.3334551738947629,3.097743604759872,2.296488012640178
1772526007594445000,0.734445068359375,-1.2459352958738803,3.1010598897010087,2.092341550710052
1772526007604428000,0.744427978515625,-1.1440402710199356,3.066676558583975,1.8771897106409072
1772526007614411000,0.754410888671875,-1.066865261402726,2.992403992410004,1.6678117777980863
1772526007624394000,0.76439404296875,-0.9903203663825988,2.9035183789938688,1.4391986908704042
1772526007634377000,0.774376953125,-0.9423679441183805,2.8323186443939803,1.197642243478447
1772526007644361000,0.78436083984375,-0.9072323333293199,2.7205668269142507,0.9645422934602945
1772526007654344200,0.79434423828125,-0.8670622355043888,2.545924838018417,0.7663054939653724
1772526007664327000,0.804326904296875,-0.8128267874479294,2.368475098225474,0.5519357807172462
1772526007674310000,0.814309814453125,-0.737680653309822,2.192262499012053,0.3199502947470173
1772526007684293000,0.824293212890625,-0.6334229909777641,1.9824875296756623,0.09818184954971075
1772526007694277000,0.834277099609375,-0.4637041376978159,1.777665798832476,-0.10530424877554177
1772526007704260000,0.844260009765625,-0.23825696745514868,1.5984958111181855,-0.2931147851936519
1772526007714242800,0.854242919921875,-0.06321721141338348,1.4307275073841212,-0.43139629768058657
1772526007724226000,0.86422607421875,0.1497515855282545,1.344555829101801,-0.6403573202855884
1772526007734210000,0.8742099609375,0.3001040595591068,1.2650254885300993,-0.8054605695288628
1772526007744193000,0.884193115234375,0.38148178156316276,1.1627017168700695,-0.9372123149208724
1772526007754176300,0.89417626953125,0.37130934711694713,1.0717129936948417,-1.0455966287288814
1772526007764159000,0.904158935546875,0.31690847936570643,1.0288386053472758,-1.1592848210986704
1772526007774142000,0.914141845703125,0.25498072324097154,1.005702644431591,-1.2613921004638076
1772526007784126000,0.9241259765625,0.11210369965732098,0.9480568034097552,-1.3178111761696636
1772526007794109200,0.934109130859375,-0.08636720085442065,0.8587915430262685,-1.332376000355929
1772526007804092000,0.944091796875,-0.27160160317420956,0.7716139025717973,-1.3434620425157249
1772526007814075000,0.954074951171875,-0.4202764993816614,0.6793623198539018,-1.3992879746340214
1772526007824058000,0.96405810546875,-0.5395400076657534,0.6749249219283461,-1.5839695653766392
1772526007834042000,0.9740419921875,-0.6573562397509813,0.7165943184003234,-1.8383795029923318
1772526007844025000,0.984025146484375,-0.7698813796907663,0.7452157249897718,-2.0965135756976903
1772526007854008000,0.994008056640625,-0.8783388318002223,0.6840949013337493,-2.240890920841694
1772526007863991000,1.003990966796875,-0.9571329670518636,0.6135784728229046,-2.2941109082452953
1772526007873974000,1.01397412109375,-1.0084066426932812,0.6998778691381216,-2.3239459284082056
1772526007883958000,1.0239580078125,-1.0157610971093176,0.9194453336924314,-2.3301506282672286
1772526007893941000,1.03394091796875,-0.917182064935565,1.0972858263686298,-2.2357629103034733
1772526007903924000,1.043924072265625,-0.7491396204352379,1.1865499177083372,-2.0505495507717133
1772526007913907000,1.053906982421875,-0.5172036726951599,1.29669196190387,-1.8222632115803659
1772526007923891000,1.063890869140625,-0.21657003630399702,1.4432935589686036,-1.5889266032621263
1772526007933874200,1.073874267578125,0.1070703816652298,1.5527268703728914,-1.3397732710003851
1772526007943857000,1.08385693359375,0.39901568468809123,1.5545137537896632,-1.0924791567392647
1772526007953840000,1.093840087890625,0.5827887822836637,1.4477338795036077,-0.8703666838772595
1772526007963823000,1.103822998046875,0.6238719033002853,1.3094234331831336,-0.7528611251763999
1772526007973807000,1.11380712890625,0.6356769073843955,1.130316573832929,-0.7495303733184934
1772526007983789800,1.123789794921875,0.6210217745661735,0.9271376417607069,-0.8078940072208642
1772526007993773000,1.13377294921875,0.604985416522622,0.7057455921277404,-0.9081276747338474
1772526008003756000,1.143756103515625,0.5698761092185973,0.45520606620460746,-1.0222294163405894
1772526008013739000,1.153739013671875,0.5578513249039649,0.24390724830180405,-1.102279981394112
1772526008023723000,1.163722900390625,0.5328700283825397,0.1108300264596939,-1.2244890416108072
1772526008033706000,1.1737060546875,0.4102338287949562,0.004498188202083111,-1.3237258070409297
1772526008043689000,1.18368896484375,0.1298047760426998,-0.09320201531052588,-1.3763153875865042
1772526008053672200,1.193672119140625,-0.24241116452515124,-0.12909692003428935,-1.4692418008260428
1772526008063655200,1.2036552734375,-0.5839484737128019,-0.1108893554314971,-1.5336492449373005
1772526008073639000,1.213638916015625,-0.8565127844393253,-0.10150134936124086,-1.5492751224838197
1772526008083622000,1.223621826171875,-1.0154127220630644,-0.12337152812480925,-1.5220888632640242
1772526008093605000,1.233605224609375,-1.1068471431791782,-0.1529918826237321,-1.4875813212454319
1772526008103588000,1.243588134765625,-1.094883149141073,-0.18693916041105985,-1.4547899354949592
1772526008113570800,1.25357080078125,-0.9396545935064554,-0.23134265802204607,-1.4640505157932637
1772526008123555000,1.26355517578125,-0.6785340523362159,-0.323479674449563,-1.4781908309571443
1772526008133538000,1.2735380859375,-0.38303368718028064,-0.47367388917878267,-1.4936805149033665
1772526008143521000,1.28352099609375,-0.13427695302069187,-0.667294427049905,-1.5067320119172334
1772526008153504300,1.293504150390625,0.07266308515071869,-0.8287871576458216,-1.5594038639187813
1772526008163487000,1.303487060546875,0.28123978461325166,-0.927261414270848,-1.6005131422899663
1772526008173471000,1.313470947265625,0.47754795413315293,-0.9821939046807586,-1.5973355351671576
1772526008183454000,1.323453857421875,0.6143517952829599,-1.0546046225056052,-1.5591937282994388
1772526008193437200,1.333437255859375,0.6796849759370088,-1.1328136513456701,-1.492371039739996
1772526008203420000,1.343419921875,0.6672264763802289,-1.165008970899135,-1.4478288643106818
1772526008213404000,1.35340380859375,0.5735521673828363,-1.1552614838667212,-1.4007082166954874
1772526008223387000,1.363386962890625,0.4771235912412405,-1.167651594362408,-1.3369938694149255
1772526008233370000,1.3733701171875,0.37768414284586904,-1.128317216709256,-1.3149866202682257
1772526008243353000,1.38335302734375,0.3090741324782371,-1.042592697672546,-1.2915167512230574
1772526008253336000,1.393336181640625,0.19719313566088675,-0.9703951842069626,-1.2415610263124108
1772526008263320000,1.403320068359375,0.042806291547417635,-0.8863707470864057,-1.1839726145662366
1772526008273303000,1.413302978515625,-0.10881985568106174,-0.8182615258477628,-1.1267427339341491
1772526008283286000,1.4232861328125,-0.2637058814883232,-0.76005527446419,-1.0726372689329087
1772526008293269000,1.43326904296875,-0.3662982409566641,-0.7155708205714821,-1.0250022420547902
1772526008303252000,1.443251953125,-0.4005763581335544,-0.6783405755907297,-0.9874317322690039
1772526008313236000,1.453236083984375,-0.3524029865950346,-0.6649917030654847,-0.9691579705622047
1772526008323219000,1.463218994140625,-0.22064532291889188,-0.668218702287972,-1.0063847814768552
1772526008333202200,1.4732021484375,-0.011373042407631873,-0.7045069902434945,-1.0844736910685897
1772526008343185000,1.483184814453125,0.19643793337941168,-0.7967775699228048,-1.1269874294102191
1772526008353168100,1.493168212890625,0.3756540983229875,-0.8972693038500845,-1.1382746201653033
1772526008363151600,1.503151611328125,0.5142576823711394,-0.9468073878705501,-1.1095774449259042
1772526008373134600,1.513134521484375,0.5906079316020012,-0.9482954344712197,-1.0211664632841944
1772526008383117300,1.523117431640625,0.6326409006893634,-0.9292791838340461,-0.9019281625065952
1772526008393100500,1.5331005859375,0.6289104819893837,-0.9252699481926858,-0.7800958266478032
1772526008403083500,1.54308349609375,0.6261100376158952,-0.9244508868947625,-0.6837098475389182
1772526008413067500,1.553067626953125,0.5754752443999052,-0.9394079252690076,-0.6284254749514162
1772526008423050800,1.56305078125,0.5057873756676912,-0.9882952902957797,-0.5765888316649943
1772526008433033500,1.573033447265625,0.44897827773094173,-1.0352850050076843,-0.5062001942522824
1772526008443016400,1.583016357421875,0.4038140248805284,-1.0718477259904144,-0.41654703052975234
1772526008452999700,1.592999755859375,0.36100364167988297,-1.1180556426748633,-0.3046832040429115
1772526008462983700,1.602983642578125,0.3524538399994373,-1.1264666204065084,-0.21176818898022173
1772526008472966400,1.61296630859375,0.31057752277851103,-1.1002201262548565,-0.13277078624144195
1772526008482949400,1.622949462890625,0.12835866888761518,-1.1214067066684366,-0.04122274868302047
1772526008492932600,1.6329326171875,-0.1547147608935833,-1.0840778236187993,0.008962401069328189
1772526008502915600,1.64291552734375,-0.45029637459218497,-1.0009639254719018,-0.02150974795334041
1772526008512899600,1.652899658203125,-0.7447311563432216,-0.9413014839306473,-0.03689955172166228
1772526008522882600,1.662882568359375,-1.050671666970849,-1.0269589290805161,0.07369082076326013
1772526008532865500,1.672865478515625,-1.2597843730062246,-1.1411351972281931,0.08120389980711043
1772526008542848500,1.6828486328125,-1.4086737887471914,-1.0380465786755084,-0.14707776320911944
1772526008552831500,1.69283154296875,-1.6321949593633411,-0.8140748878128826,-0.42921456972733135
1772526008562815500,1.7028154296875,-1.8546429477900266,-0.6844032366305589,-0.4985572052184492
1772526008572798500,1.712798583984375,-1.9811486822873352,-0.6195312437474727,-0.41891105624735353
1772526008582781400,1.722781494140625,-2.0263316398382187,-0.46682212358787656,-0.3269995191387832
1772526008592764700,1.7327646484375,-2.0009043531149624,-0.2657973008096218,-0.22887166479863225
1772526008602747400,1.742747314453125,-1.880474139139056,-0.11695596199408173,-0.11321341446489094
1772526008612731400,1.7527314453125,-1.587944314226508,-0.02000686910971999,-0.02192095910273492
1772526008622714600,1.762714599609375,-1.1445306848853827,0.03104658790975809,0.019720526449009776
1772526008632697600,1.772697509765625,-0.6215647954016924,-0.0014969605594873428,-0.015395722052454947
1772526008642680300,1.782680419921875,-0.17829729653298854,-0.10312105951756238,-0.09730667415037751
1772526008652663600,1.79266357421875,0.1107429326981306,-0.30107933433204886,-0.19061032320447266
1772526008662647600,1.8026474609375,0.23494623547196386,-0.5369064442917705,-0.2766545026496053
1772526008672630500,1.812630615234375,0.267417595487833,-0.7077443647295236,-0.37122378772534426
1772526008682613500,1.822613525390625,0.2554395729243755,-0.8145853215530514,-0.46824426534548397
1772526008692596500,1.832596435546875,0.22315233730375766,-0.8872390543535351,-0.49374710152298207
1772526008702579500,1.842579345703125,0.20811083551645276,-0.8994239976659416,-0.43451808296293015
1772526008712563500,1.8525634765625,0.1250251405507326,-0.8198959951817989,-0.3742440853945911
1772526008722546700,1.862546630859375,0.01661912636756897,-0.626097470395267,-0.34592809149250386
1772526008732529700,1.87252978515625,-0.11181260775625705,-0.3694549514219165,-0.33535072950720785
1772526008742512400,1.882512451171875,-0.2589589792221784,-0.13807751434743404,-0.2821400944538414
1772526008752495600,1.89249560546875,-0.38015550139546395,0.06928513315021992,-0.14129223861023782
1772526008762479600,1.902479736328125,-0.3621013737887144,0.17503478760570287,0.05581438781097531
1772526008772462600,1.912462646484375,-0.23668927974700926,0.27145897983312606,0.27520430384129285
1772526008782445300,1.9224453125,-0.023780688560009002,0.3441317095950246,0.4100013352133333
1772526008792428500,1.932428466796875,0.1843459290474653,0.3746770699843764,0.4486762260444462
1772526008802411500,1.94241162109375,0.330932328543067,0.4016974711179733,0.40983620777949686
1772526008812395500,1.9523955078125,0.4178367050141096,0.3485495260372758,0.3904619374848902
1772526008822378800,1.962378662109375,0.48039691382348537,0.20222002391219138,0.4084957529559731
1772526008832361500,1.972361572265625,0.5110714535504579,0.08149959481805563,0.3763612236790359
1772526008842344400,1.982344482421875,0.45882922513782975,0.058034840339422224,0.2575127259366214
1772526008852327700,1.99232763671875,0.3090805622190237,0.10494535233527422,0.060858519458025694
1772526008862311700,2.002311767578125,0.000990180081129074,0.14980799189060925,-0.12781959357485173
1772526008872294400,2.01229443359375,-0.39843291636407374,0.24050123925060032,-0.3530369005843997
1772526008882277400,2.02227734375,-0.7968284233272075,0.35331016456782816,-0.5559681415058673
1772526008892260600,2.032260498046875,-1.0864116733938456,0.5456090984463692,-0.7147606732323766
1772526008902243600,2.04224365234375,-1.3022586561203002,0.7650356932252645,-0.8293091356933117
1772526008912227600,2.0522275390625,-1.4211965857118367,0.970612626349926,-0.8760088544826954
1772526008922210600,2.06221044921875,-1.4122528162777424,1.121025013874471,-0.8635768045414238
1772526008932193500,2.072193603515625,-1.2664607820302247,1.229337504555285,-0.8160608009330927
1772526008942176500,2.082176513671875,-0.9987596934258938,1.319280810330808,-0.7902940531224012
1772526008952159700,2.09215966796875,-0.5810393082678318,1.3758856178671122,-0.7654056225161999
1772526008962143500,2.1021435546875,-0.018470891714096067,1.369561675542593,-0.774072401639819
1772526008972126500,2.11212646484375,0.5923217497825622,1.2544661005929112,-0.8059485722415148
1772526008982109400,2.122109375,1.1743190894275903,1.1248957178279757,-0.8400096856668591
1772526008992092700,2.1320927734375,1.692451567405462,1.0789511282548307,-0.9256835704948753
1772526009002075400,2.142075439453125,2.199835856875777,1.0599319550082087,-1.0196822160758077
1772526009012059400,2.152059326171875,2.6749031001091,1.0419444628968835,-1.0814292818713933
1772526009022042600,2.162042724609375,3.1696926964223384,1.0179951397716998,-1.1097297859434039
1772526009032025600,2.172025634765625,3.6144717688977717,1.0084215480014682,-1.1086403832715004
1772526009042008600,2.182008544921875,3.9575300040423866,1.012765422424674,-1.1281854070231319
1772526009051991600,2.191991455078125,4.159360736376047,1.01744481241256,-1.0959817580327391
1772526009061975600,2.2019755859375,4.238099926570057,1.0240227294981479,-0.9916178588472306
1772526009071958500,2.21195849609375,4.195001374077797,0.9919996977716684,-0.8251336035743355
1772526009081941500,2.22194140625,4.048352430739999,0.9545999414429068,-0.5446342620648443
1772526009091924500,2.231924560546875,3.8564591550529,0.9380354678720235,-0.23809724684879183
1772526009101907500,2.241907470703125,3.5873096212059257,0.9340463982358574,0.027085429193824527
1772526009111890400,2.251890380859375,3.2158722637951374,0.8525728146418928,0.22720848082676529
1772526009121874700,2.261874755859375,2.7702047180473803,0.7829331689655781,0.390671196321398
1772526009131857700,2.271857666015625,2.204261856624484,0.7492977336063981,0.47858285013884305
1772526009141840400,2.28184033203125,1.5540800385475158,0.7581430111020803,0.5746100058726966
1772526009151823600,2.29182373046875,0.8155611808478832,0.7787503303229808,0.6622812019977719
1772526009161807600,2.3018076171875,-0.04115969338417053,0.7602484589487314,0.8692375337168574
1772526009171790600,2.31179052734375,-0.987880572015047,0.8401669220551848,0.9565805938661098
1772526009181773300,2.321773193359375,-1.9797487523615358,0.874182296642661,1.0489108678434043
1772526009191756500,2.331756591796875,-2.9057588513970374,0.8246183475285768,1.062807218183577
1772526009201739500,2.341739501953125,-3.6158699452579017,0.7707717526592314,0.9734219116169959
1772526009211722500,2.351722412109375,-4.141548016309738,0.6295008490979671,0.8234811601921915
1772526009221706800,2.361706787109375,-4.540126478624344,0.41822468141838903,0.6108191641774028
1772526009231689500,2.371689453125,-4.810011341008543,0.14331439208760857,0.49900867531299586
1772526009241672400,2.38167236328125,-4.888856329664588,-0.2865855295553803,0.5659536020126194
1772526009251655700,2.39165576171875,-4.639387063321471,-0.47382776456624265,0.43133857614398
1772526009261638700,2.401638671875,-4.2575586602777244,-0.3234261906966567,0.13366788121163845
1772526009271622400,2.411622314453125,-3.7604631251096725,-0.25344635328054427,0.01552643576003611
1772526009281605400,2.42160546875,-3.0694986302673817,-0.42272301575094456,0.14472308984175325
1772526009291588600,2.431588623046875,-2.221846613153815,-0.7673053917229176,0.3754599639903754
1772526009301571600,2.441571533203125,-1.400095345494151,-1.0440135242559014,0.4907847445860505
1772526009311554300,2.45155419921875,-0.6608265462100505,-1.1597098415777087,0.331165918103233
1772526009321538600,2.46153857421875,-0.10653963578939438,-1.2927939315520227,0.10672376018464565
1772526009331521500,2.471521484375,0.28836919810175893,-1.4771394222080707,-0.023761326272413133
1772526009341504500,2.48150439453125,0.5529600457310676,-1.6403294582411645,-0.08614121007882058
1772526009351487700,2.49148779296875,0.6322732364207506,-1.7200120667651295,-0.12672098468318582
1772526009361470700,2.501470703125,0.5420972909331322,-1.6802618017874658,-0.13726561344265936
1772526009371453700,2.51145361328125,0.3566495381236076,-1.5609377954877912,-0.06898812296502292
1772526009381437700,2.521437744140625,0.20589549755454062,-1.3681976937130094,0.09082856417745351
1772526009391421000,2.5314208984375,0.12021394087672232,-1.2045121292479335,0.34181678371615704
1772526009401403600,2.541403564453125,0.06126315473616123,-1.042223279838264,0.6196471252121031
1772526009411386600,2.55138671875,0.04558043243587017,-0.846989607682079,0.8396969664558768
1772526009421369900,2.561369873046875,0.016392331874370576,-0.6316388840399683,1.0015480089701712
1772526009431353900,2.571353759765625,-0.05224748910963535,-0.4490294233962893,1.1026602128833531
1772526009441336600,2.581336669921875,-0.1466623873412609,-0.24788477363064884,1.1554072490129619
1772526009451319800,2.59131982421875,-0.29029110607504843,-0.021573095513135195,1.170240880203247
1772526009461302800,2.601302734375,-0.44297816053330896,0.22214169895648955,1.1960827390767632
1772526009471285800,2.61128564453125,-0.5576373898923397,0.4023021590128541,1.305936029458791
1772526009481269800,2.621269775390625,-0.5927390984117984,0.4990592364564538,1.5157944392949343
1772526009491252700,2.631252685546875,-0.4837064767628908,0.5801838604822754,1.6788338148109614
1772526009501235700,2.641235595703125,-0.266576468488574,0.6557338992461562,1.753211010403186
1772526009511218700,2.65121875,-0.026961656683683395,0.7125764610610902,1.7181702382907271
1772526009521202000,2.661201904296875,0.19439269128739833,0.7839666036665439,1.5919272463828325
1772526009531185700,2.671185546875,0.38963527740240095,0.8526442724429071,1.4052088891156016
1772526009541168600,2.681168701171875,0.5092816475242377,0.8460761460989713,1.1997102819241583
1772526009551151900,2.69115185546875,0.5069716170161962,0.8016065975144505,0.9655435063920914
1772526009561134800,2.701134765625,0.32413433896601196,0.7652320925801992,0.6751137955639511
1772526009571117600,2.71111767578125,0.036307577177882196,0.7624176196813582,0.4184615589141846
1772526009581101600,2.7211015625,-0.3025362551420927,0.7830550417795776,0.2788697675462812
1772526009591084800,2.731084716796875,-0.5871183359205723,0.8011258282601833,0.19370368610993027
1772526009601067800,2.74106787109375,-0.761545513021946,0.8907906093552708,0.17563012315034865
1772526009611050800,2.75105078125,-0.7813438539475203,1.0472332169547676,0.18841953516192733
1772526009621033700,2.76103369140625,-0.62604515568614,1.159347145745158,0.259162612035498
1772526009631016700,2.7710166015625,-0.3459346673637628,1.2031181906715034,0.3235490864239633
1772526009641000700,2.781000732421875,0.047023616981506346,1.204668927244842,0.3670034666165709
1772526009650984000,2.79098388671875,0.5028127437710762,1.1472253307968376,0.36110556768439706
1772526009660966700,2.800966552734375,0.9233616303533315,0.9916215121090411,0.2768669763565063
1772526009670949600,2.81094970703125,1.3395283563286065,0.7913438544362783,0.1571115198370069
1772526009680932900,2.820932861328125,1.6764672318100928,0.5898638352364302,0.01686689058355987
1772526009690916900,2.830916748046875,1.9758073212593792,0.40251813985109325,-0.14596176479123532
1772526009700899800,2.84089990234375,2.2714316050559282,0.21421265952289104,-0.29635172128826376
1772526009710882600,2.850882568359375,2.5327029528737066,0.031218729606270788,-0.419774541208893
1772526009720865800,2.86086572265625,2.7101678902357813,-0.20214900450259446,-0.5083022080328315
1772526009730848800,2.870848876953125,2.795612131026387,-0.40189679308235643,-0.5785084746159613
1772526009740832800,2.880832763671875,2.8063094661295414,-0.5640940186858177,-0.6558277880746871
1772526009750815700,2.890815673828125,2.8053093491762873,-0.7014534478917718,-0.782314525610581
1772526009760798700,2.900798828125,2.7553338966518637,-0.8420289165347814,-0.9822270032327621
1772526009770781700,2.91078173828125,2.60119781242907,-1.0446320945456624,-1.2382564318090676
1772526009780765000,2.920764892578125,2.3934715923160312,-1.2867431070804596,-1.4954945785880087
1772526009790747600,2.93074755859375,2.2564117305785416,-1.4661828516468405,-1.8167007551476357
1772526009800731600,2.940731689453125,2.1435773785591126,-1.500037190453708,-2.0910472731158136
1772526009810714600,2.950714599609375,2.034579243701696,-1.5464816923730074,-2.1384972988158464
1772526009820697900,2.96069775390625,1.8917156641215085,-1.570446213067323,-1.9651750142164528
1772526009830680800,2.970680908203125,1.6093723021805286,-1.415346836770326,-1.682097346651554
1772526009840663600,2.98066357421875,1.2726485307544468,-1.121232226884365,-1.3678238919645547
1772526009850647800,2.990647705078125,0.9215776695460081,-0.8482419458307325,-0.9868189341329038
1772526009860630800,3.000630859375,0.5676151785492897,-0.6050653498910367,-0.5183784155629575
1772526009870613800,3.01061376953125,0.27653087626993655,-0.38545375393405557,-0.07724091446027159
1772526009880596700,3.0205966796875,0.07798515695631504,-0.17482669781297444,0.32098595793768764
1772526009890579700,3.030579833984375,-0.08586042037606238,0.027213585618138313,0.6432553798146545
1772526009900563700,3.040563720703125,-0.2484948683530092,0.2049253373481333,0.9003836364783346
1772526009910546700,3.050546630859375,-0.4725871168553829,0.28451924467533823,1.1427451166428626
1772526009920530000,3.060530029296875,-0.7264654318124055,0.31885902891159057,1.2719265000902116
1772526009930512600,3.0705126953125,-0.9084621673852205,0.37571985703557725,1.29183853052333
1772526009940495600,3.08049560546875,-0.9839823955327271,0.44755788953900333,1.197442190861702
1772526009950478800,3.090478759765625,-1.015952820289135,0.4944916362799704,1.0301881202600895
1772526009960462800,3.100462890625,-1.113130753493309,0.42119595231413837,0.922692206659168
1772526009970445600,3.110445556640625,-1.1760527813524007,0.08334609946757554,0.8909306023478507
1772526009980428800,3.1204287109375,-1.1336819586127995,-0.211154148735106,0.6490224189087748
1772526009990411800,3.130411865234375,-1.147491288256645,-0.39024274177625773,0.25499102543927726
1772526010000394800,3.140394775390625,-1.2434393874049186,-0.6043472647495567,-0.13018559205383062
1772526010010378800,3.150378662109375,-1.4030296453803777,-0.7969187319591641,-0.41876762918867166
1772526010020361700,3.16036181640625,-1.5675854168087242,-0.8831015161573886,-0.581822640665248
1772526010030344700,3.1703447265625,-1.6963298701435328,-0.8106707784578203,-0.6476252654619514
1772526010040327700,3.18032763671875,-1.8153794434159993,-0.6329454365938901,-0.590112257039547
1772526010050311000,3.190310791015625,-1.9547323845267295,-0.4798956863030791,-0.4841533437475562
1772526010060293600,3.200293701171875,-1.9947475840508937,-0.37159284023344513,-0.4039413775872439
1772526010070277600,3.210277587890625,-1.9517595061957835,-0.3078374302901327,-0.39131753140091896
1772526010080260900,3.2202607421875,-1.877154639327526,-0.33808424612432714,-0.3886749810028821
1772526010090243800,3.230243896484375,-1.806424568066001,-0.4155548776872456,-0.40414961351044476
1772526010100226600,3.2402265625,-1.771058071130514,-0.44783013060912485,-0.5083510156106203
1772526010110209800,3.250209716796875,-1.7431009736686944,-0.3708110422059893,-0.5724134456764907
1772526010120193800,3.26019384765625,-1.7289748331606387,-0.16980156312733888,-0.5604712981440126
1772526010130176800,3.2701767578125,-1.682707002982497,0.11191402230411768,-0.44503370482362803
1772526010140159700,3.28015966796875,-1.6010913805693388,0.34104791823551056,-0.20144947793111204
1772526010150142700,3.290142822265625,-1.461491186699271,0.4269026395231485,0.09281842282041906
1772526010160125700,3.300125732421875,-1.1692694048225878,0.3810444130592048,0.3050396162651479
1772526010170109700,3.310109619140625,-0.7178583469867705,0.3346206616669893,0.43235958975479005
1772526010180093000,3.320093017578125,-0.2595359023272991,0.3001591507472098,0.49008404897078867
1772526010190075600,3.33007568359375,0.08720248263478278,0.22679902324303983,0.5066637201108039
1772526010200058600,3.34005859375,0.25926760677993294,0.09928864174783229,0.5707140213474631
1772526010210041900,3.350041748046875,0.24628011491298674,0.012830840000510215,0.5800299850948154
1772526010220024800,3.36002490234375,0.09578618658483028,-0.022728695289045572,0.5230136741481721
1772526010230008800,3.3700087890625,-0.1893535280764103,-0.011112930166721343,0.41651451649963855
1772526010239991600,3.379991455078125,-0.5542319653630257,0.10420827023237943,0.2563198628902435
1772526010249974800,3.389974853515625,-0.9417939436227083,0.3104993429757654,0.05299202386662364
1772526010259957800,3.399957763671875,-1.30761170758605,0.48185061976313587,-0.12682386053577066
1772526010269940700,3.409940673828125,-1.626040528386831,0.6473191221222281,-0.31033669975996014
1772526010279924700,3.4199248046875,-1.8411364004850386,0.8010796510308981,-0.48845279450714585
1772526010289907700,3.42990771484375,-1.9057576334774493,0.9076089115567505,-0.6541122893936931
1772526010299890700,3.439890625,-1.8506126693606375,1.0088635926805436,-0.7088752684555948
1772526010309874000,3.4498740234375,-1.6075760664135217,1.1151536376230418,-0.6482303917482495
1772526010319856600,3.459856689453125,-1.1944932779282331,1.2108045073904097,-0.5059302912697196
1772526010329839600,3.469839599609375,-0.6368927129149436,1.2558312514662742,-0.3094432580515742
1772526010339823600,3.47982373046875,-0.04946925656795501,1.247515550802648,-0.17706424760669467
1772526010349806800,3.489806884765625,0.48934594395458697,1.1633619343444703,-0.11836012970358133
1772526010359789800,3.499789794921875,0.9315794236004352,1.0283163350388407,-0.13851006054580212
1772526010369773000,3.50977294921875,1.3259592651814223,0.8866973486922681,-0.22145839286744592
1772526010379756300,3.51975634765625,1.6447732859075068,0.7376072958126664,-0.34137451984137296
1772526010389740000,3.529739990234375,1.9115724572360515,0.5813362453877926,-0.4547219359494745
1772526010399723000,3.539722900390625,2.116266762307286,0.4344013247154653,-0.5410824148021638
1772526010409706200,3.549706298828125,2.3097300637900826,0.3324564693704247,-0.5956611233383416
1772526010419689200,3.559689208984375,2.4791104788959024,0.254530349124968,-0.6159308811679483
1772526010429672000,3.569671875,2.5818805330187082,0.15739713184535503,-0.5595062525041401
1772526010439655200,3.5796552734375,2.675734874758124,0.12552695259302854,-0.5091350786603986
1772526010449639200,3.58963916015625,2.7171768922150132,0.13401421043127773,-0.482408984298259
1772526010459622100,3.5996220703125,2.6985961103856564,0.1505873057000339,-0.44877837124466896
1772526010469605000,3.609605224609375,2.594126266607642,0.12918825157955288,-0.3945500835813582
1772526010479588000,3.619588134765625,2.4100533092826604,0.10849281568378209,-0.40271643890216946
1772526010489571000,3.629571044921875,2.1773767723083495,0.0693836250886321,-0.4167288899026811
1772526010499555000,3.63955517578125,1.8876625893384218,0.034003976410627364,-0.46326545401960606
1772526010509538000,3.6495380859375,1.563576181167364,0.041153117512911556,-0.5473257661711425
1772526010519521000,3.65952099609375,1.2371078462958336,0.0847520207427442,-0.6776793352030217
1772526010529504000,3.66950390625,0.9174696497052908,0.10701046817153692,-0.7542170698300004
1772526010539487200,3.6794873046875,0.5898188270509243,0.10139408959448337,-0.7012148168303072
1772526010549470200,3.68947021484375,0.28205110099613667,0.14504998370856045,-0.6030424657613038
1772526010559454200,3.6994541015625,0.010633037695288658,0.22151114596799015,-0.4700399896558374
1772526010569437000,3.70943701171875,-0.27875439753830433,0.2880766448959708,-0.3120063865378499
1772526010579420200,3.719420166015625,-0.5685743789702653,0.34061917142942544,-0.17046002703607083
1772526010589403100,3.729403076171875,-0.8404138825535774,0.4191802285775542,-0.08191321712024509
1772526010599386000,3.73938623046875,-1.0965011057317255,0.5016327402062714,-0.06055785601101815
1772526010609369000,3.749369140625,-1.344481010299921,0.5393921236276626,-0.030840105552226302
1772526010619353000,3.75935302734375,-1.5245295344144105,0.37868119105920195,0.16803732993379233
1772526010629336000,3.769336181640625,-1.4504180040210484,-0.008984539835900068,0.4650822211179882
1772526010639319300,3.7793193359375,-1.0390513718038796,-0.19107289921492338,0.49410322148427366
1772526010649302000,3.789302001953125,-0.616233371245861,-0.17253946365863085,0.24054200965240596
1772526010659285000,3.799284912109375,-0.37660277734994885,-0.19535013814270497,-0.11167133612204343
1772526010669269000,3.80926904296875,-0.21347499289810656,-0.17669380685910582,-0.4464981513530016
1772526010679252200,3.819252197265625,-0.1139414364784956,-0.10710413780435919,-0.7058984446018934
1772526010689235200,3.829235107421875,-0.27838381066024304,0.037896015413105485,-0.893373319324851
1772526010699218000,3.839218017578125,-0.7466115632623433,0.26806919126436113,-0.984862247107178
1772526010709201200,3.849201171875,-1.2299182270526885,0.5533044752545655,-0.9388017030041664
1772526010719185200,3.85918505859375,-1.5297387934952973,0.9060501378074288,-0.7068135136201977
1772526010729168100,3.869168212890625,-1.776076776075363,1.2376346466489136,-0.3747587934510782
1772526010739151000,3.879151123046875,-2.066741391637921,1.6026783574998378,-0.32396212420426307
1772526010749134000,3.889134033203125,-2.1899135977983475,1.8642710462264716,-0.21840833938075227
1772526010759117000,3.899116943359375,-2.0388439154088496,2.0503359080210326,-0.020985377019364385
1772526010769100300,3.909100341796875,-1.6948434309780596,2.1223291310861705,0.20894578850325196
1772526010779084300,3.919084228515625,-1.2278607100009917,2.0336223813682794,0.5167851550221443
1772526010789067000,3.92906689453125,-0.6948837141126394,1.7783721935361623,0.7962946817766875
1772526010799050000,3.939050048828125,-0.10158639729619026,1.5250548734627662,0.835397807957232
1772526010809033200,3.949033203125,0.5376794744908809,1.2998729300275444,0.6320591552786529
1772526010819016200,3.95901611328125,1.0792886896461247,0.9860030877053737,0.3615568551158532
1772526010828999200,3.968999267578125,1.369073015242815,0.5874667109668255,0.08228012333703227
1772526010838983200,3.978983154296875,1.4684399829238652,0.17725713983029126,-0.22525731022637335
1772526010848966100,3.988966064453125,1.4200678739428518,-0.20183511624783276,-0.5156478215552867
1772526010858949000,3.99894921875,1.222255729600787,-0.4395955323576927,-0.9782876910224556
1772526010868932000,4.00893212890625,0.909994199258089,-0.6216068809777497,-1.4796832614719866
1772526010878915000,4.0189150390625,0.5859457850098609,-0.8161983097076415,-1.8551785159714518
1772526010888899000,4.028899169921875,0.2845499320745468,-0.9559592470973729,-2.1100936266303063
1772526010898882000,4.038882080078125,0.06455693558454513,-1.1044254689902067,-2.252416231201589
1772526010908865300,4.048865234375,-0.02911854245662689,-1.1947139349415898,-2.2975039116844536
1772526010918848000,4.058847900390625,0.00810673408806324,-1.2018740358293056,-2.281982225164771
1772526010928831000,4.0688310546875,0.15782733995616435,-1.1600789671510456,-2.1905745459251103
1772526010938814200,4.078814208984375,0.362098451179266,-1.1177496454656124,-2.019973210722208
1772526010948798200,4.088798095703125,0.5750935516059398,-1.0784309037730098,-1.833564650056511
1772526010958781000,4.098781005859375,0.7455196763724088,-1.0149316605478524,-1.68770904905349
1772526010968764200,4.10876416015625,0.812883486071229,-0.9041500032745301,-1.5348201884128152
1772526010978747100,4.1187470703125,0.7783429185658692,-0.8046905350044369,-1.3520662047319114
1772526010988730000,4.128730224609375,0.6481009201496839,-0.6936211468309164,-1.1537577282402665
1772526010998713000,4.138713134765625,0.5218821859002113,-0.5946595450803637,-1.0230205667182803
1772526011008697000,4.148697021484375,0.4574631974816322,-0.5107296543754637,-0.94806885917373
1772526011018680000,4.15868017578125,0.4782552256196737,-0.48030908940955996,-0.9211649970918894
1772526011028663000,4.1686630859375,0.5751654477983713,-0.4478194630846381,-0.899198153020814
1772526011038646300,4.178646240234375,0.7039607545375823,-0.4384614137612283,-0.8418643736228346
1772526011048629000,4.18862890625,0.7659153986692429,-0.47000601432099937,-0.782335349202901
1772526011058613000,4.198613037109375,0.7727332619905471,-0.5035476339168846,-0.7360203188821673
1772526011068596200,4.20859619140625,0.7743424507528543,-0.4881893212653696,-0.7102656268354505
1772526011078579200,4.2185791015625,0.8337304592669009,-0.49159123866334553,-0.6742025990031659
1772526011088562000,4.22856201171875,0.9031997168123721,-0.5365791120335459,-0.5909878708302975
1772526011098545200,4.238545166015625,0.9301508521020412,-0.6106006260558963,-0.4889344770768657
1772526011108528000,4.248528076171875,0.9258066854178905,-0.6421554557487368,-0.46026371492035684
1772526011118512000,4.25851220703125,0.863949071919918,-0.6777499162212014,-0.47253955138660964
1772526011128495000,4.2684951171875,0.7422264800459146,-0.7287311847873031,-0.5092391235567629
1772526011138478000,4.27847802734375,0.612378449383378,-0.7677334078766405,-0.5670846518691629
1772526011148461000,4.2884609375,0.47528234728872776,-0.8012779500819742,-0.615910715162754
1772526011158444300,4.2984443359375,0.3460924882739782,-0.8053609816119074,-0.629673721446842
1772526011168427000,4.308427001953125,0.21044307785630226,-0.7503130481287836,-0.5832889138255268
1772526011178411000,4.318410888671875,0.06884791077673434,-0.6858664410509169,-0.48488428837060926
1772526011188394000,4.32839404296875,-0.05290273814797401,-0.610729805393517,-0.40684805881418284
1772526011198377200,4.338377197265625,-0.16237784286737442,-0.5783110523477196,-0.34794381522908807
1772526011208360200,4.348360107421875,-0.22999358150064944,-0.615242168251425,-0.3245358324389905
1772526011218343000,4.358343017578125,-0.2415408114314079,-0.6512550002664327,-0.34320356189943846
1772526011228326100,4.368326171875,-0.28612112691402436,-0.6677053459383547,-0.3802811736017465
1772526011238310100,4.37831005859375,-0.41075229971110816,-0.6600557079680264,-0.3891941825713962
1772526011248293000,4.388293212890625,-0.6006541093200445,-0.5761030209094286,-0.3969444313719868
1772526011258276400,4.3982763671875,-0.8612970961064099,-0.4595227603599429,-0.3578036035295576
1772526011268259000,4.408259033203125,-1.1033043560057878,-0.35037148076742886,-0.26922113777846096
1772526011278242000,4.418241943359375,-1.3397019593298434,-0.36292613417506214,-0.03884045665636658
1772526011288225300,4.428225341796875,-1.4852952561348676,-0.7543523866474628,0.4319407067555934
1772526011298209300,4.438209228515625,-1.2946382442444562,-1.0063559937737883,0.584539060017094
1772526011308192000,4.44819189453125,-0.8407417993336915,-1.056299005333334,0.5765107979927212
1772526011318175000,4.458175048828125,-0.4175087882339954,-0.8912992895297706,0.24961108596660195
1772526011328158200,4.468158203125,-0.11844751572608947,-0.6008826573789119,-0.1903399818304926
1772526011338141200,4.47814111328125,0.003433481580018997,-0.4003498559013009,-0.5226945982616394
1772526011348125200,4.488125244140625,-0.05663900206685066,-0.20270663838535546,-0.5983417041918262
1772526011358108200,4.498108154296875,-0.370621364852786,-0.009177724320441484,-0.32267182866539806
1772526011368090400,4.50809033203125,-0.8160726375013589,0.24822321180477738,0.16459449600353837
1772526011378073000,4.518072998046875,-1.1533353381097315,0.5957885491102933,0.5539518697800114
1772526011388056300,4.528056396484375,-1.3138801203310488,0.9778215348154305,0.79592402183339
1772526011398039300,4.538039306640625,-1.2745762839466332,1.2957783541902899,0.8992756021711975
1772526011408023300,4.548023193359375,-1.0839274553626774,1.4577299344696104,0.9385228129975497
1772526011418006300,4.55800634765625,-0.8555413090586662,1.5172762022852897,0.8371909019190817
1772526011427989200,4.5679892578125,-0.7009224097549915,1.4360771978490054,0.7116193064667284
1772526011437972200,4.57797216796875,-0.6158171916604042,1.3131709491483867,0.5965846679240465
1772526011447955500,4.58795556640625,-0.4764303482800722,1.2803332400381564,0.4596864630216732
1772526011457938200,4.597938232421875,-0.2232937916010618,1.3166628829173743,0.4107950428742915
1772526011467922200,4.607922119140625,0.021567688685655593,1.309100192578137,0.4126730386406183
1772526011477905200,4.6179052734375,0.15693535955250262,1.2490890837296842,0.46292160901799795
1772526011487888400,4.627888427734375,0.2059837603598833,1.1554979229710995,0.5183335900405421
1772526011497871000,4.63787109375,0.28053426669239995,1.0410283709652721,0.559440018867515
1772526011507854300,4.647854248046875,0.47484629395902156,0.8974785626865923,0.5593286674475297
1772526011517837300,4.65783740234375,0.7275280926078558,0.7338244162730873,0.5341463684612885
1772526011527821300,4.6678212890625,1.003667923733592,0.6293275383576751,0.5010930438390001
1772526011537804300,4.67780419921875,1.2573901713460682,0.5547375767976045,0.49192653503231704
1772526011547787300,4.687787353515625,1.4396546179443597,0.43168753571212287,0.5519084177862853
1772526011557770200,4.697770263671875,1.5094091221719979,0.2676490661561489,0.6369183588128536
1772526011567753200,4.707753173828125,1.4756389545172452,0.133224813619256,0.7524756329901516
1772526011577736400,4.717736328125,1.414461724498868,-0.026677579045295715,0.9466507360041141
1772526011587720200,4.72772021484375,1.2986276061415671,-0.11926759993731975,1.104600241035223
1772526011597703200,4.737703125,1.10393447060287,-0.1517579569146037,1.2308993470445275
1772526011607686400,4.747686279296875,0.7702221559524536,-0.1745705310948193,1.303348935575038
1772526011617669400,4.75766943359375,0.30529110680818555,-0.11280234944596886,1.2489999441415072
1772526011627652000,4.767652099609375,-0.18190438111424445,-0.006105477268248796,1.0659605676479638
1772526011637635300,4.77763525390625,-0.580587472847104,0.12250614346712826,0.8381143003743141
1772526011647619300,4.787619384765625,-0.8424573710799217,0.24751710936203597,0.6735851977571845
1772526011657602300,4.797602294921875,-1.0055284569084644,0.36091377143934367,0.6025751405104994
1772526011667585300,4.807585205078125,-1.1247878735393284,0.4699523844376206,0.6093955611150711
1772526011677568300,4.817568359375,-1.117563767504692,0.5715671310454606,0.6788014711007475
1772526011687551200,4.82755126953125,-0.9457353747248649,0.6867718654580414,0.7927315094023942
1772526011697534200,4.8375341796875,-0.5499661246120929,0.7593762061588466,0.9223112445175647
1772526011707518500,4.8475185546875,-0.0007867664635181426,0.7638958755403756,1.0531780968338251
1772526011717501200,4.857501220703125,0.5807581532388926,0.6814191062532365,1.1536115247026084
1772526011727484200,4.867484130859375,1.096888643744588,0.5640196382753551,1.1725955535706132
1772526011737467400,4.87746728515625,1.5261609350085257,0.4266419427603483,1.1900398787159472
1772526011747450400,4.887450439453125,1.8789426917880772,0.32418606915324927,1.151507976552099
1772526011757433000,4.89743310546875,2.182829192495346,0.2199202235147357,1.082336532909423
1772526011767417000,4.9074169921875,2.4056571201503276,0.08462152623087167,1.0195680881768465
1772526011777400300,4.917400390625,2.4796944162636994,-0.09044146455600857,0.9270829889640212
1772526011787383300,4.92738330078125,2.4146722012549637,-0.249295371080935,0.7936175715219229
1772526011797366300,4.9373662109375,2.2731097674012184,-0.3476934937298298,0.6283611775435507
1772526011807349200,4.947349365234375,2.1020921064823863,-0.4123194028973579,0.46665093173943456
1772526011817332200,4.957332275390625,1.8758043937623499,-0.49626872895509,0.3561128008984029
1772526011827316200,4.967316162109375,1.5845710384011267,-0.5603093855805694,0.31466808002777397
1772526011837299500,4.977299560546875,1.1561568252712489,-0.5199531175337732,0.34952143980935213
1772526011847282200,4.9872822265625,0.6627642362743615,-0.3842101836137473,0.39959903753399845
1772526011857265200,4.99726513671875,0.23061668183505535,-0.24956381275877354,0.4401141494043171
1772526011867248400,5.007248291015625,-0.1971042883336544,-0.19195903439968823,0.572052795670554
1772526011877232400,5.017232421875,-0.6195043557405472,-0.14444237320423126,0.6737925568975508
1772526011887215400,5.02721533203125,-1.0326251381486653,-0.04764072596654296,0.7293085462838411
1772526011897198000,5.037197998046875,-1.3851602266907692,0.0567047607794404,0.7876136549320072
1772526011907181300,5.047181396484375,-1.6672171729058027,0.12007833179831504,0.8763501422010361
1772526011917164300,5.057164306640625,-1.8184400000303982,0.16964812613129615,0.9738074768684803
1772526011927147300,5.067147216796875,-1.8320710504978894,0.1841891310505569,1.0413202665839343
1772526011937130200,5.077130126953125,-1.7217068879842756,0.17506211400404573,1.0377253838971257
1772526011947114200,5.0871142578125,-1.5797925719529389,0.03418196332603693,1.0872224052548407
1772526011957097200,5.09709716796875,-1.4052023132443427,-0.5024725520312786,1.3319495916374027
1772526011967080400,5.10708056640625,-1.025493971094489,-0.9142565328776836,1.2920078957408665
1772526011977063200,5.117063232421875,-0.7323907302081585,-0.7652275625355541,0.8539055976156145
1772526011987046100,5.127046142578125,-0.6846434751272201,-0.6400543918162583,0.37687392244152723
1772526011997029400,5.137029296875,-0.8171867362231016,-0.8285724919818341,0.17821166407614944
1772526012007013400,5.147013427734375,-0.954836380547285,-0.9781829154737293,0.11361220452412962
1772526012016996400,5.156996337890625,-1.030717843222618,-0.7446043150931596,-0.04748948092758655
1772526012026979300,5.166979248046875,-1.1049024388521909,-0.2831787898518145,-0.11346300531178712
1772526012036962300,5.17696240234375,-1.1368640957802534,0.06490487223938107,0.12200761936046182
1772526012046945300,5.1869453125,-0.9764292036741972,0.34034985296875236,0.5715560981947928
1772526012056928300,5.19692822265625,-0.6290776552498341,0.6201686648681759,1.034022729986906
1772526012066912300,5.206912353515625,-0.21343466088771818,0.8280228952750563,1.4520508659198879
1772526012076895200,5.216895263671875,0.0903302592664957,0.9613270577408373,1.662908369795978
1772526012086878200,5.226878173828125,0.3038964375793934,0.799216779768467,1.9320792386919259
1772526012096861400,5.236861328125,0.36618425918817515,0.5448986120894551,2.0432794136382637
1772526012106844200,5.24684423828125,0.30603695673942566,0.42158334419652815,1.8409620668314397
1772526012116827100,5.2568271484375,0.1509486863583326,0.3472928039744496,1.4702368032127617
1772526012126811400,5.266811279296875,-0.019971943926811217,0.2444894321039319,1.1333663167923689
1772526012136794400,5.27679443359375,-0.11758651498258113,0.14909896683841942,0.8913938359454273
1772526012146777300,5.28677734375,-0.12331249141395091,0.07453034032732248,0.7376989196188748
1772526012156760300,5.29676025390625,-0.11557809776961803,0.01172784719467163,0.6405117801949382
1772526012166743300,5.306743408203125,-0.09322539618611335,-0.01954977299198508,0.5905474335864186
1772526012176726300,5.316726318359375,-0.05939736086428165,0.017303309239447114,0.5454129913523793
1772526012186710300,5.326710205078125,-0.012100187638401984,0.09840572143346071,0.49413683149293064
1772526012196693200,5.336693359375,0.029778467670083044,0.20097791489660738,0.39241146411746736
1772526012206676200,5.34667626953125,0.04142448180019855,0.26146628586798903,0.2624697638221085
1772526012216659200,5.3566591796875,-0.08009177384674548,0.25359540636241434,0.07348696875423193
1772526012226642400,5.366642333984375,-0.28035598751604557,0.18706658618301153,-0.1535469592232257
1772526012236625200,5.376625244140625,-0.4894102413624525,0.1519172391295433,-0.4116338317859918
1772526012246609200,5.386609130859375,-0.7249468439429998,0.1507312442153692,-0.6363351520974189
1772526012256592400,5.39659228515625,-0.9308627997636795,0.17147198055759072,-0.7593713838532566
1772526012266575400,5.406575439453125,-1.0635182890623807,0.19125863104537127,-0.7858467183247209
1772526012276558000,5.41655810546875,-1.0835708970099687,0.20310762040168046,-0.7152112665440887
1772526012286541300,5.426541259765625,-0.935662308999896,0.27460297694727775,-0.6143487265430391
1772526012296524300,5.436524169921875,-0.6121165835767984,0.446471263346076,-0.5394727876484394
1772526012306508300,5.44650830078125,-0.1615291170835495,0.5678317439094186,-0.3903302739292383
1772526012316491300,5.4564912109375,0.32474048816561696,0.6321557475209236,-0.1908887017544359
1772526012326474200,5.46647412109375,0.8180804701924324,0.6753570297352969,0.0021039865419268606
1772526012336457200,5.476457275390625,1.2721791596770287,0.6898914587832987,0.1495052826169878
1772526012346440200,5.486440185546875,1.6668769811660051,0.6541022063910961,0.25814152535945173
1772526012356423400,5.49642333984375,1.9180343467265366,0.5592072695575654,0.3175116328906268
1772526012366407700,5.50640771484375,2.0335732815295455,0.48247488914132114,0.31278665019534524
1772526012376390700,5.516390625,2.1010721157848833,0.44577845877632494,0.2654501678723842
1772526012386373600,5.52637353515625,2.172911609593034,0.3648395665809512,0.24392624526321888
1772526012396356900,5.53635693359375,2.175216379404068,0.22892975166141985,0.22604352870061992
1772526012406339600,5.546339599609375,2.091240457600355,0.0883522371917963,0.1705943209402263
1772526012416322800,5.55632275390625,2.0205904658377167,-0.009225801245868205,0.09477540210708975
1772526012426305800,5.566305908203125,1.9765245296180247,-0.06350947235822678,0.03872019127756357
1772526012436289800,5.576289794921875,1.9346897134512662,-0.11968261047899723,0.03061711045131087
1772526012446272800,5.586272705078125,1.8698896167606114,-0.2012201992198825,0.04676642735004425
1772526012456255700,5.596255859375,1.746710396337509,-0.2611898070141673,0.0632024522356689
1772526012466238700,5.60623876953125,1.5130109460562466,-0.31143706221729517,0.05969188683144748
1772526012476221700,5.6162216796875,1.1762491807073354,-0.3274740047827363,0.02771598218232393
1772526012486204700,5.62620458984375,0.8159165701568126,-0.31891105135977266,-0.02647730723284185
1772526012496188700,5.636188720703125,0.4855541504561901,-0.3182619398012757,-0.06933510977178811
1772526012506171600,5.646171630859375,0.2059182939082384,-0.3696279699012637,-0.08117460064738988
1772526012516155000,5.65615478515625,0.0026169045001268386,-0.419061278373003,-0.12053864278644323
1772526012526137900,5.666137939453125,-0.15588555823862552,-0.4085562509715557,-0.1718809997498989
1772526012536120600,5.67612060546875,-0.29814941835999487,-0.3975035265594721,-0.21667744220122695
1772526012546103800,5.686103759765625,-0.4210340397506952,-0.3593465221226215,-0.24368388787470757
1772526012556087800,5.696087890625,-0.5752876128733158,-0.29899989770948887,-0.22606785942427812
1772526012566070800,5.70607080078125,-0.7780272767454385,-0.25495792688727376,-0.14963037030138074
1772526012576053500,5.716053466796875,-0.9847457811206579,-0.23065467575788495,0.010942468970641493
1772526012586036700,5.72603662109375,-1.1814274601280688,-0.2607946702167392,0.21535795710049568
1772526012596019700,5.736019775390625,-1.359158354949951,-0.22998306010663508,0.40648258650265634
1772526012606002700,5.746002685546875,-1.536640243446827,-0.26471593531370163,0.6969842665884644
1772526012615987000,5.755987060546875,-1.5804297008126973,-0.4234574675053358,0.9557563449364155
1772526012625969700,5.7659697265625,-1.503049524012208,-0.33458675939738747,0.9077320995450019
1772526012635952600,5.77595263671875,-1.4438660981595515,-0.13978548730909823,0.6061360478624701
1772526012645935900,5.785935791015625,-1.4219003500670193,-0.1361760646402836,0.31872130094133316
1772526012655918800,5.7959189453125,-1.3711562512576578,-0.29082389777749773,0.16865378133170306
1772526012665901600,5.805901611328125,-1.2978747419476508,-0.4322743956893682,0.06292224705480039
1772526012675884800,5.815884765625,-1.3732406563162802,-0.4949152685195207,-0.03597892974540591
1772526012685868800,5.825868896484375,-1.5903858621597289,-0.4705673014655709,-0.05088745280280709
1772526012695851800,5.835851806640625,-1.813330694192648,-0.3414841176956892,0.07291676765084266
1772526012705834800,5.845834716796875,-1.9269144032746552,-0.16476123087257147,0.29591157630532977
1772526012715817700,5.855817626953125,-1.8705255765765905,0.03339928851574659,0.5323719426672905
1772526012725800700,5.86580078125,-1.703940345147252,0.2763406143948436,0.7245166358321905
1772526012735784000,5.875783935546875,-1.4684493352741002,0.3844941151216626,0.8921151359573006
1772526012745768000,5.885767822265625,-1.2266168474197388,0.4365408209621906,1.0275375326860696
1772526012755750700,5.895750732421875,-0.9668599958181381,0.5331225418388843,1.0857448800481855
1772526012765733600,5.905733642578125,-0.7996820591926574,0.6363599212124943,1.1028981863576919
1772526012775716900,5.915716796875,-0.6826251210421324,0.7457239667728542,1.1105322614327073
1772526012785699800,5.925699951171875,-0.5547936908990144,0.890156110844016,1.1027344471633433
1772526012795682600,5.9356826171875,-0.3795727330714464,1.0353905112087727,1.098963258061558
1772526012805665800,5.945665771484375,-0.1337403619259596,1.1372680004060267,1.1562358818568288
1772526012815649800,5.95564990234375,0.21227847658991814,1.1632523364901541,1.3066966385677456
1772526012825632800,5.9656328125,0.6586071165949106,1.1651280672341584,1.4716162748724222
1772526012835615700,5.97561572265625,1.1906108835369347,1.1441337945222854,1.6363810128763316
1772526012845598700,5.9855986328125,1.7221400187045335,1.0899065297722816,1.7630656110718845
1772526012855581700,5.995581787109375,2.1638556119561194,1.018214920002222,1.9002322941847145
1772526012865565000,6.00556494140625,2.419216858947277,0.9342886825591326,2.0197034538701177
1772526012875549000,6.015548828125,2.5013655653238294,0.8109963571503758,2.174637264341861
1772526012885531600,6.02553173828125,2.403949731710553,0.6473594541326165,2.371708527188748
1772526012895514600,6.0355146484375,2.113990049546957,0.5061550399363041,2.572804953898489
1772526012905497900,6.045497802734375,1.6183990737229585,0.4296367406621575,2.6819012884333726
1772526012915480600,6.05548046875,0.9562585223048925,0.4284340868741274,2.6275129879027603
1772526012925463600,6.065463623046875,0.29872458789944645,0.4546121919646859,2.456513447162509
1772526012935447800,6.07544775390625,-0.2578197460591793,0.4816064357437193,2.3031587225757537
1772526012945430800,6.0854306640625,-0.7418167302012443,0.5442822337567806,2.1693265907131134
1772526012955413800,6.095413818359375,-1.1984820553034543,0.6558757919348776,2.0188360233858225
1772526012965396700,6.105396728515625,-1.5902034913301466,0.8468272567272186,1.879577920951694
1772526012975379700,6.115379638671875,-1.8639497053176164,1.0514870750069618,1.7531126645952462
1772526012985362700,6.12536279296875,-1.976093152463436,1.2539508445471526,1.6316607063561677
1772526012995346000,6.135345947265625,-1.8827678030341863,1.460479525438696,1.5452818150639533
1772526013005330000,6.145329833984375,-1.6184943507909775,1.6035373124167323,1.515357363051921
1772526013015312600,6.155312744140625,-1.1849246545940637,1.6941837980255483,1.5351488358452916
1772526013025295600,6.165295654296875,-0.6192910052508115,1.7378054976090789,1.527074542722106
1772526013035278800,6.17527880859375,0.0001163198560476303,1.7236863713636994,1.507171280117333
1772526013045261600,6.185261474609375,0.6335661988407373,1.6635378998711705,1.475447231337428
1772526013055244800,6.195244873046875,1.1891337967216968,1.551977805571258,1.3985595142289995
1772526013065228800,6.205228759765625,1.6204443158149717,1.44030694437325,1.2373190048284828
1772526013075211800,6.215211669921875,1.9228636665791272,1.3256737262383103,1.0385054283589124
1772526013085194800,6.22519482421875,2.1010680241316555,1.2027131170019507,0.8487364513494073
1772526013095177700,6.235177734375,2.168151263323426,1.0688307162567972,0.7012494497522711
1772526013105160700,6.24516064453125,2.1498364389538764,0.9368404128685593,0.5865999380696565
1772526013115143700,6.255143798828125,2.026916746249795,0.8155646879792213,0.495319100080058
1772526013125127000,6.265126953125,1.8422534218162296,0.7680158780798315,0.38819450400955974
1772526013135110700,6.275110595703125,1.6389192991822956,0.7899819184333086,0.3054426441080868
1772526013145093600,6.28509375,1.443225462168455,0.8276683827489614,0.27840536490492523
1772526013155076900,6.295076904296875,1.2591332156211137,0.8563999717146158,0.2952196485184133
1772526013165059800,6.305059814453125,1.0686059675902129,0.8736924672991037,0.3040506052277982
1772526013175042600,6.31504248046875,0.8954618160367012,0.9005918724015355,0.294588803268969
1772526013185025800,6.32502587890625,0.6863368350416421,0.8680585530653595,0.2737302127007395
1772526013195009800,6.335009765625,0.45737961085140705,0.8179720413818955,0.2562278737578541
1772526013204992800,6.34499267578125,0.30172026258409024,0.7505600086271762,0.19289277158584445
1772526013214975700,6.354975830078125,0.21444296114742756,0.6535743831247091,0.07717040650732815
1772526013224958700,6.364958740234375,0.1931038205206394,0.5146814607411623,-0.027905769133381542
1772526013234941700,6.374941650390625,0.2347702943831682,0.3823565185710788,-0.12186682265028356
1772526013244924700,6.384924560546875,0.23689327788650988,0.2410889760106802,-0.15406762209646402
1772526013254908000,6.394907958984375,0.18913433236777782,0.08313070315122603,-0.1636077499885112
1772526013264891600,6.4048916015625,0.09576046762168407,-0.04819061493426561,-0.11648078223038465
1772526013274874600,6.41487451171875,-0.025509704309701918,-0.42513007689267396,0.17442931425953284
1772526013284857900,6.42485791015625,-0.03197276284396648,-0.9564572597473859,0.4257895637147128
1772526013294840800,6.4348408203125,0.014564531925320624,-1.070853161995113,0.1996197052206844
1772526013304823600,6.444823486328125,-0.08670914615988731,-0.841811474391818,-0.4153199364202097
1772526013314806800,6.454806884765625,-0.5073930572986602,-0.7045064057216048,-0.860643454503268
1772526013324789800,6.464789794921875,-1.029882561442256,-0.7852838237449526,-0.9180435040704905
1772526013334773800,6.474773681640625,-1.438809399291873,-0.8331050208449363,-0.7925321143727749
1772526013344756700,6.4847568359375,-1.7583230927199125,-0.473911058935523,-0.8892080894041806
1772526013354739700,6.49473974609375,-2.0022306332826614,-0.12733955497294663,-0.8616234054513275
1772526013364722200,6.50472216796875,-2.0567542506307364,0.06938537865430117,-0.6025506636563688
1772526013374705400,6.514705322265625,-1.8057775023341178,0.22312924868911505,-0.21316183529570698
1772526013384688400,6.5246884765625,-1.3033113800436258,0.355873000793159,0.11103714813804254
1772526013394672400,6.53467236328125,-0.6661369275778531,0.40776802320331335,0.3984913685530424
1772526013404655400,6.5446552734375,-0.014397943186759948,0.3648632397174835,0.5538163337668404
1772526013414638300,6.554638427734375,0.4808569325506687,0.20793577121049164,0.6507504117451608
1772526013424621300,6.564621337890625,0.7029407638400793,0.05913973284140229,0.7135765780143439
1772526013434604300,6.574604248046875,0.7186462824940681,0.0009293898046016692,0.6890569076552987
1772526013444587500,6.58458740234375,0.619030893009901,0.00033069325909018514,0.6633501464035362
1772526013454570200,6.5945703125,0.4857499652892351,-0.01938099229633808,0.6701964321017265
1772526013464554200,6.60455419921875,0.3586754909932613,-0.05925488365367054,0.6750813545990735
1772526013474537500,6.614537353515625,0.260041513761878,-0.13463000424206256,0.7002713254351168
1772526013484520400,6.6245205078125,0.24448387914597985,-0.20962284751459956,0.7579671430785209
1772526013494503200,6.634503173828125,0.2840706241250038,-0.272581846383214,0.829895630344376
1772526013504486400,6.644486328125,0.27479543077945706,-0.32161461123004553,0.8885203263357281
1772526013514469400,6.654469482421875,0.2039315040051937,-0.2847600676938891,0.8461210081540048
1772526013524453400,6.664453369140625,0.13232055825591085,-0.18759338653609156,0.73160454826653
1772526013534436400,6.674436279296875,0.06066051266789436,-0.12386632590442895,0.5706726664237678
1772526013544419300,6.68441943359375,-0.04978665195405483,-0.08126870867162943,0.40491003995630886
1772526013554402300,6.69440234375,-0.3392740404307842,-0.03714797352477908,0.20465879536643622
1772526013564385500,6.704385498046875,-0.8665355812817811,0.02800444373488426,0.012838767578639089
1772526013574368500,6.714368408203125,-1.4599357739508152,0.16315379567593336,-0.15938514559110625
1772526013584351200,6.724351318359375,-2.0001754543185233,0.32313714462220666,-0.22551932216342538
1772526013594335200,6.734335205078125,-2.4277198988765476,0.4204816665649414,-0.12485208553876727
1772526013604318500,6.744318359375,-2.6719968572735784,0.5823600354775786,0.015568411738239227
1772526013614301400,6.754301513671875,-2.6361779403954744,0.8724082727074622,0.1850808557258919
1772526013624284200,6.7642841796875,-2.363542317998409,1.160801290076226,0.39738603765964503
1772526013634267400,6.774267333984375,-1.8618676383465527,1.370879041751474,0.6170290516681969
1772526013644250400,6.78425048828125,-1.1797732631802558,1.4526779117770492,0.8203538950171321
1772526013654233300,6.7942333984375,-0.4382961401969194,1.4380670564919709,0.8946244884297251
1772526013664217600,6.804217529296875,0.20277415066361426,1.2956918449506163,0.9260083454698324
1772526013674200300,6.814200439453125,0.7050690080404282,1.0832849196754395,0.8631589444555342
1772526013684183300,6.824183349609375,1.121286587420106,0.937170959997177,0.6997470823653041
1772526013694166500,6.83416650390625,1.4669126272261142,0.8226870872050523,0.47676918831299986
1772526013704149200,6.844149169921875,1.780010023871064,0.6428431457519531,0.2965731820192188
1772526013714132200,6.85413232421875,2.056862971702218,0.4526712870299816,0.13159029861944727
1772526013724115500,6.864115478515625,2.282929735147953,0.3084492785781622,-0.050874136663507666
1772526013734099500,6.874099365234375,2.4620798491179943,0.15870412279069424,-0.23026180398277937
1772526013744082400,6.88408251953125,2.55539350810945,-0.011704174058139323,-0.3686363285154104
1772526013754065200,6.894065185546875,2.6000147401243447,-0.17384265521168707,-0.40740704440381376
1772526013764048400,6.90404833984375,2.5926877582371235,-0.3045262599155307,-0.40210915719140317
1772526013774031400,6.91403125,2.498606622004509,-0.4115402352184057,-0.42783049495778974
1772526013784014300,6.924014404296875,2.315776358217001,-0.5205605819076299,-0.4120662318538874
1772526013793998300,6.933998291015625,2.0887796204447744,-0.540305146819353,-0.3664125515187159
1772526013803981300,6.943981201171875,1.867083911690116,-0.47672377826869483,-0.3242143819322809
1772526013813964300,6.95396435546875,1.628362833854556,-0.4550086439363658,-0.23282927985060958
1772526013823947500,6.963947509765625,1.3811223494768141,-0.5122537952028214,-0.12551370951896532
1772526013833930200,6.97393017578125,1.1006763455897568,-0.5748866308569908,-0.07279620087794028
1772526013843913200,6.983913330078125,0.7789192571491003,-0.628139497616887,-0.09524435305939986
1772526013853896400,6.993896484375,0.403684261021018,-0.6284345350407063,-0.10599107112907805
1772526013863880400,7.00388037109375,0.013779519027471541,-0.6015406828962266,-0.04134306886075064
1772526013873863400,7.013863525390625,-0.3617465690016746,-0.5566049781046808,0.06500765676042064
1772526013883846400,7.023846435546875,-0.7032593282699584,-0.4474477071627974,0.178656850560382
1772526013893829400,7.033829345703125,-1.0763479600191115,-0.2961744650252163,0.3045789399508387
1772526013903812400,7.043812255859375,-1.4250591063588858,-0.19031082880124447,0.4661087876867503
1772526013913795600,7.053795654296875,-1.6382798322349785,-0.1367392514809966,0.6907572818323969
1772526013923778300,7.0637783203125,-1.7056033099234102,-0.11005188169404864,0.9132529818583279
1772526013933762300,7.07376220703125,-1.665866342818737,-0.08455138360410928,1.0735695813469588
1772526013943745300,7.083745361328125,-1.6062795968621968,-0.007974924401938914,1.107196468073502
1772526013953728500,7.093728515625,-1.619252475681901,0.03472030798643827,1.0783796850424259
1772526013963711200,7.103711181640625,-1.647725121450424,-0.11282309997305273,1.1534646635778247
1772526013973694200,7.113694091796875,-1.6432833396106958,-0.5944780510336161,1.390036454425007
1772526013983677400,7.123677490234375,-1.417359784027934,-0.918213161548972,1.3634608744494616
1772526013993660400,7.133660400390625,-1.2383891182780264,-0.931946357216686,1.0657880606252699
1772526014003644400,7.14364453125,-1.2065104634582995,-0.9881104352481662,0.7095261335797608
1772526014013627400,7.15362744140625,-1.2438140659362078,-1.1018769535511732,0.3643469607584178
1772526014023610400,7.1636103515625,-1.2964900095909833,-1.128124470616132,0.05093826967459172
1772526014033593300,7.17359326171875,-1.4989999563604592,-1.0695656064026058,-0.14431312080137432
1772526014043576300,7.183576416015625,-1.810461860758066,-0.8482995212368667,-0.24516758709382264
1772526014053559300,7.193559326171875,-2.051165636843443,-0.5432336014866829,-0.23792879494670777
1772526014063542300,7.203542236328125,-2.2373557324528695,-0.3154039200216532,-0.022798984046280384
1772526014073526300,7.2135263671875,-2.325447857403755,-0.043526568645983935,0.28584453846234825
1772526014083509500,7.223509521484375,-2.2486206383109093,0.3591558218561113,0.4952282799914479
1772526014093492200,7.2334921875,-1.9766122079014776,0.735243927682191,0.6575506663445383
1772526014103475500,7.243475341796875,-1.5214771611064672,0.9697273679479956,0.8254775947064161
1772526014113458400,7.25345849609375,-0.9621019876360892,1.0789270167268812,0.9543926553677767
1772526014123441400,7.26344140625,-0.36469898906648157,1.0872191903844475,1.0489719503808765
1772526014133424400,7.27342431640625,0.1689712497830391,1.0678753152281046,1.0520678705696016
1772526014143408400,7.283408447265625,0.5822282257914543,1.0523356546603142,0.9604558278642594
1772526014153391400,7.293391357421875,0.8918681754589081,1.0434007991850376,0.8849226671699434
1772526014163374300,7.303374267578125,1.0901397540062665,0.9706813076719641,0.8621121388163417
1772526014173357300,7.313357421875,1.239615445202589,0.8563668000973761,0.7553438819028436
1772526014183340300,7.32334033203125,1.3823901774555445,0.7788328940398991,0.5575757958982139
1772526014193323300,7.3333232421875,1.4868477462738752,0.6718453683525324,0.3417334893468767
1772526014203306500,7.343306396484375,1.5145663588047027,0.5291419477701187,0.19322445122562348
1772526014213290500,7.35329052734375,1.5077999334096908,0.46373584801033135,0.09220781664140522
1772526014223273200,7.363273193359375,1.4443746322035789,0.40597178743630646,0.04638794942647218
1772526014233256400,7.37325634765625,1.3421551977008581,0.25310411571413277,0.06922558498270809
1772526014243239400,7.383239501953125,1.213091595414281,0.11213540996983647,0.12396518316902219
1772526014253222400,7.393222412109375,1.0331319186270236,0.14790873414054512,0.1212540975794196
1772526014263205400,7.403205322265625,0.7566992420345544,0.29635157515779137,0.07551043740585446
1772526014273188400,7.413188232421875,0.44091655182838435,0.5612829067878424,0.05280673042759299
1772526014283172400,7.42317236328125,0.19828619159460067,0.9059278266020119,0.047074762646853924
1772526014293155300,7.4331552734375,0.020259528696537018,1.209006956449151,0.06496025568842888
1772526014303138300,7.44313818359375,-0.20515373927652836,1.4230337380111218,0.20303199788220225
1772526014313121300,7.453121337890625,-0.5047036720842123,1.5711835874311626,0.4053801416860893
1772526014323104300,7.463104248046875,-0.7910492554038763,1.7036039527997373,0.6140845226489007
1772526014333087500,7.47308740234375,-0.9843611657172441,1.8299125572897492,0.8247187391631304
1772526014343070200,7.4830703125,-1.0610177044183016,1.9128554827839135,0.9978823991347103
1772526014353054200,7.49305419921875,-0.9592729016900062,1.9165179508142172,1.1051046834260225
1772526014363037400,7.503037353515625,-0.6316109731197357,1.8656705377608536,1.0971653417941183
1772526014373021000,7.51302099609375,-0.1320394032269716,1.725544566451013,1.0561097663715482
1772526014383004000,7.52300390625,0.45047173115909095,1.4758217637382447,1.008017058853805
1772526014392987000,7.53298681640625,0.937988121598959,1.2007799569822848,0.9159405404418707
1772526014402969900,7.542969970703125,1.3179074761509895,0.9474632214307784,0.7509687355585396
1772526014412952800,7.552952880859375,1.6249661771535873,0.6859253316313028,0.5657927854277193
1772526014422936000,7.56293603515625,1.8262252470791338,0.42993484682589767,0.4403707910465076
1772526014432919800,7.572919921875,1.9201853872805832,0.1754568124100566,0.34925537275169044
1772526014442902800,7.58290283203125,1.893725250378251,-0.010512772316485643,0.26308906476423144
1772526014452885800,7.5928857421875,1.8535311871558426,-0.13955854668542741,0.17969894349183888
1772526014462869000,7.602868896484375,1.8597095835298298,-0.20955855010673402,0.13663812919408083
1772526014472851700,7.612851806640625,1.8615636869639156,-0.2858246281854808,0.16074235062003134
1772526014482834700,7.622834716796875,1.799406213736534,-0.35878055880293247,0.23381116702742874
1772526014492818000,7.63281787109375,1.663313151204586,-0.4048224712707102,0.3080308705030009
1772526014502802000,7.642802001953125,1.3990274240016936,-0.3747815532721579,0.3790623723965138
1772526014512785000,7.652784912109375,1.0657084925830365,-0.296202083684504,0.4262747899483889
1772526014522768000,7.662767822265625,0.6840881793320178,-0.2466281976982951,0.4660873795725405
1772526014532750800,7.672750732421875,0.25226971071660514,-0.24723054750561713,0.4717329842440784
1772526014542733800,7.68273388671875,-0.12876257351338863,-0.21598566054478285,0.4068334457669407
1772526014552717000,7.692717041015625,-0.4691787697166204,-0.15621201371401547,0.36480223024524744
1772526014562699800,7.70269970703125,-0.7207604981690645,-0.09238485370874404,0.3722022408360615
1772526014572683800,7.712683837890625,-0.9167337366461753,-0.0025032149925827978,0.46285891904532905
1772526014582666800,7.722666748046875,-1.104756892901659,0.14743848628029227,0.6304522315386683
1772526014592650000,7.73264990234375,-1.287777126303315,0.2469663436114788,0.8171219273585826
1772526014602632700,7.7426328125,-1.4426520461946726,0.3241777397163212,0.9703674194172024
1772526014612616000,7.752615966796875,-1.5352794764876365,0.3870167654670775,1.0567771442390979
1772526014622599000,7.762598876953125,-1.5407266359776257,0.4325735247664153,1.0660462001048028
1772526014632582000,7.772581787109375,-1.4795026442080734,0.2684922389820218,1.2139657479003072
1772526014642566000,7.78256591796875,-1.3227116615623236,-0.1524392171770334,1.4289625435382127
1772526014652548900,7.792548828125,-1.130290562608838,-0.39344533720985053,1.266954410766065
1772526014662531800,7.80253173828125,-1.1751192998945712,-0.3945739028483629,0.8082275500241667
1772526014672514800,7.812514892578125,-1.4194248998641967,-0.45702831319570536,0.3171155097125098
1772526014682497800,7.822497802734375,-1.6105430995255707,-0.5878207851015032,-0.08523598660109565
1772526014692480800,7.832480712890625,-1.7347399725586174,-0.6753336488597095,-0.2534094188036397
1772526014702463700,7.842463623046875,-1.759161297109723,-0.6686788671456277,-0.23540376998111603
1772526014712447000,7.852447021484375,-1.6852350601553916,-0.5451420654565096,-0.14929098227918147
1772526014722431000,7.862430908203125,-1.5223568665504454,-0.3247279209449887,-0.020735238183196635
1772526014732413700,7.87241357421875,-1.2761270205199717,-0.11074059461057185,0.08279878604942932
1772526014742397000,7.88239697265625,-0.9352186568856239,-0.04590688791126012,0.15364293041098862
1772526014752380000,7.8923798828125,-0.591279547253251,-0.059116790357232094,0.20501199271827936
1772526014762363000,7.90236279296875,-0.30196751534342764,-0.09353899217993021,0.231532554570958
1772526014772345900,7.912345947265625,-0.05591068779230118,-0.0920727190196514,0.20821181167289612
1772526014782328800,7.922328857421875,0.09533727377355099,-0.05119155031591654,0.15613953299969432
1772526014792312800,7.932312744140625,0.12089315531253814,-0.00036649522483348846,0.11483180031380616
1772526014802295800,7.9422958984375,0.11458324151337146,0.11685557035952805,0.1237140579521656
1772526014812278800,7.95227880859375,0.08651566941440104,0.22790625383257865,0.2581846155825071
1772526014822261800,7.96226171875,0.1324748720347881,0.28206133012920614,0.44956765845883634
1772526014832245000,7.972244873046875,0.2789239088863134,0.31489947763085363,0.5631700722413138
1772526014842228000,7.98222802734375,0.5069464825749397,0.33382629641890527,0.5544617920635267
1772526014852210700,7.992210693359375,0.7085849072068929,0.34449002151340247,0.4917591060435399
1772526014862194700,8.002194580078125,0.8467623747974634,0.28518764545619485,0.40951314983759074
1772526014872178000,8.012177978515625,0.9353951824963093,0.20670330680608748,0.3411499903704971
1772526014882161000,8.022160888671875,1.0027443791478872,0.11630261265188455,0.27685627229940146
1772526014892143900,8.032143798828125,1.0413520499616862,0.04315554337650537,0.2227766723917797
1772526014902126800,8.042126953125,1.0279431178122758,0.006403437301516533,0.10980367908664047
1772526014912109800,8.05210986328125,0.9686942255079746,0.01692804618626833,-0.09446666495148091
1772526014922092800,8.0620927734375,0.8889169244378805,0.11499562170654534,-0.34829229987319554
1772526014932077000,8.0720771484375,0.7547071914345026,0.24664193396270273,-0.5610330236800015
1772526014942059800,8.082059814453125,0.601596943128109,0.2877659715116024,-0.6603368629969656
1772526014952042800,8.092042724609374,0.4395867645293474,0.3786024267345667,-0.6717590052433312
1772526014962026000,8.10202587890625,0.3196037097990513,0.5247141944557429,-0.5814771882284432
1772526014972009000,8.112009033203124,0.23367080870866774,0.7201543489694595,-0.4130166279138997
1772526014981991700,8.12199169921875,0.12233458629250525,0.9036325552716851,-0.2457012921117246
1772526014991975000,8.131974853515626,0.10430851573646067,1.014964393773675,-0.091687190300785
1772526015001958000,8.1419580078125,0.0994108068227768,1.0996157306209207,0.06269326060451567
1772526015011942000,8.15194189453125,0.2284218021392822,1.143418631990254,0.16090981614142655
1772526015021924900,8.1619248046875,0.5020043499976397,1.111554590217769,0.20404811612218618
1772526015031907800,8.171907958984375,0.8629168062627315,0.9812821966633201,0.23643048268035052
1772526015041890800,8.181890869140625,1.1568816324144602,0.7774351560711861,0.22595541202574967
1772526015051874000,8.1918740234375,1.278862582963705,0.6102627724036574,0.18184015677161514
1772526015061856800,8.201856689453125,1.3455845876276493,0.555059356097877,0.1514358853533864
1772526015071839700,8.21183984375,1.3773556904196738,0.46507980996519327,0.14277085979543624
1772526015081823700,8.22182373046875,1.3845645988851785,0.3205988583162427,0.14701456177979708
1772526015091807000,8.231806884765625,1.3388549871116875,0.17655016060471534,0.1051268463820219
1772526015101790000,8.2417900390625,1.2513888851046562,0.08815437653213738,-0.009604498365148902
1772526015111772700,8.251772705078125,1.2003572015255688,0.05684329246729612,-0.17916684590913354
1772526015121756000,8.261755859375,1.1572387752890587,-0.17354016513377427,-0.10635375782847403
1772526015131739000,8.27173876953125,1.1084966639518736,-0.28801614688038824,-0.13619769195020198
1772526015141721900,8.281721923828124,1.0838917995274067,-0.34853374394625425,-0.2547347856558859
1772526015151704800,8.291704833984374,1.0505296281516552,-0.39683571030050513,-0.3485813824802637
1772526015161688800,8.301688720703124,1.002360348266363,-0.49021542026549575,-0.35524763543643056
1772526015171671800,8.311671875,0.9184989927530288,-0.5441705900758504,-0.3516160009358078
1772526015181655000,8.321655029296876,0.7378969264090061,-0.5621022603467106,-0.36062713651768863
1772526015191637800,8.3316376953125,0.4473889627128839,-0.5378218055710197,-0.36998942362479864
1772526015201620700,8.341620849609376,0.15163257696926594,-0.4990884625509381,-0.37004414948672054
1772526015211604000,8.35160400390625,-0.11535130327641964,-0.46895752818137404,-0.4203240648504346
1772526015221587000,8.3615869140625,-0.3618476912885904,-0.4558814812481403,-0.4764526331771165
1772526015231571000,8.371571044921875,-0.5767068320214748,-0.4521522315919399,-0.39449031621813774
1772526015241553700,8.3815537109375,-0.8344079201370477,-0.4239826604232192,-0.12193199684098362
1772526015251537000,8.391536865234375,-1.0266437256515026,-0.3448401501253247,0.1466246126141399
1772526015261520000,8.401519775390625,-1.1611258458554745,-0.33054391374737024,0.43138007719814775
1772526015271502800,8.4115029296875,-1.2321680518060922,-0.50906274407655,0.7480838277719914
1772526015281485800,8.42148583984375,-1.1354729336827993,-0.8878606933832168,1.098386919478327
1772526015291468800,8.43146875,-0.94166008810997,-1.1434639324367046,1.0643545206908136
1772526015301452000,8.4414521484375,-0.8361953880757093,-1.2193868961662053,0.706236590515077
1772526015311436000,8.45143603515625,-0.9293938962548971,-1.2230360663235187,0.17260646448023617
1772526015321418800,8.461418701171874,-1.2414987747311592,-1.2225091198399662,-0.38759668424688276
1772526015331401700,8.471401611328124,-1.7582272311300038,-1.1217606346726416,-0.6894390388406813
1772526015341385000,8.481385009765624,-2.407267477956414,-0.8700541107967495,-0.6896957900807261
1772526015351368000,8.491367919921874,-2.8910458509117363,-0.5286515339046717,-0.5427490328401327
1772526015361350700,8.5013505859375,-3.1313854698598385,-0.18886311421096325,-0.3269210470750928
1772526015371333600,8.511333740234376,-3.1318215231895445,0.15497779574394224,-0.10066146447099744
1772526015381316600,8.521316650390625,-2.915913165664673,0.5092518369078636,0.15151223852522672
1772526015391300600,8.531300537109376,-2.4516888034850357,0.8103089594081043,0.49362011414244766
1772526015401283600,8.54128369140625,-1.7719237480491399,1.0337918438404798,0.8208864675238728
1772526015411266600,8.5512666015625,-1.0505588542461395,1.0923571377947925,1.0460003141589462
1772526015421249500,8.56124951171875,-0.454738740953803,1.0026958638310433,1.13250166278705
1772526015431232800,8.571232666015625,-0.10960311501324176,0.8621095815330744,1.0388568721450864
1772526015441215500,8.581215576171875,0.010383446848392486,0.7604536261320114,0.8569797443639486
1772526015451198500,8.591198486328125,-0.004592588487267494,0.7825883010506629,0.7198908757276833
1772526015461182700,8.6011826171875,-0.028178631258010862,0.8996227351084352,0.7117845800310373
1772526015471165700,8.611165771484375,0.016574118182063103,1.0194245880529285,0.8099768779095262
1772526015481148700,8.621148681640625,0.16299509798288345,1.106901503714919,0.9657500618148595
1772526015491131600,8.631131591796875,0.4045353248924017,1.1481091278940438,1.1010781313236802
1772526015501114600,8.641114501953124,0.7592810752213001,1.1877268525332212,1.1293552545201033
1772526015511097600,8.65109765625,1.0933265673488377,1.1982447394162417,1.1178626043207942
1772526015521080600,8.66108056640625,1.3732313039660453,1.1556281252220273,1.1321364827364682
1772526015531063600,8.6710634765625,1.5853981368750334,1.043892089833319,1.15761842225641
1772526015541047600,8.681047607421876,1.694572212821245,0.8516516081437469,1.1448675156243144
1772526015551030500,8.691030517578126,1.7043945186555385,0.6433852898046374,1.1920553832568228
1772526015561013800,8.701013671875,1.6356974145263432,0.4819952889308333,1.2734287213467061
1772526015570996500,8.71099658203125,1.560532575687766,0.5170251012578606,1.08976945938915
1772526015580979700,8.720979736328125,1.4127467372745275,0.5666480870828032,0.8860326742384582
1772526015590962700,8.730962646484375,1.2409884871214627,0.5774433296024799,0.76523304242827
1772526015600945700,8.740945556640625,1.059758059746027,0.6130912738278508,0.6399407753739506
1772526015610928600,8.7509287109375,0.8218103043705225,0.6819298322543501,0.5231024484101683
1772526015620912600,8.76091259765625,0.5366705897092819,0.7933812054827809,0.4072991635825485
1772526015630895600,8.7708955078125,0.2792027258276939,0.9108157447740435,0.3066477821141481
1772526015640878600,8.780878662109375,0.0508422984868288,1.038323349790275,0.27997356406971813
1772526015650861600,8.790861572265625,-0.1522878260076046,1.1092542043209075,0.3364646090332418
1772526015660844500,8.800844482421875,-0.28842531220316886,1.121603106023371,0.43218869016729294
1772526015670827500,8.81082763671875,-0.34990707812607286,1.1539622378364205,0.45639805246815085
1772526015680810800,8.820810791015624,-0.31721886048913,1.1860600883647798,0.4367102592449635
1772526015690793500,8.83079345703125,-0.16773615503013134,1.1514397336214781,0.4253432081867009
1772526015700777500,8.840777587890624,0.08706278190314769,1.0560592052280902,0.44954197602830825
1772526015710760700,8.8507607421875,0.37127018415033813,0.8611381061524153,0.427050450496003
1772526015720743700,8.86074365234375,0.5651642782658338,0.6212015150472522,0.3790185332547873
1772526015730726700,8.8707265625,0.6514286032676696,0.45499651510715483,0.257302224991098
1772526015740709600,8.880709716796876,0.7040203757703304,0.39779432619959115,0.20354834990650414
1772526015750692600,8.890692626953125,0.8271867367118596,0.4195613368496299,0.29620624840296805
1772526015760675600,8.900675537109375,1.0075947417885065,0.2499956283047795,0.3595203443195671
1772526015770658600,8.910658447265625,1.3478127850711346,-0.1571221142962575,0.26284502687528727
1772526015780642600,8.920642578125,1.5397370404183863,-0.29639322234243154,0.3903815657250583
1772526015790625500,8.93062548828125,1.3431728503108025,-0.006646598407626152,0.5686771086923778
1772526015800608500,8.9406083984375,1.0391069013834,0.178917474257946,0.5612392137765884
1772526015810591700,8.950591796875,0.798532304635644,0.19143267243802548,0.41964360830560327
1772526015820574500,8.960574462890625,0.598096241530776,0.3606014906197786,0.3577052577216178
1772526015830557700,8.9705576171875,0.4650952997952699,0.42345454489588735,0.43083851766735315
1772526015840540700,8.980540771484375,0.3500537931203842,0.22831921854764223,0.35178785037137567
