time,seconds_elapsed,z,y,x
1772526006945535200,0.08553515625,1.5027917623519897,0.23380246758460999,0.20114126801490784
1772526006955518200,0.095518310546875,1.5281320810317993,0.3736717402935028,0.24664156138896942
1772526006965501200,0.105501220703125,1.5652965307235718,0.4957313537597656,0.25697648525238037
1772526006975484200,0.115484130859375,1.624794602394104,0.5891485810279846,0.20567898452281952
1772526006985467100,0.125467041015625,1.698168396949768,0.6547774076461792,0.10964540392160416
1772526006995451100,0.135451171875,1.7866038084030151,0.7147918939590454,-0.0045128935016691685
1772526007005434400,0.145434326171875,1.878900408744812,0.7233617305755615,-0.125851571559906
1772526007015417300,0.155417236328125,1.960893154144287,0.6574558019638062,-0.24212497472763062
1772526007025400000,0.165400146484375,2.0137252807617188,0.5373706817626953,-0.3389045000076294
1772526007035384000,0.175384033203125,2.040468454360962,0.4208947718143463,-0.40641242265701294
1772526007045367300,0.1853671875,2.0411505699157715,0.33120378851890564,-0.42732834815979004
1772526007055350300,0.195350341796875,2.038335084915161,0.23843005299568176,-0.40179163217544556
1772526007065333200,0.205333251953125,2.0425894260406494,0.13861823081970215,-0.3185127377510071
1772526007075316200,0.215316162109375,2.05462646484375,0.04771598428487778,-0.19112512469291687
1772526007085300200,0.22530029296875,2.0687901973724365,-0.028832852840423584,-0.029349006712436676
1772526007095283200,0.235283203125,2.093038320541382,-0.06885138899087906,0.15516896545886993
1772526007105266400,0.245266357421875,2.1424665451049805,-0.07543259114027023,0.34266483783721924
1772526007115249200,0.255249267578125,2.2023355960845947,-0.01835213229060173,0.5048278570175171
1772526007125232000,0.265232177734375,2.2710680961608887,0.07586624473333359,0.6125998497009277
1772526007135216000,0.275216064453125,2.3376426696777344,0.1770404577255249,0.660870373249054
1772526007145199400,0.285199462890625,2.40657377243042,0.28108614683151245,0.6494624614715576
1772526007155182000,0.29518212890625,2.4735443592071533,0.3560945689678192,0.5910906791687012
1772526007165165300,0.305165283203125,2.523986577987671,0.4102613925933838,0.5127106308937073
1772526007175149300,0.3151494140625,2.581960916519165,0.4436357319355011,0.4239991307258606
1772526007185132300,0.32513232421875,2.6397223472595215,0.4241917133331299,0.34466996788978577
1772526007195115300,0.335115234375,2.699923038482666,0.4026552438735962,0.2983834147453308
1772526007205098200,0.34509814453125,2.744725227355957,0.39315149188041687,0.2738815248012543
1772526007215081200,0.355081298828125,2.768733501434326,0.3976733684539795,0.2709718346595764
1772526007225065200,0.365065185546875,2.7775368690490723,0.3942147195339203,0.2916584610939026
1772526007235048200,0.375048095703125,2.781726360321045,0.3653716444969177,0.3343832194805145
1772526007245031200,0.38503125,2.7782058715820312,0.3164496421813965,0.39156022667884827
1772526007255014100,0.39501416015625,2.763324737548828,0.26986798644065857,0.4558653235435486
1772526007264997000,0.4049970703125,2.7339255809783936,0.2167389690876007,0.5117978453636169
1772526007274981400,0.4149814453125,2.6883435249328613,0.17486272752285004,0.5578109622001648
1772526007284964400,0.42496435546875,2.622147560119629,0.15703019499778748,0.5847682952880859
1772526007294947000,0.434947021484375,2.533334970474243,0.16425108909606934,0.5933670401573181
1772526007304930300,0.444930419921875,2.419434070587158,0.18359842896461487,0.5788949131965637
1772526007314914300,0.454914306640625,2.2877984046936035,0.20237421989440918,0.5381754636764526
1772526007324897300,0.464897216796875,2.1387531757354736,0.23467516899108887,0.4948967397212982
1772526007334880300,0.47488037109375,1.9865726232528687,0.3065096139907837,0.4575188159942627
1772526007344863200,0.48486328125,1.8515546321868896,0.4095638394355774,0.43110185861587524
1772526007354846200,0.49484619140625,1.7451651096343994,0.5110132694244385,0.41714340448379517
1772526007364831000,0.5048310546875,1.6700167655944824,0.5969359278678894,0.40266352891921997
1772526007374814000,0.51481396484375,1.6111693382263184,0.6849638223648071,0.3785071074962616
1772526007384797200,0.524797119140625,1.5706552267074585,0.7904937267303467,0.3397170901298523
1772526007394780000,0.53477978515625,1.5454000234603882,0.8939096927642822,0.28607308864593506
1772526007404763000,0.544762939453125,1.5375256538391113,0.98149174451828,0.23056964576244354
1772526007414747000,0.554746826171875,1.5434916019439697,1.0672239065170288,0.18209227919578552
1772526007424730000,0.564730224609375,1.5548195838928223,1.1436033248901367,0.14830262959003448
1772526007434713000,0.574713134765625,1.5676441192626953,1.2119357585906982,0.11600259691476822
1772526007444696000,0.584696044921875,1.589650273323059,1.2598249912261963,0.08447582274675369
1772526007454680000,0.59468017578125,1.6045149564743042,1.3049410581588745,0.04421544820070267
1772526007464663000,0.6046630859375,1.62299644947052,1.334937572479248,0.0035441843792796135
1772526007474646000,0.61464599609375,1.6390434503555298,1.3613708019256592,-0.04362652450799942
1772526007484629000,0.62462890625,1.6521337032318115,1.3875908851623535,-0.09528279304504395
1772526007494612000,0.634612060546875,1.6662092208862305,1.416473627090454,-0.1405360847711563
1772526007504596000,0.644595947265625,1.6887403726577759,1.4306895732879639,-0.17067988216876984
1772526007514579000,0.654578857421875,1.7155330181121826,1.4305912256240845,-0.18132224678993225
1772526007524562200,0.664562255859375,1.74560546875,1.4439432621002197,-0.1680935174226761
1772526007534545000,0.674544921875,1.7902250289916992,1.438541293144226,-0.14678587019443512
1772526007544528100,0.684528076171875,1.825135350227356,1.4050296545028687,-0.11687937378883362
1772526007554512100,0.69451220703125,1.852911114692688,1.376094102859497,-0.09168691188097
1772526007564495000,0.7044951171875,1.88503897190094,1.3533549308776855,-0.08266252279281616
1772526007574477800,0.714477783203125,1.9303653240203857,1.3519012928009033,-0.07921227067708969
1772526007584461000,0.7244609375,1.973450779914856,1.3759294748306274,-0.0954146757721901
1772526007594445000,0.734445068359375,2.012026309967041,1.4010918140411377,-0.13580305874347687
1772526007604428000,0.744427978515625,2.0482490062713623,1.4394314289093018,-0.18745160102844238
1772526007614411000,0.754410888671875,2.0820119380950928,1.475949764251709,-0.24457406997680664
1772526007624394000,0.76439404296875,2.115257978439331,1.486549735069275,-0.3018195331096649
1772526007634377000,0.774376953125,2.151083469390869,1.4717328548431396,-0.34358200430870056
1772526007644361000,0.78436083984375,2.1870243549346924,1.457131028175354,-0.3591822683811188
1772526007654344200,0.79434423828125,2.2119734287261963,1.4501895904541016,-0.35299792885780334
1772526007664327000,0.804326904296875,2.2153007984161377,1.4481762647628784,-0.33521735668182373
1772526007674310000,0.814309814453125,2.204937696456909,1.4531514644622803,-0.3139440417289734
1772526007684293000,0.824293212890625,2.1840264797210693,1.4752492904663086,-0.302171528339386
1772526007694277000,0.834277099609375,2.1472465991973877,1.5068104267120361,-0.31483566761016846
1772526007704260000,0.844260009765625,2.1132333278656006,1.5280964374542236,-0.35146212577819824
1772526007714242800,0.854242919921875,2.0546159744262695,1.5287669897079468,-0.42889827489852905
1772526007724226000,0.86422607421875,1.9956343173980713,1.5140340328216553,-0.5209290981292725
1772526007734210000,0.8742099609375,1.9321318864822388,1.501887559890747,-0.6203773617744446
1772526007744193000,0.884193115234375,1.868753433227539,1.4728423357009888,-0.7185585498809814
1772526007754176300,0.89417626953125,1.796075463294983,1.4412651062011719,-0.8005341291427612
1772526007764159000,0.904158935546875,1.7323724031448364,1.3954163789749146,-0.8663733005523682
1772526007774142000,0.914141845703125,1.6694320440292358,1.3288789987564087,-0.9011977910995483
1772526007784126000,0.9241259765625,1.617509365081787,1.255631685256958,-0.9023149609565735
1772526007794109200,0.934109130859375,1.5833483934402466,1.169994592666626,-0.8654813170433044
1772526007804092000,0.944091796875,1.5519018173217773,1.0403777360916138,-0.804755687713623
1772526007814075000,0.954074951171875,1.5221138000488281,0.8429210782051086,-0.7307134866714478
1772526007824058000,0.96405810546875,1.4692609310150146,0.5985003709793091,-0.6473667025566101
1772526007834042000,0.9740419921875,1.3803906440734863,0.3560754954814911,-0.5588377714157104
1772526007844025000,0.984025146484375,1.2573661804199219,0.14798088371753693,-0.4634327292442322
1772526007854008000,0.994008056640625,1.1146361827850342,0.004491093568503857,-0.36149224638938904
1772526007863991000,1.003990966796875,0.9816076159477234,-0.07249663025140762,-0.26136112213134766
1772526007873974000,1.01397412109375,0.8775749206542969,-0.0780717134475708,-0.16075722873210907
1772526007883958000,1.0239580078125,0.8107931613922119,-0.03661135584115982,-0.07930231839418411
1772526007893941000,1.03394091796875,0.7695052027702332,0.05385768413543701,-0.01756836473941803
1772526007903924000,1.043924072265625,0.7562218904495239,0.19429974257946014,0.018038898706436157
1772526007913907000,1.053906982421875,0.7707170844078064,0.3244946300983429,0.03891248255968094
1772526007923891000,1.063890869140625,0.8149982690811157,0.4221612811088562,0.04022781550884247
1772526007933874200,1.073874267578125,0.8805527687072754,0.45959532260894775,0.030689679086208344
1772526007943857000,1.08385693359375,0.946930468082428,0.4419766664505005,0.024619003757834435
1772526007953840000,1.093840087890625,1.013993740081787,0.40354201197624207,0.0227914247661829
1772526007963823000,1.103822998046875,1.0707286596298218,0.38092803955078125,0.03604517877101898
1772526007973807000,1.11380712890625,1.1018935441970825,0.3776194751262665,0.049566544592380524
1772526007983789800,1.123789794921875,1.1092524528503418,0.37879499793052673,0.04298720508813858
1772526007993773000,1.13377294921875,1.086931824684143,0.37477248907089233,0.007855456322431564
1772526008003756000,1.143756103515625,1.0451825857162476,0.35193294286727905,-0.05330350622534752
1772526008013739000,1.153739013671875,0.9865074753761292,0.28579846024513245,-0.14252270758152008
1772526008023723000,1.163722900390625,0.9073333144187927,0.1667221337556839,-0.24301524460315704
1772526008033706000,1.1737060546875,0.8181321024894714,0.04469386488199234,-0.3317236006259918
1772526008043689000,1.18368896484375,0.7298480272293091,-0.027057019993662834,-0.40143635869026184
1772526008053672200,1.193672119140625,0.6475031971931458,-0.018559712916612625,-0.4500594735145569
1772526008063655200,1.2036552734375,0.5826563239097595,0.028867989778518677,-0.48534876108169556
1772526008073639000,1.213638916015625,0.55230712890625,0.10445466637611389,-0.511742115020752
1772526008083622000,1.223621826171875,0.5467294454574585,0.1956769973039627,-0.5236035585403442
1772526008093605000,1.233605224609375,0.5669910907745361,0.28395166993141174,-0.5167253017425537
1772526008103588000,1.243588134765625,0.5980606079101562,0.3565819263458252,-0.48785582184791565
1772526008113570800,1.25357080078125,0.6283285021781921,0.38699135184288025,-0.45589175820350647
1772526008123555000,1.26355517578125,0.6477847695350647,0.37548327445983887,-0.4289698600769043
1772526008133538000,1.2735380859375,0.6506971120834351,0.3393142521381378,-0.4121754765510559
1772526008143521000,1.28352099609375,0.6415872573852539,0.2989963889122009,-0.3949248492717743
1772526008153504300,1.293504150390625,0.6228166818618774,0.2555042803287506,-0.38381245732307434
1772526008163487000,1.303487060546875,0.6013601422309875,0.18701337277889252,-0.3783961236476898
1772526008173471000,1.313470947265625,0.5766793489456177,0.10073933005332947,-0.3832114040851593
1772526008183454000,1.323453857421875,0.5439328551292419,0.012208666652441025,-0.3868178427219391
1772526008193437200,1.333437255859375,0.5126008987426758,-0.06935571879148483,-0.38633495569229126
1772526008203420000,1.343419921875,0.4802190065383911,-0.14010019600391388,-0.3821444809436798
1772526008213404000,1.35340380859375,0.4481393098831177,-0.1771358996629715,-0.3792266249656677
1772526008223387000,1.363386962890625,0.4163723289966583,-0.18045605719089508,-0.38013529777526855
1772526008233370000,1.3733701171875,0.3927929103374481,-0.16410945355892181,-0.38752153515815735
1772526008243353000,1.38335302734375,0.38426893949508667,-0.16347269713878632,-0.38977086544036865
1772526008253336000,1.393336181640625,0.3821917772293091,-0.17256195843219757,-0.37702062726020813
1772526008263320000,1.403320068359375,0.3855700194835663,-0.1902104616165161,-0.34162643551826477
1772526008273303000,1.413302978515625,0.38797885179519653,-0.2249252200126648,-0.27884015440940857
1772526008283286000,1.4232861328125,0.3922468423843384,-0.25926828384399414,-0.19437535107135773
1772526008293269000,1.43326904296875,0.4030281901359558,-0.27262017130851746,-0.10310187935829163
1772526008303252000,1.443251953125,0.41459429264068604,-0.27002865076065063,-0.008657664060592651
1772526008313236000,1.453236083984375,0.43033862113952637,-0.24524424970149994,0.06428959220647812
1772526008323219000,1.463218994140625,0.4334489405155182,-0.21602457761764526,0.10760457813739777
1772526008333202200,1.4732021484375,0.42519280314445496,-0.1751057207584381,0.11454147845506668
1772526008343185000,1.483184814453125,0.4044491946697235,-0.12605854868888855,0.09699683636426926
1772526008353168100,1.493168212890625,0.371234655380249,-0.07963519543409348,0.06358786672353745
1772526008363151600,1.503151611328125,0.33968180418014526,-0.04121190309524536,0.03418204188346863
1772526008373134600,1.513134521484375,0.32249152660369873,-0.0023667076602578163,0.01366012915968895
1772526008383117300,1.523117431640625,0.3181940019130707,0.02399326115846634,0.0063143325969576836
1772526008393100500,1.5331005859375,0.3309814929962158,0.03280038386583328,0.009249040856957436
1772526008403083500,1.54308349609375,0.3369898498058319,0.0315641425549984,0.028502896428108215
1772526008413067500,1.553067626953125,0.34208089113235474,0.04538993164896965,0.057022444903850555
1772526008423050800,1.56305078125,0.3364277780056,0.06648536026477814,0.08897851407527924
1772526008433033500,1.573033447265625,0.32875290513038635,0.10706710815429688,0.11252732574939728
1772526008443016400,1.583016357421875,0.32446467876434326,0.157677561044693,0.12227289378643036
1772526008452999700,1.592999755859375,0.3245929479598999,0.19277451932430267,0.11167093366384506
1772526008462983700,1.602983642578125,0.3334849774837494,0.17208628356456757,0.08616264909505844
1772526008472966400,1.61296630859375,0.342296838760376,0.12351422011852264,0.05612112954258919
1772526008482949400,1.622949462890625,0.3536671996116638,0.07839947193861008,0.04565783590078354
1772526008492932600,1.6329326171875,0.35981881618499756,0.0367274172604084,0.04853372275829315
1772526008502915600,1.64291552734375,0.35693061351776123,-0.017006119713187218,0.07081718742847443
1772526008512899600,1.652899658203125,0.35868895053863525,-0.04316256567835808,0.10621342062950134
1772526008522882600,1.662882568359375,0.3615611791610718,-0.04209516942501068,0.14023955166339874
1772526008532865500,1.672865478515625,0.33442381024360657,-0.07827763259410858,0.15744777023792267
1772526008542848500,1.6828486328125,0.27529898285865784,-0.11257222294807434,0.1636129915714264
1772526008552831500,1.69283154296875,0.20157656073570251,-0.10123736411333084,0.18653710186481476
1772526008562815500,1.7028154296875,0.14153745770454407,-0.0729343518614769,0.2195025086402893
1772526008572798500,1.712798583984375,0.09675703942775726,-0.05738462880253792,0.25427740812301636
1772526008582781400,1.722781494140625,0.07060692459344864,-0.013298660516738892,0.29499101638793945
1772526008592764700,1.7327646484375,0.06606196612119675,0.09365438669919968,0.3441160321235657
1772526008602747400,1.742747314453125,0.09692587703466415,0.24880962073802948,0.382790207862854
1772526008612731400,1.7527314453125,0.14781346917152405,0.40524694323539734,0.379954069852829
1772526008622714600,1.762714599609375,0.208976149559021,0.5120029449462891,0.3307148814201355
1772526008632697600,1.772697509765625,0.25277653336524963,0.5717960596084595,0.24804751574993134
1772526008642680300,1.782680419921875,0.2774035632610321,0.5917207598686218,0.14968234300613403
1772526008652663600,1.79266357421875,0.2697453796863556,0.5834041237831116,0.06281618028879166
1772526008662647600,1.8026474609375,0.23352107405662537,0.5550755858421326,-0.004180167336016893
1772526008672630500,1.812630615234375,0.17093263566493988,0.5096300840377808,-0.05241944640874863
1772526008682613500,1.822613525390625,0.09366874396800995,0.44241589307785034,-0.08372197300195694
1772526008692596500,1.832596435546875,0.01747223734855652,0.36362865567207336,-0.1091543659567833
1772526008702579500,1.842579345703125,-0.042543429881334305,0.27864691615104675,-0.11931006610393524
1772526008712563500,1.8525634765625,-0.08266537636518478,0.1865931898355484,-0.11275367438793182
1772526008722546700,1.862546630859375,-0.10173947364091873,0.10494972765445709,-0.09821760654449463
1772526008732529700,1.87252978515625,-0.1089029312133789,0.06662393361330032,-0.0618244931101799
1772526008742512400,1.882512451171875,-0.09147521108388901,0.07028684765100479,-0.0077977427281439304
1772526008752495600,1.89249560546875,-0.04089333489537239,0.10751242935657501,0.06549022346735
1772526008762479600,1.902479736328125,0.029552863910794258,0.14686143398284912,0.1420438438653946
1772526008772462600,1.912462646484375,0.12241895496845245,0.15846630930900574,0.20222912728786469
1772526008782445300,1.9224453125,0.2181534618139267,0.1373692899942398,0.23575325310230255
1772526008792428500,1.932428466796875,0.3036772608757019,0.09852351993322372,0.24443694949150085
1772526008802411500,1.94241162109375,0.3735106885433197,0.053580015897750854,0.24403373897075653
1772526008812395500,1.9523955078125,0.4265216886997223,-0.012935508042573929,0.23984622955322266
1772526008822378800,1.962378662109375,0.45800265669822693,-0.1131419986486435,0.22958798706531525
1772526008832361500,1.972361572265625,0.45619624853134155,-0.24660222232341766,0.2084800899028778
1772526008842344400,1.982344482421875,0.4184994697570801,-0.41058048605918884,0.17423716187477112
1772526008852327700,1.99232763671875,0.3630535900592804,-0.5626197457313538,0.1324700266122818
1772526008862311700,2.002311767578125,0.29888445138931274,-0.6673863530158997,0.1011030450463295
1772526008872294400,2.01229443359375,0.2242846041917801,-0.7106474041938782,0.07733861356973648
1772526008882277400,2.02227734375,0.14374183118343353,-0.6931557655334473,0.06728464365005493
1772526008892260600,2.032260498046875,0.06558825820684433,-0.6519759893417358,0.07588907331228256
1772526008902243600,2.04224365234375,0.0007272348739206791,-0.581732988357544,0.10925714671611786
1772526008912227600,2.0522275390625,-0.03328876942396164,-0.4866624176502228,0.16309142112731934
1772526008922210600,2.06221044921875,-0.04434487968683243,-0.38146355748176575,0.2240612953901291
1772526008932193500,2.072193603515625,-0.03790224716067314,-0.2408168464899063,0.29555657505989075
1772526008942176500,2.082176513671875,-0.015918653458356857,-0.08242321759462357,0.36787551641464233
1772526008952159700,2.09215966796875,0.00964493490755558,0.06882544606924057,0.42175546288490295
1772526008962143500,2.1021435546875,0.019519934430718422,0.19131381809711456,0.45450809597969055
1772526008972126500,2.11212646484375,0.017206167802214622,0.30141326785087585,0.46740394830703735
1772526008982109400,2.122109375,0.005662962328642607,0.40479639172554016,0.47935834527015686
1772526008992092700,2.1320927734375,-0.01861787587404251,0.5077123641967773,0.48392754793167114
1772526009002075400,2.142075439453125,-0.05339731648564339,0.5857598781585693,0.4807192385196686
1772526009012059400,2.152059326171875,-0.10295962542295456,0.6299744844436646,0.4589247405529022
1772526009022042600,2.162042724609375,-0.1619052290916443,0.6237480044364929,0.414148211479187
1772526009032025600,2.172025634765625,-0.2238181084394455,0.554226279258728,0.3491012156009674
1772526009042008600,2.182008544921875,-0.29906758666038513,0.44057345390319824,0.27286502718925476
1772526009051991600,2.191991455078125,-0.37331125140190125,0.3125000298023224,0.184024378657341
1772526009061975600,2.2019755859375,-0.44021785259246826,0.1729903370141983,0.09867405891418457
1772526009071958500,2.21195849609375,-0.5078609585762024,0.05707760900259018,0.011341794393956661
1772526009081941500,2.22194140625,-0.5651364922523499,-0.05418686196208,-0.09170043468475342
1772526009091924500,2.231924560546875,-0.6039782166481018,-0.1829366683959961,-0.20804019272327423
1772526009101907500,2.241907470703125,-0.6240257024765015,-0.3135159909725189,-0.33867835998535156
1772526009111890400,2.251890380859375,-0.6342058181762695,-0.41549456119537354,-0.48306670784950256
1772526009121874700,2.261874755859375,-0.6508881449699402,-0.4771728217601776,-0.6309168934822083
1772526009131857700,2.271857666015625,-0.6774590611457825,-0.5196781754493713,-0.7917647361755371
1772526009141840400,2.28184033203125,-0.7092010378837585,-0.5653417706489563,-0.9433097839355469
1772526009151823600,2.29182373046875,-0.7251120209693909,-0.6350651979446411,-1.0720233917236328
1772526009161807600,2.3018076171875,-0.7215561866760254,-0.724134624004364,-1.1463871002197266
1772526009171790600,2.31179052734375,-0.6883538961410522,-0.7862675189971924,-1.1371040344238281
1772526009181773300,2.321773193359375,-0.6227807402610779,-0.779946506023407,-1.0394783020019531
1772526009191756500,2.331756591796875,-0.5489069819450378,-0.7490141987800598,-0.8722404837608337
1772526009201739500,2.341739501953125,-0.49071237444877625,-0.7303131818771362,-0.6835030317306519
1772526009211722500,2.351722412109375,-0.4670611023902893,-0.7161737680435181,-0.49463993310928345
1772526009221706800,2.361706787109375,-0.4654671847820282,-0.6425924897193909,-0.3007522523403168
1772526009231689500,2.371689453125,-0.46076545119285583,-0.4911171495914459,-0.11419997364282608
1772526009241672400,2.38167236328125,-0.44016405940055847,-0.37328478693962097,0.030910877510905266
1772526009251655700,2.39165576171875,-0.437412291765213,-0.28401950001716614,0.140272855758667
1772526009261638700,2.401638671875,-0.42053183913230896,-0.14584539830684662,0.23654906451702118
1772526009271622400,2.411622314453125,-0.3812348544597626,0.017795754596590996,0.3279707729816437
1772526009281605400,2.42160546875,-0.3191099762916565,0.12292163819074631,0.3849717676639557
1772526009291588600,2.431588623046875,-0.2586499750614166,0.18064875900745392,0.39804407954216003
1772526009301571600,2.441571533203125,-0.2176910936832428,0.18656016886234283,0.35914966464042664
1772526009311554300,2.45155419921875,-0.21080048382282257,0.1723206639289856,0.27681535482406616
1772526009321538600,2.46153857421875,-0.23845021426677704,0.1525869071483612,0.16082298755645752
1772526009331521500,2.471521484375,-0.27909812331199646,0.12487993389368057,0.024497313424944878
1772526009341504500,2.48150439453125,-0.34170448780059814,0.06055421382188797,-0.11027354747056961
1772526009351487700,2.49148779296875,-0.4175546169281006,0.0031014070846140385,-0.22522057592868805
1772526009361470700,2.501470703125,-0.4990883469581604,-0.015213418751955032,-0.2836439311504364
1772526009371453700,2.51145361328125,-0.5689899921417236,-0.01751386746764183,-0.30796071887016296
1772526009381437700,2.521437744140625,-0.6144770383834839,-0.03720128536224365,-0.301941454410553
1772526009391421000,2.5314208984375,-0.6275525689125061,-0.062395501881837845,-0.2784533202648163
1772526009401403600,2.541403564453125,-0.6128665804862976,-0.10586121678352356,-0.2402966171503067
1772526009411386600,2.55138671875,-0.592597484588623,-0.16769231855869293,-0.19747920334339142
1772526009421369900,2.561369873046875,-0.5573742985725403,-0.2197858840227127,-0.15272317826747894
1772526009431353900,2.571353759765625,-0.5173385739326477,-0.2676306962966919,-0.09836075454950333
1772526009441336600,2.581336669921875,-0.4740816354751587,-0.29589134454727173,-0.03677702695131302
1772526009451319800,2.59131982421875,-0.4261660575866699,-0.3038581609725952,0.04125218838453293
1772526009461302800,2.601302734375,-0.3601614534854889,-0.2651618719100952,0.1341879814863205
1772526009471285800,2.61128564453125,-0.2718713581562042,-0.19417980313301086,0.24189221858978271
1772526009481269800,2.621269775390625,-0.16853085160255432,-0.12374212592840195,0.34485986828804016
1772526009491252700,2.631252685546875,-0.06464876979589462,-0.09990082681179047,0.42188939452171326
1772526009501235700,2.641235595703125,0.02573571912944317,-0.10147209465503693,0.4793311357498169
1772526009511218700,2.65121875,0.09987584501504898,-0.10318241268396378,0.5043742060661316
1772526009521202000,2.661201904296875,0.15191666781902313,-0.12257182598114014,0.489846408367157
1772526009531185700,2.671185546875,0.1896173357963562,-0.15817132592201233,0.4301856756210327
1772526009541168600,2.681168701171875,0.20589616894721985,-0.20797137916088104,0.3330698013305664
1772526009551151900,2.69115185546875,0.19179971516132355,-0.2543390989303589,0.21271367371082306
1772526009561134800,2.701134765625,0.15081526339054108,-0.26391953229904175,0.1024383082985878
1772526009571117600,2.71111767578125,0.0978531762957573,-0.21783176064491272,0.022814761847257614
1772526009581101600,2.7211015625,0.041663140058517456,-0.14321930706501007,-0.030697200447320938
1772526009591084800,2.731084716796875,-0.011595100164413452,-0.034861721098423004,-0.04539189487695694
1772526009601067800,2.74106787109375,-0.026639029383659363,0.0754900872707367,-0.0396951287984848
1772526009611050800,2.75105078125,-0.01526620052754879,0.18995028734207153,-0.014866070821881294
1772526009621033700,2.76103369140625,0.0323449932038784,0.2987537086009979,0.020679673179984093
1772526009631016700,2.7710166015625,0.09741809219121933,0.3953312933444977,0.057540155947208405
1772526009641000700,2.781000732421875,0.17235518991947174,0.4624112844467163,0.08826477825641632
1772526009650984000,2.79098388671875,0.23865245282649994,0.5011147856712341,0.11289015412330627
1772526009660966700,2.800966552734375,0.30219441652297974,0.527052104473114,0.13245825469493866
1772526009670949600,2.81094970703125,0.3489310145378113,0.5297828316688538,0.14728203415870667
1772526009680932900,2.820932861328125,0.3815203905105591,0.5369091629981995,0.16399522125720978
1772526009690916900,2.830916748046875,0.3955436050891876,0.522495687007904,0.1649642437696457
1772526009700899800,2.84089990234375,0.3905128836631775,0.48409637808799744,0.1511877179145813
1772526009710882600,2.850882568359375,0.38101986050605774,0.4289240837097168,0.11966629326343536
1772526009720865800,2.86086572265625,0.35562530159950256,0.37051162123680115,0.07506152987480164
1772526009730848800,2.870848876953125,0.32370617985725403,0.3223436772823334,0.02459629252552986
1772526009740832800,2.880832763671875,0.27904337644577026,0.27968356013298035,-0.03647318854928017
1772526009750815700,2.890815673828125,0.22000578045845032,0.21694660186767578,-0.1074063777923584
1772526009760798700,2.900798828125,0.13828055560588837,0.12998880445957184,-0.19009140133857727
1772526009770781700,2.91078173828125,0.033484190702438354,0.08621638268232346,-0.2692710757255554
1772526009780765000,2.920764892578125,-0.10143420845270157,0.10783831775188446,-0.3515273332595825
1772526009790747600,2.93074755859375,-0.2580636739730835,0.1543830931186676,-0.4430786073207855
1772526009800731600,2.940731689453125,-0.42770224809646606,0.21640758216381073,-0.5392144918441772
1772526009810714600,2.950714599609375,-0.5717195868492126,0.2599922716617584,-0.6256706714630127
1772526009820697900,2.96069775390625,-0.6815440654754639,0.2597419321537018,-0.6854516863822937
1772526009830680800,2.970680908203125,-0.7454922795295715,0.2206314206123352,-0.7018160223960876
1772526009840663600,2.98066357421875,-0.7662543058395386,0.14939585328102112,-0.6752259731292725
1772526009850647800,2.990647705078125,-0.746449887752533,0.07277935743331909,-0.6061917543411255
1772526009860630800,3.000630859375,-0.6921288371086121,0.006356394849717617,-0.5167822241783142
1772526009870613800,3.01061376953125,-0.5965986251831055,-0.05285755544900894,-0.4122672379016876
1772526009880596700,3.0205966796875,-0.45686280727386475,-0.09654564410448074,-0.3069456219673157
1772526009890579700,3.030579833984375,-0.2943923771381378,-0.14308208227157593,-0.20839835703372955
1772526009900563700,3.040563720703125,-0.12103445082902908,-0.20811007916927338,-0.10801050812005997
1772526009910546700,3.050546630859375,0.05503138527274132,-0.2590590715408325,0.004110322333872318
1772526009920530000,3.060530029296875,0.22602416574954987,-0.2994520366191864,0.12345749139785767
1772526009930512600,3.0705126953125,0.3761397898197174,-0.34655284881591797,0.23084624111652374
1772526009940495600,3.08049560546875,0.5037805438041687,-0.4037143886089325,0.316280722618103
1772526009950478800,3.090478759765625,0.6186866164207458,-0.41550126671791077,0.37519270181655884
1772526009960462800,3.100462890625,0.7290008664131165,-0.33400800824165344,0.3950551152229309
1772526009970445600,3.110445556640625,0.8206790685653687,-0.2695079743862152,0.3540182411670685
1772526009980428800,3.1204287109375,0.8562005758285522,-0.26667436957359314,0.2604829668998718
1772526009990411800,3.130411865234375,0.8186874985694885,-0.2326274812221527,0.1479838639497757
1772526010000394800,3.140394775390625,0.7274710536003113,-0.16366465389728546,0.029765617102384567
1772526010010378800,3.150378662109375,0.5961446166038513,-0.11014088243246078,-0.0873420313000679
1772526010020361700,3.16036181640625,0.45208436250686646,-0.07370644062757492,-0.19817028939723969
1772526010030344700,3.1703447265625,0.32218122482299805,-0.03741445392370224,-0.29071831703186035
1772526010040327700,3.18032763671875,0.23312430083751678,0.018831772729754448,-0.35015928745269775
1772526010050311000,3.190310791015625,0.17019400000572205,0.09376518428325653,-0.39337772130966187
1772526010060293600,3.200293701171875,0.12920956313610077,0.15822432935237885,-0.4246288537979126
1772526010070277600,3.210277587890625,0.08673620223999023,0.22065331041812897,-0.4462149739265442
1772526010080260900,3.2202607421875,0.024296794086694717,0.2807224988937378,-0.4622298777103424
1772526010090243800,3.230243896484375,-0.054298657923936844,0.3349313735961914,-0.47504180669784546
1772526010100226600,3.2402265625,-0.14632338285446167,0.3852965533733368,-0.4948594868183136
1772526010110209800,3.250209716796875,-0.2250823974609375,0.4388904273509979,-0.509954035282135
1772526010120193800,3.26019384765625,-0.2589452862739563,0.5257736444473267,-0.5045099854469299
1772526010130176800,3.2701767578125,-0.2328268438577652,0.6352060437202454,-0.4656555950641632
1772526010140159700,3.28015966796875,-0.15441779792308807,0.7912886142730713,-0.3997191786766052
1772526010150142700,3.290142822265625,-0.04466904327273369,0.9795283675193787,-0.31375807523727417
1772526010160125700,3.300125732421875,0.06794857978820801,1.0967131853103638,-0.24496090412139893
1772526010170109700,3.310109619140625,0.1805865317583084,1.1133304834365845,-0.19824007153511047
1772526010180093000,3.320093017578125,0.28706398606300354,1.0297653675079346,-0.18061260879039764
1772526010190075600,3.33007568359375,0.36646777391433716,0.8414649963378906,-0.17370450496673584
1772526010200058600,3.34005859375,0.42264315485954285,0.5797407031059265,-0.16550250351428986
1772526010210041900,3.350041748046875,0.4438118040561676,0.27657806873321533,-0.1458253264427185
1772526010220024800,3.36002490234375,0.42691537737846375,-0.00970401894301176,-0.1096675768494606
1772526010230008800,3.3700087890625,0.3970240354537964,-0.26864227652549744,-0.05828896909952164
1772526010239991600,3.379991455078125,0.3757360577583313,-0.481399804353714,-0.0035996236838400364
1772526010249974800,3.389974853515625,0.34841954708099365,-0.6373093128204346,0.06763934344053268
1772526010259957800,3.399957763671875,0.3345138728618622,-0.699951708316803,0.1552104651927948
1772526010269940700,3.409940673828125,0.3031448721885681,-0.6966427564620972,0.23886965215206146
1772526010279924700,3.4199248046875,0.25782930850982666,-0.6082122325897217,0.3056289851665497
1772526010289907700,3.42990771484375,0.22340449690818787,-0.4583028554916382,0.35517096519470215
1772526010299890700,3.439890625,0.20436184108257294,-0.27491649985313416,0.38413286209106445
1772526010309874000,3.4498740234375,0.2179342657327652,-0.08909951895475388,0.4006116986274719
1772526010319856600,3.459856689453125,0.25709018111228943,0.06129558011889458,0.3974537253379822
1772526010329839600,3.469839599609375,0.3196386396884918,0.15876804292201996,0.3830202519893646
1772526010339823600,3.47982373046875,0.38400617241859436,0.20493286848068237,0.353299617767334
1772526010349806800,3.489806884765625,0.45001286268234253,0.23272758722305298,0.32847872376441956
1772526010359789800,3.499789794921875,0.5001040101051331,0.2411264032125473,0.3071412146091461
1772526010369773000,3.50977294921875,0.535424530506134,0.2164633870124817,0.2883017957210541
1772526010379756300,3.51975634765625,0.5506317019462585,0.18054427206516266,0.2753545939922333
1772526010389740000,3.529739990234375,0.5460513234138489,0.13664884865283966,0.2699044644832611
1772526010399723000,3.539722900390625,0.5222945809364319,0.09470539540052414,0.2642580270767212
1772526010409706200,3.549706298828125,0.4910751283168793,0.03505348786711693,0.25689420104026794
1772526010419689200,3.559689208984375,0.44133260846138,-0.04823740944266319,0.24287663400173187
1772526010429672000,3.569671875,0.3917354941368103,-0.12898898124694824,0.22098970413208008
1772526010439655200,3.5796552734375,0.3461506962776184,-0.2195894420146942,0.1829904019832611
1772526010449639200,3.58963916015625,0.310145765542984,-0.293806791305542,0.13046959042549133
1772526010459622100,3.5996220703125,0.2921033799648285,-0.3482772409915924,0.062314506620168686
1772526010469605000,3.609605224609375,0.2807525098323822,-0.3790035843849182,-0.0064589595422148705
1772526010479588000,3.619588134765625,0.2666478753089905,-0.40219518542289734,-0.06996282935142517
1772526010489571000,3.629571044921875,0.24200846254825592,-0.4196300804615021,-0.12458647787570953
1772526010499555000,3.63955517578125,0.20851841568946838,-0.4268485903739929,-0.16558770835399628
1772526010509538000,3.6495380859375,0.16991159319877625,-0.4182594418525696,-0.18910028040409088
1772526010519521000,3.65952099609375,0.12003777921199799,-0.4057822823524475,-0.20911340415477753
1772526010529504000,3.66950390625,0.05663388967514038,-0.39155468344688416,-0.21729262173175812
1772526010539487200,3.6794873046875,0.006574186496436596,-0.37927350401878357,-0.2048276960849762
1772526010549470200,3.68947021484375,-0.03396482765674591,-0.38266727328300476,-0.17895084619522095
1772526010559454200,3.6994541015625,-0.0591556653380394,-0.40155094861984253,-0.13864976167678833
1772526010569437000,3.70943701171875,-0.06252554059028625,-0.4185076355934143,-0.07836738973855972
1772526010579420200,3.719420166015625,-0.052354659885168076,-0.44918298721313477,-0.011033358983695507
1772526010589403100,3.729403076171875,-0.03496333211660385,-0.46959513425827026,0.06664478778839111
1772526010599386000,3.73938623046875,-0.005374545231461525,-0.4620397686958313,0.15574589371681213
1772526010609369000,3.749369140625,0.04567434638738632,-0.35801464319229126,0.2657037675380707
1772526010619353000,3.75935302734375,0.12757399678230286,-0.22685502469539642,0.380144864320755
1772526010629336000,3.769336181640625,0.18833090364933014,-0.2363613396883011,0.4525373876094818
1772526010639319300,3.7793193359375,0.18187087774276733,-0.342786580324173,0.4695046544075012
1772526010649302000,3.789302001953125,0.11798413097858429,-0.4385729134082794,0.44141948223114014
1772526010659285000,3.799284912109375,0.01730119064450264,-0.5442513823509216,0.36534547805786133
1772526010669269000,3.80926904296875,-0.1256241351366043,-0.7224128246307373,0.22503536939620972
1772526010679252200,3.819252197265625,-0.3058532774448395,-0.9371717572212219,0.031230205669999123
1772526010689235200,3.829235107421875,-0.496160626411438,-1.1163207292556763,-0.1581069976091385
1772526010699218000,3.839218017578125,-0.6743301153182983,-1.1943907737731934,-0.29754212498664856
1772526010709201200,3.849201171875,-0.810467541217804,-1.182605504989624,-0.3650309443473816
1772526010719185200,3.85918505859375,-0.8665177822113037,-1.1342628002166748,-0.3706347644329071
1772526010729168100,3.869168212890625,-0.8530653119087219,-1.0042684078216553,-0.3125770092010498
1772526010739151000,3.879151123046875,-0.782447099685669,-0.7712913751602173,-0.21173030138015747
1772526010749134000,3.889134033203125,-0.6474469900131226,-0.48063838481903076,-0.08464954048395157
1772526010759117000,3.899116943359375,-0.46711739897727966,-0.18619345128536224,0.04319284111261368
1772526010769100300,3.909100341796875,-0.232151597738266,0.10125823318958282,0.1705714762210846
1772526010779084300,3.919084228515625,0.047215331345796585,0.3444831371307373,0.2864261567592621
1772526010789067000,3.92906689453125,0.3351724147796631,0.5101078748703003,0.38900208473205566
1772526010799050000,3.939050048828125,0.5882771015167236,0.5634251832962036,0.4543328881263733
1772526010809033200,3.949033203125,0.7761460542678833,0.49577921628952026,0.4791920781135559
1772526010819016200,3.95901611328125,0.8995566964149475,0.3290640115737915,0.4774181544780731
1772526010828999200,3.968999267578125,0.9692691564559937,0.10589013993740082,0.4535081088542938
1772526010838983200,3.978983154296875,0.9968640208244324,-0.13730838894844055,0.4098764657974243
1772526010848966100,3.988966064453125,0.9677421450614929,-0.3816997706890106,0.3493918776512146
1772526010858949000,3.99894921875,0.8769795298576355,-0.5602753758430481,0.27567610144615173
1772526010868932000,4.00893212890625,0.7416672110557556,-0.6187321543693542,0.1981285810470581
1772526010878915000,4.0189150390625,0.5783400535583496,-0.5674828290939331,0.11854001879692078
1772526010888899000,4.028899169921875,0.4089854061603546,-0.43599745631217957,0.03742188215255737
1772526010898882000,4.038882080078125,0.24785487353801727,-0.236002579331398,-0.046626683324575424
1772526010908865300,4.048865234375,0.09343963861465454,-0.01114799827337265,-0.1269437074661255
1772526010918848000,4.058847900390625,-0.03744274005293846,0.20765066146850586,-0.20989371836185455
1772526010928831000,4.0688310546875,-0.14887696504592896,0.3816910684108734,-0.29445019364356995
1772526010938814200,4.078814208984375,-0.24841952323913574,0.5096067190170288,-0.3769453167915344
1772526010948798200,4.088798095703125,-0.3227677643299103,0.600801944732666,-0.4620401859283447
1772526010958781000,4.098781005859375,-0.38448625802993774,0.6394997835159302,-0.5348959565162659
1772526010968764200,4.10876416015625,-0.43690550327301025,0.6459158658981323,-0.57887864112854
1772526010978747100,4.1187470703125,-0.46778592467308044,0.6323795318603516,-0.5762221217155457
1772526010988730000,4.128730224609375,-0.48014259338378906,0.6193368434906006,-0.5349923372268677
1772526010998713000,4.138713134765625,-0.4817253053188324,0.6047744154930115,-0.46479517221450806
1772526011008697000,4.148697021484375,-0.4756225347518921,0.6039588451385498,-0.388272762298584
1772526011018680000,4.15868017578125,-0.4769115149974823,0.6028664112091064,-0.31757408380508423
1772526011028663000,4.1686630859375,-0.48205363750457764,0.5715431571006775,-0.2586112916469574
1772526011038646300,4.178646240234375,-0.4826158285140991,0.5204914212226868,-0.21934989094734192
1772526011048629000,4.18862890625,-0.47708457708358765,0.4783984124660492,-0.17236609756946564
1772526011058613000,4.198613037109375,-0.46182146668434143,0.44533661007881165,-0.1256827563047409
1772526011068596200,4.20859619140625,-0.44482558965682983,0.4013584554195404,-0.08612329512834549
1772526011078579200,4.2185791015625,-0.42447930574417114,0.3424845039844513,-0.060236044228076935
1772526011088562000,4.22856201171875,-0.387208491563797,0.2776762545108795,-0.047797080129384995
1772526011098545200,4.238545166015625,-0.3479849100112915,0.20519143342971802,-0.04480155557394028
1772526011108528000,4.248528076171875,-0.30852529406547546,0.15136177837848663,-0.0455302819609642
1772526011118512000,4.25851220703125,-0.27023595571517944,0.11494012922048569,-0.044654108583927155
1772526011128495000,4.2684951171875,-0.23534364998340607,0.09837623685598373,-0.043421659618616104
1772526011138478000,4.27847802734375,-0.20517003536224365,0.09081099182367325,-0.038377899676561356
1772526011148461000,4.2884609375,-0.18415381014347076,0.08159588277339935,-0.03162536397576332
1772526011158444300,4.2984443359375,-0.15408670902252197,0.07573053985834122,-0.017732717096805573
1772526011168427000,4.308427001953125,-0.11208617687225342,0.06899430602788925,0.008572712540626526
1772526011178411000,4.318410888671875,-0.049771666526794434,0.0584455281496048,0.04205770418047905
1772526011188394000,4.32839404296875,0.01582980528473854,0.05879197269678116,0.07915426045656204
1772526011198377200,4.338377197265625,0.08067138493061066,0.0837540477514267,0.12110783904790878
1772526011208360200,4.348360107421875,0.13006289303302765,0.10260885953903198,0.15262176096439362
1772526011218343000,4.358343017578125,0.154075026512146,0.08774842321872711,0.16597218811511993
1772526011228326100,4.368326171875,0.16646039485931396,0.05750037357211113,0.17943048477172852
1772526011238310100,4.37831005859375,0.16900211572647095,0.02248406782746315,0.19933921098709106
1772526011248293000,4.388293212890625,0.17634917795658112,-0.015497472137212753,0.23539160192012787
1772526011258276400,4.3982763671875,0.1964845359325409,-0.05224936082959175,0.28908571600914
1772526011268259000,4.408259033203125,0.22663238644599915,-0.039124201983213425,0.359331876039505
1772526011278242000,4.418241943359375,0.29385724663734436,0.09506609290838242,0.44548967480659485
1772526011288225300,4.428225341796875,0.3757416605949402,0.19293665885925293,0.533136248588562
1772526011298209300,4.438209228515625,0.42333874106407166,0.18393303453922272,0.57415372133255
1772526011308192000,4.44819189453125,0.41619768738746643,0.07866647839546204,0.5578455328941345
1772526011318175000,4.458175048828125,0.3429194986820221,-0.07115950435400009,0.4732019901275635
1772526011328158200,4.468158203125,0.20915275812149048,-0.2630058825016022,0.32123667001724243
1772526011338141200,4.47814111328125,0.04538671672344208,-0.45644140243530273,0.1326337456703186
1772526011348125200,4.488125244140625,-0.10461513698101044,-0.571558952331543,-0.04733487591147423
1772526011358108200,4.498108154296875,-0.18486683070659637,-0.592473566532135,-0.15979351103305817
1772526011368090400,4.50809033203125,-0.18018676340579987,-0.587760329246521,-0.19806574285030365
1772526011378073000,4.518072998046875,-0.1254071295261383,-0.564600944519043,-0.15806744992733002
1772526011388056300,4.528056396484375,-0.050750650465488434,-0.5058661103248596,-0.0823371484875679
1772526011398039300,4.538039306640625,0.02443810924887657,-0.4296887516975403,-0.013916278257966042
1772526011408023300,4.548023193359375,0.08788763731718063,-0.3366526961326599,0.010530761443078518
1772526011418006300,4.55800634765625,0.13301411271095276,-0.19353415071964264,-0.004510239697992802
1772526011427989200,4.5679892578125,0.16560420393943787,-0.019387152045965195,-0.027130819857120514
1772526011437972200,4.57797216796875,0.184499591588974,0.14635148644447327,-0.035510722547769547
1772526011447955500,4.58795556640625,0.19811414182186127,0.2570900619029999,-0.030667681246995926
1772526011457938200,4.597938232421875,0.2052207887172699,0.2911936938762665,-0.022960495203733444
1772526011467922200,4.607922119140625,0.2251511663198471,0.29532697796821594,-0.009548122994601727
1772526011477905200,4.6179052734375,0.2601163387298584,0.3342472016811371,0.012704983353614807
1772526011487888400,4.627888427734375,0.30870017409324646,0.43487104773521423,0.06196258217096329
1772526011497871000,4.63787109375,0.34900686144828796,0.5486699938774109,0.1182309091091156
1772526011507854300,4.647854248046875,0.371881902217865,0.6390219330787659,0.16264064610004425
1772526011517837300,4.65783740234375,0.3803728520870209,0.6959232687950134,0.18155282735824585
1772526011527821300,4.6678212890625,0.3714117705821991,0.7174838185310364,0.17550858855247498
1772526011537804300,4.67780419921875,0.35596171021461487,0.6998957395553589,0.13355128467082977
1772526011547787300,4.687787353515625,0.33291178941726685,0.654833972454071,0.06889771670103073
1772526011557770200,4.697770263671875,0.30503472685813904,0.59459388256073,0.001778172329068184
1772526011567753200,4.707753173828125,0.28393080830574036,0.4849606156349182,-0.06437275558710098
1772526011577736400,4.717736328125,0.2618212401866913,0.3203285038471222,-0.13021329045295715
1772526011587720200,4.72772021484375,0.23201046884059906,0.12115790694952011,-0.18558157980442047
1772526011597703200,4.737703125,0.20532293617725372,-0.09287262707948685,-0.21976858377456665
1772526011607686400,4.747686279296875,0.1832413524389267,-0.26011213660240173,-0.22873957455158234
1772526011617669400,4.75766943359375,0.15549786388874054,-0.3549278676509857,-0.21977084875106812
1772526011627652000,4.767652099609375,0.11083734780550003,-0.37324145436286926,-0.20064140856266022
1772526011637635300,4.77763525390625,0.061457812786102295,-0.3303581774234772,-0.18335749208927155
1772526011647619300,4.787619384765625,0.023225747048854828,-0.23931795358657837,-0.16838879883289337
1772526011657602300,4.797602294921875,-0.0014316611923277378,-0.11808659881353378,-0.13889482617378235
1772526011667585300,4.807585205078125,-0.001867376733571291,0.04310955852270126,-0.09252450615167618
1772526011677568300,4.817568359375,0.015816014260053635,0.21321125328540802,-0.03410433977842331
1772526011687551200,4.82755126953125,0.058492112904787064,0.3768705725669861,0.02258455939590931
1772526011697534200,4.8375341796875,0.09979374706745148,0.5139908790588379,0.06225713714957237
1772526011707518500,4.8475185546875,0.15719527006149292,0.618771493434906,0.07722974568605423
1772526011717501200,4.857501220703125,0.22335325181484222,0.6986079812049866,0.07281529158353806
1772526011727484200,4.867484130859375,0.2871355712413788,0.7436360120773315,0.052114374935626984
1772526011737467400,4.87746728515625,0.3480202257633209,0.7524625062942505,0.0286087803542614
1772526011747450400,4.887450439453125,0.38803887367248535,0.7205901145935059,-0.00045783771201968193
1772526011757433000,4.89743310546875,0.4183938503265381,0.6450284719467163,-0.04023134708404541
1772526011767417000,4.9074169921875,0.4267818033695221,0.5194469094276428,-0.08886897563934326
1772526011777400300,4.917400390625,0.42098861932754517,0.37467026710510254,-0.13890470564365387
1772526011787383300,4.92738330078125,0.3921339809894562,0.21914343535900116,-0.18615220487117767
1772526011797366300,4.9373662109375,0.337978333234787,0.06623032689094543,-0.23938027024269104
1772526011807349200,4.947349365234375,0.25538817048072815,-0.08389207720756531,-0.29001736640930176
1772526011817332200,4.957332275390625,0.16820292174816132,-0.21193712949752808,-0.3479112982749939
1772526011827316200,4.967316162109375,0.09143233299255371,-0.3112456798553467,-0.38529717922210693
1772526011837299500,4.977299560546875,0.0312664620578289,-0.3707524240016937,-0.4117354452610016
1772526011847282200,4.9872822265625,0.004459874704480171,-0.40329790115356445,-0.4160107374191284
1772526011857265200,4.99726513671875,-0.010343838483095169,-0.43053776025772095,-0.4001140594482422
1772526011867248400,5.007248291015625,-0.0038399547338485718,-0.4441227316856384,-0.34849420189857483
1772526011877232400,5.017232421875,0.0033420580439269543,-0.4466727077960968,-0.2753710150718689
1772526011887215400,5.02721533203125,0.02394256368279457,-0.44134435057640076,-0.17443402111530304
1772526011897198000,5.037197998046875,0.047197554260492325,-0.4054049849510193,-0.06156446039676666
1772526011907181300,5.047181396484375,0.09092054516077042,-0.3438376784324646,0.05452464520931244
1772526011917164300,5.057164306640625,0.1442418247461319,-0.26935437321662903,0.15709495544433594
1772526011927147300,5.067147216796875,0.1984986662864685,-0.19343990087509155,0.22964799404144287
1772526011937130200,5.077130126953125,0.23941759765148163,-0.10547489672899246,0.2696412205696106
1772526011947114200,5.0871142578125,0.2736718952655792,0.047793786972761154,0.2779371738433838
1772526011957097200,5.09709716796875,0.28546223044395447,0.11396801471710205,0.24020229279994965
1772526011967080400,5.10708056640625,0.23635204136371613,0.05548256263136864,0.14495013654232025
1772526011977063200,5.117063232421875,0.14154882729053497,0.020976785570383072,0.013718090951442719
1772526011987046100,5.127046142578125,0.02412065491080284,0.05749867856502533,-0.10711266100406647
1772526011997029400,5.137029296875,-0.10573028028011322,0.13814611732959747,-0.2223534882068634
1772526012007013400,5.147013427734375,-0.26359307765960693,0.21159560978412628,-0.33150559663772583
1772526012016996400,5.156996337890625,-0.42761239409446716,0.32271358370780945,-0.42262351512908936
1772526012026979300,5.166979248046875,-0.5534682273864746,0.5119718313217163,-0.4796921908855438
1772526012036962300,5.17696240234375,-0.5951805114746094,0.7410330176353455,-0.5157005786895752
1772526012046945300,5.1869453125,-0.5450656414031982,0.931358277797699,-0.5484815239906311
1772526012056928300,5.19692822265625,-0.4129003584384918,1.0493024587631226,-0.5762753486633301
1772526012066912300,5.206912353515625,-0.23411887884140015,1.0795410871505737,-0.5970228314399719
1772526012076895200,5.216895263671875,-0.023006919771432877,1.0668489933013916,-0.6125703454017639
1772526012086878200,5.226878173828125,0.21526439487934113,0.9890109896659851,-0.606285035610199
1772526012096861400,5.236861328125,0.4318648874759674,0.864233672618866,-0.5606469511985779
1772526012106844200,5.24684423828125,0.5810407996177673,0.7090114951133728,-0.470779150724411
1772526012116827100,5.2568271484375,0.6792312860488892,0.5343811511993408,-0.3288683593273163
1772526012126811400,5.266811279296875,0.7366151213645935,0.33465811610221863,-0.15166544914245605
1772526012136794400,5.27679443359375,0.7596349716186523,0.11392974108457565,0.04393227398395538
1772526012146777300,5.28677734375,0.7565440535545349,-0.10477887839078903,0.23029780387878418
1772526012156760300,5.29676025390625,0.7458130717277527,-0.2733615040779114,0.3900088965892792
1772526012166743300,5.306743408203125,0.7426370978355408,-0.3755503296852112,0.5017296075820923
1772526012176726300,5.316726318359375,0.7543020248413086,-0.45628058910369873,0.5579736828804016
1772526012186710300,5.326710205078125,0.7753716707229614,-0.5034155249595642,0.5644109845161438
1772526012196693200,5.336693359375,0.8013124465942383,-0.5361934304237366,0.5363755822181702
1772526012206676200,5.34667626953125,0.818139374256134,-0.5586169958114624,0.4897342920303345
1772526012216659200,5.3566591796875,0.8137676119804382,-0.5772722959518433,0.43558552861213684
1772526012226642400,5.366642333984375,0.7765834927558899,-0.5813019275665283,0.38448983430862427
1772526012236625200,5.376625244140625,0.7108612060546875,-0.5704357028007507,0.3441874384880066
1772526012246609200,5.386609130859375,0.6270004510879517,-0.5245705246925354,0.3183276653289795
1772526012256592400,5.39659228515625,0.5433295369148254,-0.4413735866546631,0.3116668462753296
1772526012266575400,5.406575439453125,0.4659818410873413,-0.31043851375579834,0.3181663453578949
1772526012276558000,5.41655810546875,0.40822747349739075,-0.13773223757743835,0.3283252418041229
1772526012286541300,5.426541259765625,0.36085382103919983,0.039352934807538986,0.32525748014450073
1772526012296524300,5.436524169921875,0.340372771024704,0.204202339053154,0.3031071722507477
1772526012306508300,5.44650830078125,0.3495710492134094,0.3414984941482544,0.2579273283481598
1772526012316491300,5.4564912109375,0.3865189552307129,0.4611319601535797,0.19976815581321716
1772526012326474200,5.46647412109375,0.4428942799568176,0.5588216781616211,0.13525772094726562
1772526012336457200,5.476457275390625,0.5087995529174805,0.62711101770401,0.07627430558204651
1772526012346440200,5.486440185546875,0.573293924331665,0.6480427384376526,0.025936413556337357
1772526012356423400,5.49642333984375,0.6271949410438538,0.647722065448761,-0.004566367715597153
1772526012366407700,5.50640771484375,0.6700260043144226,0.6164489984512329,-0.014485122635960579
1772526012376390700,5.516390625,0.7012872099876404,0.5446147322654724,-0.016981303691864014
1772526012386373600,5.52637353515625,0.7201767563819885,0.4537845253944397,-0.00915391743183136
1772526012396356900,5.53635693359375,0.7337048053741455,0.36173370480537415,0.0029144627042114735
1772526012406339600,5.546339599609375,0.7362130880355835,0.29157087206840515,0.016557052731513977
1772526012416322800,5.55632275390625,0.7286057472229004,0.2314806580543518,0.025914601981639862
1772526012426305800,5.566305908203125,0.7198436856269836,0.16231337189674377,0.013969551771879196
1772526012436289800,5.576289794921875,0.7148827314376831,0.09260859340429306,-0.007916039787232876
1772526012446272800,5.586272705078125,0.7134499549865723,0.02336183376610279,-0.037786681205034256
1772526012456255700,5.596255859375,0.7175072431564331,-0.056170541793107986,-0.06410936266183853
1772526012466238700,5.60623876953125,0.7163336277008057,-0.11889150738716125,-0.07368382811546326
1772526012476221700,5.6162216796875,0.7111404538154602,-0.17535825073719025,-0.06139413267374039
1772526012486204700,5.62620458984375,0.7027952075004578,-0.22358044981956482,-0.035598643124103546
1772526012496188700,5.636188720703125,0.6919705271720886,-0.24930021166801453,-0.003454286139458418
1772526012506171600,5.646171630859375,0.6751156449317932,-0.2529190182685852,0.023714927956461906
1772526012516155000,5.65615478515625,0.6518529653549194,-0.23698584735393524,0.03125327453017235
1772526012526137900,5.666137939453125,0.6214642524719238,-0.1929166615009308,0.014407964423298836
1772526012536120600,5.67612060546875,0.5881832242012024,-0.12705403566360474,-0.024603882804512978
1772526012546103800,5.686103759765625,0.5600680112838745,-0.044882338494062424,-0.07358356565237045
1772526012556087800,5.696087890625,0.5458536744117737,0.05100690573453903,-0.1175270527601242
1772526012566070800,5.70607080078125,0.5426046848297119,0.16552604734897614,-0.14760807156562805
1772526012576053500,5.716053466796875,0.5558581948280334,0.26705825328826904,-0.15451791882514954
1772526012586036700,5.72603662109375,0.5925829410552979,0.33493855595588684,-0.1445908397436142
1772526012596019700,5.736019775390625,0.6560516357421875,0.3813633322715759,-0.10334540903568268
1772526012606002700,5.746002685546875,0.7444865107536316,0.3855178654193878,-0.03037663921713829
1772526012615987000,5.755987060546875,0.8268953561782837,0.29272693395614624,0.038381919264793396
1772526012625969700,5.7659697265625,0.8736584186553955,0.16588975489139557,0.09959448128938675
1772526012635952600,5.77595263671875,0.9058006405830383,0.067472904920578,0.14249427616596222
1772526012645935900,5.785935791015625,0.8979127407073975,-0.006201561540365219,0.1557314395904541
1772526012655918800,5.7959189453125,0.8650245666503906,-0.10410282760858536,0.1302495151758194
1772526012665901600,5.805901611328125,0.7973292469978333,-0.19617801904678345,0.07932455837726593
1772526012675884800,5.815884765625,0.7105783820152283,-0.2146582156419754,0.022083638235926628
1772526012685868800,5.825868896484375,0.6367671489715576,-0.1642712950706482,-0.021934829652309418
1772526012695851800,5.835851806640625,0.5876531600952148,-0.07428734749555588,-0.040395863354206085
1772526012705834800,5.845834716796875,0.5722616910934448,0.021303299814462662,-0.05565004423260689
1772526012715817700,5.855817626953125,0.5829572081565857,0.0997144803404808,-0.07124578207731247
1772526012725800700,5.86580078125,0.613061249256134,0.16253437101840973,-0.09095402806997299
1772526012735784000,5.875783935546875,0.6571448445320129,0.22031724452972412,-0.10928536206483841
1772526012745768000,5.885767822265625,0.6918767094612122,0.23460711538791656,-0.12747208774089813
1772526012755750700,5.895750732421875,0.7189858555793762,0.22568152844905853,-0.13308469951152802
1772526012765733600,5.905733642578125,0.7381633520126343,0.21673041582107544,-0.11157262325286865
1772526012775716900,5.915716796875,0.7608950138092041,0.21875256299972534,-0.0655398815870285
1772526012785699800,5.925699951171875,0.7811093926429749,0.23777399957180023,-0.0009525008499622345
1772526012795682600,5.9356826171875,0.8023920655250549,0.2985353469848633,0.07270334661006927
1772526012805665800,5.945665771484375,0.8353704810142517,0.40105244517326355,0.1524963676929474
1772526012815649800,5.95564990234375,0.8710653185844421,0.5295092463493347,0.21142573654651642
1772526012825632800,5.9656328125,0.918001651763916,0.6534479260444641,0.2331721931695938
1772526012835615700,5.97561572265625,0.9574081301689148,0.7418310046195984,0.20175515115261078
1772526012845598700,5.9855986328125,0.9866085052490234,0.7850762605667114,0.09886623919010162
1772526012855581700,5.995581787109375,1.010036587715149,0.8050544857978821,-0.05806851387023926
1772526012865565000,6.00556494140625,1.0398451089859009,0.7977007627487183,-0.24979709088802338
1772526012875549000,6.015548828125,1.0818616151809692,0.7504349946975708,-0.4507477879524231
1772526012885531600,6.02553173828125,1.1388887166976929,0.6449851989746094,-0.6247290968894958
1772526012895514600,6.0355146484375,1.1890407800674438,0.49289634823799133,-0.7456339597702026
1772526012905497900,6.045497802734375,1.2294609546661377,0.31700626015663147,-0.7996190786361694
1772526012915480600,6.05548046875,1.2466415166854858,0.16495147347450256,-0.787021279335022
1772526012925463600,6.065463623046875,1.2389353513717651,0.03697054833173752,-0.7243173122406006
1772526012935447800,6.07544775390625,1.2151026725769043,-0.09035518765449524,-0.6203056573867798
1772526012945430800,6.0854306640625,1.176827073097229,-0.22585782408714294,-0.4850471019744873
1772526012955413800,6.095413818359375,1.1467386484146118,-0.3357371687889099,-0.31627804040908813
1772526012965396700,6.105396728515625,1.1218804121017456,-0.3855701684951782,-0.12452791631221771
1772526012975379700,6.115379638671875,1.1000480651855469,-0.3692482113838196,0.06424227356910706
1772526012985362700,6.12536279296875,1.0871037244796753,-0.28972774744033813,0.23037198185920715
1772526012995346000,6.135345947265625,1.0995010137557983,-0.17194333672523499,0.3594322204589844
1772526013005330000,6.145329833984375,1.1246310472488403,-0.02012956514954567,0.4413129687309265
1772526013015312600,6.155312744140625,1.1625888347625732,0.13971202075481415,0.48084601759910583
1772526013025295600,6.165295654296875,1.197094202041626,0.2978132665157318,0.4747639000415802
1772526013035278800,6.17527880859375,1.2298518419265747,0.4306837022304535,0.42797935009002686
1772526013045261600,6.185261474609375,1.2591683864593506,0.5263832211494446,0.3481962978839874
1772526013055244800,6.195244873046875,1.2826820611953735,0.5901060104370117,0.25307509303092957
1772526013065228800,6.205228759765625,1.2872735261917114,0.6047578454017639,0.15272420644760132
1772526013075211800,6.215211669921875,1.2654366493225098,0.5968034863471985,0.058959636837244034
1772526013085194800,6.22519482421875,1.2228599786758423,0.5476992130279541,-0.02476774901151657
1772526013095177700,6.235177734375,1.1673575639724731,0.4711866080760956,-0.0923454612493515
1772526013105160700,6.24516064453125,1.1016639471054077,0.3771387040615082,-0.14288760721683502
1772526013115143700,6.255143798828125,1.0324350595474243,0.2944563329219818,-0.17349585890769958
1772526013125127000,6.265126953125,0.9693167805671692,0.2152174413204193,-0.182301864027977
1772526013135110700,6.275110595703125,0.9222752451896667,0.14315471053123474,-0.17629404366016388
1772526013145093600,6.28509375,0.8917365670204163,0.07258977741003036,-0.1614389717578888
1772526013155076900,6.295076904296875,0.8813838362693787,0.01803092658519745,-0.14761477708816528
1772526013165059800,6.305059814453125,0.8873977661132812,-0.025994323194026947,-0.12300236523151398
1772526013175042600,6.31504248046875,0.901986300945282,-0.06726719439029694,-0.09406419843435287
1772526013185025800,6.32502587890625,0.9260660409927368,-0.09213227033615112,-0.048918962478637695
1772526013195009800,6.335009765625,0.9434887170791626,-0.11304634064435959,0.008896667510271072
1772526013204992800,6.34499267578125,0.9545478224754333,-0.12584199011325836,0.06859669089317322
1772526013214975700,6.354975830078125,0.9511078596115112,-0.1315147876739502,0.11745823919773102
1772526013224958700,6.364958740234375,0.9318311214447021,-0.14296533167362213,0.14716346561908722
1772526013234941700,6.374941650390625,0.8917771577835083,-0.17020894587039948,0.15346556901931763
1772526013244924700,6.384924560546875,0.8590760231018066,-0.2000565081834793,0.15181687474250793
1772526013254908000,6.394907958984375,0.8217797875404358,-0.24376243352890015,0.14885064959526062
1772526013264891600,6.4048916015625,0.8009060621261597,-0.24470239877700806,0.1416768878698349
1772526013274874600,6.41487451171875,0.79826420545578,-0.28410786390304565,0.11724743992090225
1772526013284857900,6.42485791015625,0.7758881449699402,-0.45612892508506775,0.04111698269844055
1772526013294840800,6.4348408203125,0.6839361190795898,-0.6959745287895203,-0.09219633042812347
1772526013304823600,6.444823486328125,0.5485426783561707,-0.8401942849159241,-0.2448129653930664
1772526013314806800,6.454806884765625,0.41130542755126953,-0.8417080640792847,-0.3647764027118683
1772526013324789800,6.464789794921875,0.28987041115760803,-0.791524350643158,-0.44444024562835693
1772526013334773800,6.474773681640625,0.15497252345085144,-0.7227149605751038,-0.48565077781677246
1772526013344756700,6.4847568359375,0.03265344724059105,-0.5665676593780518,-0.4774877727031708
1772526013354739700,6.49473974609375,-0.044703125953674316,-0.28533703088760376,-0.43147897720336914
1772526013364722200,6.50472216796875,-0.049311183393001556,0.017311859875917435,-0.37693631649017334
1772526013374705400,6.514705322265625,0.011277331039309502,0.29292717576026917,-0.33566078543663025
1772526013384688400,6.5246884765625,0.128353551030159,0.5163834691047668,-0.3264625370502472
1772526013394672400,6.53467236328125,0.24501384794712067,0.6201926469802856,-0.35721805691719055
1772526013404655400,6.5446552734375,0.32605278491973877,0.6315768957138062,-0.40328967571258545
1772526013414638300,6.554638427734375,0.3678295314311981,0.586688756942749,-0.4544024169445038
1772526013424621300,6.564621337890625,0.39712855219841003,0.5219634175300598,-0.4755307137966156
1772526013434604300,6.574604248046875,0.4196929931640625,0.43093976378440857,-0.45189356803894043
1772526013444587500,6.58458740234375,0.43813785910606384,0.3370840549468994,-0.38239672780036926
1772526013454570200,6.5945703125,0.4539410471916199,0.24131305515766144,-0.28181684017181396
1772526013464554200,6.60455419921875,0.4593774378299713,0.1510208696126938,-0.1631656438112259
1772526013474537500,6.614537353515625,0.4534705579280853,0.07937145978212357,-0.04224107787013054
1772526013484520400,6.6245205078125,0.4463867247104645,0.007002637255936861,0.04897817596793175
1772526013494503200,6.634503173828125,0.43612396717071533,-0.06951609998941422,0.10212022066116333
1772526013504486400,6.644486328125,0.42861080169677734,-0.11789467930793762,0.12138213962316513
1772526013514469400,6.654469482421875,0.4288976490497589,-0.1321503221988678,0.10599252581596375
1772526013524453400,6.664453369140625,0.42358607053756714,-0.1355242282152176,0.0570397675037384
1772526013534436400,6.674436279296875,0.4206291735172272,-0.17701388895511627,-0.01341708842664957
1772526013544419300,6.68441943359375,0.39863497018814087,-0.29813435673713684,-0.09493977576494217
1772526013554402300,6.69440234375,0.35339054465293884,-0.4219076931476593,-0.1572018265724182
1772526013564385500,6.704385498046875,0.27998799085617065,-0.48941612243652344,-0.17721906304359436
1772526013574368500,6.714368408203125,0.1979074776172638,-0.5010320544242859,-0.14897890388965607
1772526013584351200,6.724351318359375,0.11978614330291748,-0.44719019532203674,-0.07999218255281448
1772526013594335200,6.734335205078125,0.06618443131446838,-0.32235264778137207,0.02845572680234909
1772526013604318500,6.744318359375,0.045062534511089325,-0.15348799526691437,0.13672947883605957
1772526013614301400,6.754301513671875,0.07247764617204666,0.05782131478190422,0.24245324730873108
1772526013624284200,6.7642841796875,0.15780554711818695,0.2952057421207428,0.31753119826316833
1772526013634267400,6.774267333984375,0.28968608379364014,0.5135811567306519,0.35150593519210815
1772526013644250400,6.78425048828125,0.44827407598495483,0.6510664224624634,0.34619206190109253
1772526013654233300,6.7942333984375,0.6094506978988647,0.7352564334869385,0.308686763048172
1772526013664217600,6.804217529296875,0.7477118968963623,0.7843167185783386,0.27512258291244507
1772526013674200300,6.814200439453125,0.8515259623527527,0.811038613319397,0.2516465187072754
1772526013684183300,6.824183349609375,0.9330191612243652,0.792263388633728,0.23632250726222992
1772526013694166500,6.83416650390625,0.998124361038208,0.7595208883285522,0.21873366832733154
1772526013704149200,6.844149169921875,1.043884038925171,0.7147606015205383,0.19729740917682648
1772526013714132200,6.85413232421875,1.0728830099105835,0.6691262722015381,0.17029482126235962
1772526013724115500,6.864115478515625,1.0732017755508423,0.6091563105583191,0.13296303153038025
1772526013734099500,6.874099365234375,1.0581122636795044,0.5532664060592651,0.08336032181978226
1772526013744082400,6.88408251953125,1.0294432640075684,0.5036832690238953,0.03955771028995514
1772526013754065200,6.894065185546875,0.9768229722976685,0.4353407323360443,-0.02041560783982277
1772526013764048400,6.90404833984375,0.9062516093254089,0.3249489963054657,-0.08070751279592514
1772526013774031400,6.91403125,0.8367961049079895,0.22084470093250275,-0.1341254711151123
1772526013784014300,6.924014404296875,0.7713578939437866,0.15214410424232483,-0.17592284083366394
1772526013793998300,6.933998291015625,0.7326619029045105,0.10131822526454926,-0.21011143922805786
1772526013803981300,6.943981201171875,0.7040083408355713,0.02995886467397213,-0.2452869862318039
1772526013813964300,6.95396435546875,0.6807358264923096,-0.039991725236177444,-0.2765714228153229
1772526013823947500,6.963947509765625,0.6551832556724548,-0.06860008090734482,-0.306075781583786
1772526013833930200,6.97393017578125,0.6176518797874451,-0.05463792011141777,-0.33810457587242126
1772526013843913200,6.983913330078125,0.5737159252166748,-0.004302272107452154,-0.3675249218940735
1772526013853896400,6.993896484375,0.5297220945358276,0.06722703576087952,-0.38493454456329346
1772526013863880400,7.00388037109375,0.491646409034729,0.12579573690891266,-0.3853675425052643
1772526013873863400,7.013863525390625,0.463705837726593,0.15338236093521118,-0.3627471923828125
1772526013883846400,7.023846435546875,0.4604744613170624,0.1743548959493637,-0.3031139671802521
1772526013893829400,7.033829345703125,0.47607871890068054,0.23167170584201813,-0.2027743011713028
1772526013903812400,7.043812255859375,0.5113803148269653,0.3016253709793091,-0.07240530848503113
1772526013913795600,7.053795654296875,0.5656678080558777,0.3408295214176178,0.06462418287992477
1772526013923778300,7.0637783203125,0.6317728161811829,0.33031564950942993,0.18062156438827515
1772526013933762300,7.07376220703125,0.6961752772331238,0.2591935396194458,0.2737714648246765
1772526013943745300,7.083745361328125,0.7422096133232117,0.194357767701149,0.34162336587905884
1772526013953728500,7.093728515625,0.7948315143585205,0.21887244284152985,0.3872331976890564
1772526013963711200,7.103711181640625,0.850541353225708,0.3365473747253418,0.3990206718444824
1772526013973694200,7.113694091796875,0.9179837703704834,0.4148789346218109,0.3609031140804291
1772526013983677400,7.123677490234375,0.9405164122581482,0.41177502274513245,0.277837872505188
1772526013993660400,7.133660400390625,0.9292643070220947,0.4111129641532898,0.1740744411945343
1772526014003644400,7.14364453125,0.8740213513374329,0.40040236711502075,0.06934457272291183
1772526014013627400,7.15362744140625,0.7812178730964661,0.3369314968585968,-0.05330917611718178
1772526014023610400,7.1636103515625,0.6504102945327759,0.24793896079063416,-0.17740082740783691
1772526014033593300,7.17359326171875,0.5126127600669861,0.19050230085849762,-0.2713123857975006
1772526014043576300,7.183576416015625,0.3788525462150574,0.19430574774742126,-0.33499133586883545
1772526014053559300,7.193559326171875,0.2866496741771698,0.23475970327854156,-0.3597712516784668
1772526014063542300,7.203542236328125,0.2501849830150604,0.3199023902416229,-0.3215099275112152
1772526014073526300,7.2135263671875,0.2762480080127716,0.43088963627815247,-0.2415463924407959
1772526014083509500,7.223509521484375,0.34904733300209045,0.5452882051467896,-0.14462225139141083
1772526014093492200,7.2334921875,0.45844441652297974,0.6449064016342163,-0.048920758068561554
1772526014103475500,7.243475341796875,0.584162712097168,0.6950371861457825,0.008225351572036743
1772526014113458400,7.25345849609375,0.7061549425125122,0.7182706594467163,0.032620955258607864
1772526014123441400,7.26344140625,0.8173183798789978,0.7237735390663147,0.03270472586154938
1772526014133424400,7.27342431640625,0.9035906791687012,0.7204411625862122,0.023544251918792725
1772526014143408400,7.283408447265625,0.9891290664672852,0.7010284066200256,0.021535702049732208
1772526014153391400,7.293391357421875,1.0895476341247559,0.6843035221099854,0.04088383540511131
1772526014163374300,7.303374267578125,1.1795449256896973,0.6627974510192871,0.06225976347923279
1772526014173357300,7.313357421875,1.248367428779602,0.6071707010269165,0.08316690474748611
1772526014183340300,7.32334033203125,1.2831321954727173,0.526485025882721,0.08195742964744568
1772526014193323300,7.3333232421875,1.2881823778152466,0.44744157791137695,0.0673966035246849
1772526014203306500,7.343306396484375,1.261271595954895,0.35595080256462097,0.04696962237358093
1772526014213290500,7.35329052734375,1.2181166410446167,0.2623042166233063,0.018504159525036812
1772526014223273200,7.363273193359375,1.1442325115203857,0.16766417026519775,-0.016058146953582764
1772526014233256400,7.37325634765625,1.0533965826034546,0.07238426059484482,-0.06946491450071335
1772526014243239400,7.383239501953125,0.9494462013244629,-0.017392579466104507,-0.13391028344631195
1772526014253222400,7.393222412109375,0.840724766254425,-0.08538521081209183,-0.18375693261623383
1772526014263205400,7.403205322265625,0.7515208721160889,-0.13802458345890045,-0.21124641597270966
1772526014273188400,7.413188232421875,0.683597981929779,-0.19598589837551117,-0.22034749388694763
1772526014283172400,7.42317236328125,0.6210551857948303,-0.28198108077049255,-0.21518370509147644
1772526014293155300,7.4331552734375,0.5701704621315002,-0.41817593574523926,-0.20064443349838257
1772526014303138300,7.44313818359375,0.5283754467964172,-0.5311877727508545,-0.1659478396177292
1772526014313121300,7.453121337890625,0.507023274898529,-0.5571258664131165,-0.10710157454013824
1772526014323104300,7.463104248046875,0.518887996673584,-0.5102434754371643,-0.023829657584428787
1772526014333087500,7.47308740234375,0.5742785930633545,-0.4091714918613434,0.07404657453298569
1772526014343070200,7.4830703125,0.6635474562644958,-0.2590174973011017,0.1696656495332718
1772526014353054200,7.49305419921875,0.76425701379776,-0.08802125602960587,0.23684680461883545
1772526014363037400,7.503037353515625,0.8560037016868591,0.06921614706516266,0.2686343193054199
1772526014373021000,7.51302099609375,0.9222341179847717,0.17587387561798096,0.25188517570495605
1772526014383004000,7.52300390625,0.9607947468757629,0.23951710760593414,0.20088841021060944
1772526014392987000,7.53298681640625,0.9782900810241699,0.29338112473487854,0.13154129683971405
1772526014402969900,7.542969970703125,0.9672836065292358,0.3406978249549866,0.041411131620407104
1772526014412952800,7.552952880859375,0.9369214773178101,0.3670322299003601,-0.06333045661449432
1772526014422936000,7.56293603515625,0.8917924165725708,0.3743685483932495,-0.17005378007888794
1772526014432919800,7.572919921875,0.8329509496688843,0.38764598965644836,-0.25237661600112915
1772526014442902800,7.58290283203125,0.7644690871238708,0.38753655552864075,-0.30770358443260193
1772526014452885800,7.5928857421875,0.6861526966094971,0.3649553656578064,-0.34239763021469116
1772526014462869000,7.602868896484375,0.600712239742279,0.2937258183956146,-0.35274237394332886
1772526014472851700,7.612851806640625,0.5127602815628052,0.16729331016540527,-0.36020880937576294
1772526014482834700,7.622834716796875,0.42109280824661255,0.01199688296765089,-0.3534400165081024
1772526014492818000,7.63281787109375,0.34017106890678406,-0.13841766119003296,-0.3413471579551697
1772526014502802000,7.642802001953125,0.2716813087463379,-0.2538084387779236,-0.32372528314590454
1772526014512785000,7.652784912109375,0.22916075587272644,-0.3456938862800598,-0.3037390410900116
1772526014522768000,7.662767822265625,0.1872890144586563,-0.40296319127082825,-0.26704221963882446
1772526014532750800,7.672750732421875,0.15475104749202728,-0.43054768443107605,-0.2234944850206375
1772526014542733800,7.68273388671875,0.1223013773560524,-0.41863933205604553,-0.16778461635112762
1772526014552717000,7.692717041015625,0.08262800425291061,-0.39308497309684753,-0.11104252189397812
1772526014562699800,7.70269970703125,0.05276191979646683,-0.36471062898635864,-0.05741816759109497
1772526014572683800,7.712683837890625,0.0444595143198967,-0.34127509593963623,0.003353570122271776
1772526014582666800,7.722666748046875,0.06157289445400238,-0.30103012919425964,0.0714942067861557
1772526014592650000,7.73264990234375,0.10527989268302917,-0.2603548765182495,0.14155904948711395
1772526014602632700,7.7426328125,0.165958434343338,-0.209025040268898,0.21478937566280365
1772526014612616000,7.752615966796875,0.23767788708209991,-0.15029142796993256,0.28522175550460815
1772526014622599000,7.762598876953125,0.31086963415145874,-0.07319068908691406,0.34605830907821655
1772526014632582000,7.772581787109375,0.3842591643333435,-0.03582627326250076,0.39166149497032166
1772526014642566000,7.78256591796875,0.4315342307090759,-0.133978471159935,0.3988777995109558
1772526014652548900,7.792548828125,0.4369415044784546,-0.2719067931175232,0.3707055449485779
1772526014662531800,7.80253173828125,0.4026963710784912,-0.32230550050735474,0.34269392490386963
1772526014672514800,7.812514892578125,0.3259909451007843,-0.2795351445674896,0.3014013469219208
1772526014682497800,7.822497802734375,0.22364559769630432,-0.1998499035835266,0.27094772458076477
1772526014692480800,7.832480712890625,0.113339863717556,-0.11331047862768173,0.25318390130996704
1772526014702463700,7.842463623046875,0.019124140962958336,-0.012774075381457806,0.2454177290201187
1772526014712447000,7.852447021484375,-0.038298673927783966,0.11422675102949142,0.2368261069059372
1772526014722431000,7.862430908203125,-0.04623105749487877,0.2454061061143875,0.22083261609077454
1772526014732413700,7.87241357421875,-0.03449477255344391,0.3614475131034851,0.18334463238716125
1772526014742397000,7.88239697265625,0.006763783283531666,0.4638497829437256,0.12115509808063507
1772526014752380000,7.8923798828125,0.055518537759780884,0.5309438705444336,0.05463652312755585
1772526014762363000,7.90236279296875,0.09162178635597229,0.5487998723983765,-0.01428834069520235
1772526014772345900,7.912345947265625,0.09946958720684052,0.5324248671531677,-0.05964277684688568
1772526014782328800,7.922328857421875,0.0801323652267456,0.5129547119140625,-0.07877212762832642
1772526014792312800,7.932312744140625,0.05273802950978279,0.5175806283950806,-0.05995183065533638
1772526014802295800,7.9422958984375,0.04668101295828819,0.5506348013877869,0.005236084572970867
1772526014812278800,7.95227880859375,0.07396642863750458,0.5883209109306335,0.09827122092247009
1772526014822261800,7.96226171875,0.12739165127277374,0.6032187342643738,0.19841904938220978
1772526014832245000,7.972244873046875,0.1902632862329483,0.558601438999176,0.29119691252708435
1772526014842228000,7.98222802734375,0.23952043056488037,0.4611530303955078,0.36039111018180847
1772526014852210700,7.992210693359375,0.2624414563179016,0.366766095161438,0.40669524669647217
1772526014862194700,8.002194580078125,0.27890393137931824,0.2958907186985016,0.4215072989463806
1772526014872178000,8.012177978515625,0.28817200660705566,0.23332799971103668,0.41171807050704956
1772526014882161000,8.022160888671875,0.294070839881897,0.17243631184101105,0.37463241815567017
1772526014892143900,8.032143798828125,0.29397016763687134,0.1311008632183075,0.3225274085998535
1772526014902126800,8.042126953125,0.2730497121810913,0.10303938388824463,0.2548586130142212
1772526014912109800,8.05210986328125,0.23535344004631042,0.09105569869279861,0.19047163426876068
1772526014922092800,8.0620927734375,0.1739412099123001,0.06875784695148468,0.12137060612440109
1772526014932077000,8.0720771484375,0.1050977110862732,0.06777620315551758,0.05665658786892891
1772526014942059800,8.082059814453125,0.03982877731323242,0.08958130329847336,-0.0047115604393184185
1772526014952042800,8.092042724609374,-0.015183338895440102,0.1178763210773468,-0.0550847202539444
1772526014962026000,8.10202587890625,-0.051236145198345184,0.13968443870544434,-0.095163494348526
1772526014972009000,8.112009033203124,-0.05125478655099869,0.16109652817249298,-0.11024018377065659
1772526014981991700,8.12199169921875,-0.010526702739298344,0.21917761862277985,-0.10203331708908081
1772526014991975000,8.131974853515626,0.06053388863801956,0.30220910906791687,-0.06639755517244339
1772526015001958000,8.1419580078125,0.1531563103199005,0.388095885515213,-0.01255923230201006
1772526015011942000,8.15194189453125,0.25498947501182556,0.4527744948863983,0.03264233469963074
1772526015021924900,8.1619248046875,0.3386717736721039,0.46851155161857605,0.05968208611011505
1772526015031907800,8.171907958984375,0.39883098006248474,0.45820245146751404,0.056153930723667145
1772526015041890800,8.181890869140625,0.4355110228061676,0.43978428840637207,0.03327242285013199
1772526015051874000,8.1918740234375,0.46531978249549866,0.41511330008506775,0.008476529270410538
1772526015061856800,8.201856689453125,0.49483752250671387,0.3829483985900879,-0.008544571697711945
1772526015071839700,8.21183984375,0.527041494846344,0.351897269487381,-0.01941719278693199
1772526015081823700,8.22182373046875,0.5468114614486694,0.31647682189941406,-0.03186548873782158
1772526015091807000,8.231806884765625,0.555658221244812,0.2854432761669159,-0.040086932480335236
1772526015101790000,8.2417900390625,0.5465536713600159,0.2463245689868927,-0.04046683758497238
1772526015111772700,8.251772705078125,0.5432297587394714,0.2087489664554596,-0.029235491529107094
1772526015121756000,8.261755859375,0.5388326644897461,0.1720379739999771,-0.028937865048646927
1772526015131739000,8.27173876953125,0.5258004665374756,0.14307209849357605,-0.03984803706407547
1772526015141721900,8.281721923828124,0.5003320574760437,0.13475437462329865,-0.05896207317709923
1772526015151704800,8.291704833984374,0.4784088730812073,0.13869638741016388,-0.08397421985864639
1772526015161688800,8.301688720703124,0.4577295482158661,0.12463072687387466,-0.12278619408607483
1772526015171671800,8.311671875,0.4362514019012451,0.09312872588634491,-0.15546610951423645
1772526015181655000,8.321655029296876,0.41776615381240845,0.0830564796924591,-0.17982125282287598
1772526015191637800,8.3316376953125,0.3999898135662079,0.10574980825185776,-0.1785099059343338
1772526015201620700,8.341620849609376,0.376884788274765,0.155551478266716,-0.16780433058738708
1772526015211604000,8.35160400390625,0.3513551652431488,0.22118455171585083,-0.15332871675491333
1772526015221587000,8.3615869140625,0.32050198316574097,0.30035871267318726,-0.13370132446289062
1772526015231571000,8.371571044921875,0.3183293640613556,0.3866613805294037,-0.09820084273815155
1772526015241553700,8.3815537109375,0.34387707710266113,0.4345158636569977,-0.0439494326710701
1772526015251537000,8.391536865234375,0.39943036437034607,0.4598531723022461,0.018284644931554794
1772526015261520000,8.401519775390625,0.4773065745830536,0.483913779258728,0.09031733870506287
1772526015271502800,8.4115029296875,0.5747487545013428,0.446556031703949,0.14788076281547546
1772526015281485800,8.42148583984375,0.6578301787376404,0.3129986822605133,0.1675986349582672
1772526015291468800,8.43146875,0.6931359767913818,0.08700679987668991,0.13868016004562378
1772526015301452000,8.4414521484375,0.6607234477996826,-0.15958817303180695,0.06514675915241241
1772526015311436000,8.45143603515625,0.5433124303817749,-0.3786739110946655,-0.03537078946828842
1772526015321418800,8.461418701171874,0.383430540561676,-0.5431409478187561,-0.14073137938976288
1772526015331401700,8.471401611328124,0.2200583815574646,-0.5864713788032532,-0.18158745765686035
1772526015341385000,8.481385009765624,0.08138012886047363,-0.49373772740364075,-0.18489132821559906
1772526015351368000,8.491367919921874,-0.020068999379873276,-0.30632972717285156,-0.1523166000843048
1772526015361350700,8.5013505859375,-0.0645449161529541,-0.05031391233205795,-0.10810138285160065
1772526015371333600,8.511333740234376,-0.03884780406951904,0.23745901882648468,-0.04947002977132797
1772526015381316600,8.521316650390625,0.05203937739133835,0.5130330324172974,0.018738839775323868
1772526015391300600,8.531300537109376,0.19097834825515747,0.6897896528244019,0.0727597326040268
1772526015401283600,8.54128369140625,0.33637675642967224,0.7338107824325562,0.10311617702245712
1772526015411266600,8.5512666015625,0.44569793343544006,0.6645020246505737,0.1068965345621109
1772526015421249500,8.56124951171875,0.5017295479774475,0.552727222442627,0.10071084648370743
1772526015431232800,8.571232666015625,0.5146253705024719,0.4611794948577881,0.08892183005809784
1772526015441215500,8.581215576171875,0.49982208013534546,0.42484164237976074,0.10360445082187653
1772526015451198500,8.591198486328125,0.47413164377212524,0.42443445324897766,0.1525498926639557
1772526015461182700,8.6011826171875,0.45900759100914,0.4422779083251953,0.2194814532995224
1772526015471165700,8.611165771484375,0.486919105052948,0.49540024995803833,0.2924291789531708
1772526015481148700,8.621148681640625,0.5481057167053223,0.5412050485610962,0.36992043256759644
1772526015491131600,8.631131591796875,0.6036310791969299,0.5410311222076416,0.424949586391449
1772526015501114600,8.641114501953124,0.6551612615585327,0.5075773000717163,0.442838579416275
1772526015511097600,8.65109765625,0.7082953453063965,0.46215683221817017,0.43898844718933105
1772526015521080600,8.66108056640625,0.7548894286155701,0.3924844563007355,0.4076782464981079
1772526015531063600,8.6710634765625,0.7913963198661804,0.29829272627830505,0.3525840938091278
1772526015541047600,8.681047607421876,0.8123769760131836,0.2151622325181961,0.2843743860721588
1772526015551030500,8.691030517578126,0.8223143219947815,0.09862445294857025,0.20999787747859955
1772526015561013800,8.701013671875,0.8083563446998596,-0.01686101406812668,0.11977104842662811
1772526015570996500,8.71099658203125,0.7830693125724792,-0.08308983594179153,0.03857232630252838
1772526015580979700,8.720979736328125,0.7474818825721741,-0.11968724429607391,-0.03585626557469368
1772526015590962700,8.730962646484375,0.7090897560119629,-0.15472964942455292,-0.10829956829547882
1772526015600945700,8.740945556640625,0.6677004098892212,-0.1726827770471573,-0.17882829904556274
1772526015610928600,8.7509287109375,0.6259410381317139,-0.17733319103717804,-0.2321314662694931
1772526015620912600,8.76091259765625,0.5812791585922241,-0.15307578444480896,-0.2676209509372711
1772526015630895600,8.7708955078125,0.544884443283081,-0.12220735847949982,-0.2799854576587677
1772526015640878600,8.780878662109375,0.5308066606521606,-0.08214618265628815,-0.2694259285926819
1772526015650861600,8.790861572265625,0.5288753509521484,-0.021398412063717842,-0.2420869767665863
1772526015660844500,8.800844482421875,0.5403056144714355,0.06906459480524063,-0.20236127078533173
1772526015670827500,8.81082763671875,0.5573962330818176,0.18273204565048218,-0.16962967813014984
1772526015680810800,8.820810791015624,0.5883082151412964,0.30972525477409363,-0.14505110681056976
1772526015690793500,8.83079345703125,0.63017737865448,0.4129813313484192,-0.12290771305561066
1772526015700777500,8.840777587890624,0.6618109345436096,0.4697684347629547,-0.10921847075223923
1772526015710760700,8.8507607421875,0.673662543296814,0.49954044818878174,-0.12076541036367416
1772526015720743700,8.86074365234375,0.6789960861206055,0.545215368270874,-0.12189137935638428
1772526015730726700,8.8707265625,0.696519672870636,0.6146330237388611,-0.11862874031066895
1772526015740709600,8.880709716796876,0.7207993268966675,0.6898071765899658,-0.1265469193458557
1772526015750692600,8.890692626953125,0.6908898949623108,0.644657552242279,0.0025351676158607006
1772526015760675600,8.900675537109375,0.5486262440681458,0.3602755665779114,0.07507293671369553
1772526015770658600,8.910658447265625,0.4442231059074402,0.03624556586146355,0.05057105794548988
1772526015780642600,8.920642578125,0.444953978061676,-0.20980826020240784,0.026189016178250313
1772526015790625500,8.93062548828125,0.4774882197380066,-0.3462340235710144,0.012727534398436546
1772526015800608500,8.9406083984375,0.5122953057289124,-0.3127267062664032,-0.03142866864800453
1772526015810591700,8.950591796875,0.5906969308853149,-0.1894329935312271,-0.12362517416477203
1772526015820574500,8.960574462890625,0.6469980478286743,-0.11028145998716354,-0.1638629287481308
1772526015830557700,8.9705576171875,0.6286516189575195,-0.15690168738365173,-0.1561426967382431
1772526015840540700,8.980540771484375,0.57720947265625,-0.2594808042049408,-0.13642624020576477
