time,seconds_elapsed,z,y,x
1772525736339000600,0.14500048828125,0.4709259056448936,0.028353987824916837,0.09251140269786119
1772525736348984800,0.15498486328125,0.4365571875751018,0.02885141595304012,0.027814766381680962
1772525736358967600,0.164967529296875,0.37150691551566123,-0.002843552862852812,-0.016916355748474596
1772525736368951600,0.17495166015625,0.2774567589432001,-0.06111600135043263,-0.10986644212454556
1772525736378935600,0.184935546875,0.15468202766776085,-0.10440087019503116,-0.22472060953378675
1772525736388918500,0.19491845703125,0.09027297612130641,-0.12848814048618076,-0.2564279994398355
1772525736398902500,0.204902587890625,0.10909867262244224,-0.16843758129775524,-0.2532131290465593
1772525736408886800,0.21488671875,0.201230428352952,-0.15699088913202286,-0.20731530122458933
1772525736418869800,0.224869873046875,0.2961082679212093,-0.11991788053959608,-0.13637217173427343
1772525736428853500,0.234853515625,0.42082302734851834,-0.07794190233647823,-0.03977525328844785
1772525736438837500,0.24483740234375,0.4937509009152651,-0.036844168272614476,0.05417144290953874
1772525736448820500,0.254820556640625,0.48455286445915696,-0.012487433390319347,0.1267728610008955
1772525736458804500,0.264804443359375,0.436581152972579,0.014554595053195953,0.13927140030711888
1772525736468787700,0.27478759765625,0.36716216430962084,0.0322517259158194,0.125613754093647
1772525736478771700,0.284771728515625,0.2723813553750515,0.0527352726265788,0.06114975748956203
1772525736488755700,0.294755615234375,0.11483283236026763,0.02347249939367175,-0.00905395181030035
1772525736498738400,0.304738525390625,-0.06997253089249134,-0.01120586914718151,-0.08994827421158552
1772525736508722400,0.314722412109375,-0.20630817000865936,-0.05336334139704704,-0.1431909118384123
1772525736518706700,0.324706787109375,-0.21027707363963125,-0.08056991275250912,-0.13950900845527647
1772525736528689700,0.334689697265625,-0.20884382596611975,-0.07227934653013944,-0.07625321859717368
1772525736538673700,0.344673583984375,-0.19403321032524107,-0.04480433349683881,-0.0033566169515252113
1772525736548657700,0.35465771484375,-0.16995383107960224,0.014462240594625472,0.04843932899832725
1772525736558640600,0.364640625,-0.11927695228755474,0.07831336599737405,0.056982408677041525
1772525736568624600,0.374624755859375,-0.05221300231814384,0.09345409037545323,0.07096037288606166
1772525736578608600,0.384608642578125,0.01955050364434719,0.07879735012203455,0.07944938428997993
1772525736588591600,0.394591552734375,0.07578150943219661,0.08210369819104671,0.09823884043395519
1772525736598575600,0.40457568359375,0.0803442873030901,0.05908668747991323,0.1262801090478897
1772525736608558600,0.41455859375,0.027623335462808606,0.03643661038503051,0.11716449017822742
1772525736618542600,0.42454248046875,0.0022159224838018414,0.003996960681676864,0.09068068013936281
1772525736628526600,0.434526611328125,0.04743979656696319,-0.019910422997921704,0.01795271305888891
1772525736638509600,0.444509521484375,0.0782435156315565,-0.03430544357523322,-0.01740326248258352
1772525736648493600,0.45449365234375,0.06996902376115322,-0.08250701829493046,-0.01857669017612934
1772525736658477600,0.4644775390625,0.04257014470398426,-0.11605725958868861,-0.041864919044077395
1772525736668460500,0.47446044921875,0.019133739537000656,-0.10212620326131581,-0.07332271810322999
1772525736678444500,0.484444580078125,0.01575461849272251,-0.09490487370565533,-0.06916618294566869
1772525736688428500,0.494428466796875,0.026275427985191342,-0.06330722778439521,-0.008866904805600642
1772525736698411800,0.504411865234375,0.011852350357174872,-0.0032449732705950736,0.04541530500203371
1772525736708395800,0.514395751953125,0.019281039053201676,0.06880860167965293,0.05910685348510742
1772525736718379800,0.5243798828125,0.033816929405927655,0.11583572579249739,0.0797685332417488
1772525736728362500,0.534362548828125,0.053875967094302174,0.10723521683812141,0.08711042043715715
1772525736738346500,0.544346435546875,0.03974631945490837,0.07512874461188912,0.05750789385586977
1772525736748329700,0.554329833984375,0.036488194441795345,0.04394654762372374,0.002366436870396137
1772525736758313700,0.564313720703125,0.02872808183431625,0.011806611519306898,-0.034843349844217296
1772525736768297700,0.574297607421875,-0.011956979775428771,-0.004881488431245088,-0.028657939207553863
1772525736778280700,0.58428076171875,-0.08229249876141548,-0.04050035269260406,-0.04402005125135183
1772525736788264400,0.594264404296875,-0.10025836356282233,-0.005777706618607044,0.007462590965628624
1772525736798248400,0.60424853515625,-0.07258242112994194,0.03705678810998797,0.0625806670755148
1772525736808231700,0.614231689453125,-0.045290509578585623,0.06534604013562202,0.10161036269366741
1772525736818215700,0.624215576171875,0.007585340562462807,0.05795081531777978,0.11339812338203191
1772525736828199700,0.63419970703125,0.0758475604057312,0.06824921423122286,0.10005787255465984
1772525736838182700,0.6441826171875,0.08710428295731544,0.03375613912940025,0.1248340018928051
1772525736848166700,0.654166748046875,0.021945289826393127,-0.02240019398704171,0.15967442912757396
1772525736858150700,0.664150634765625,-0.056447863408923146,-0.03319675168097019,0.14440525606423615
1772525736868133600,0.674133544921875,-0.10259002138078212,-0.005092354702949524,0.10879501350075006
1772525736878117600,0.68411767578125,-0.07923778736591339,0.02763429524824023,0.06603285335600376
1772525736888101600,0.6941015625,0.024206220495700835,0.0702896340176463,0.058036009383201595
1772525736898084600,0.704084716796875,0.14934534281492232,0.06335545084029436,0.07264730305969715
1772525736908068600,0.714068603515625,0.24038404261171817,0.03344736544117331,0.0797664874151349
1772525736918051800,0.7240517578125,0.30217911226749417,0.011656973915547132,0.07917290543615818
1772525736928035800,0.734035888671875,0.30503917787373064,0.005305266801267862,0.07218027006983757
1772525736938019600,0.74401953125,0.23188743242323398,0.0014218494966626166,0.02894552397727966
1772525736948002600,0.75400244140625,0.1169645836919546,-0.012915157283097506,-0.02682721664905548
1772525736957986600,0.763986572265625,-0.03431728014349937,-0.01856529199928045,-0.09433277290612459
1772525736967970600,0.773970458984375,-0.12335633055567741,-0.006995119584351777,-0.11491028151065111
1772525736977953800,0.783953857421875,-0.08957973316013812,0.031081951484084127,-0.10616115786582231
1772525736987937800,0.793937744140625,-0.004015080860257148,0.061491995055973525,-0.07866817078441381
1772525736997921800,0.803921875,0.058010874941945074,0.04800064532011747,-0.003273322582244873
1772525737007904500,0.813904541015625,0.09381634781658649,0.028193098174780606,0.016860241647064685
1772525737017888500,0.823888427734375,0.11520225019454955,0.032808190754801035,0.010238485419750212
1772525737027872500,0.83387255859375,0.12030629533529281,0.03132525872066617,0.015650573596358297
1772525737037855700,0.843855712890625,0.1187508825868368,0.02165156757682562,0.01305325057953596
1772525737047839700,0.85383984375,0.12991992685496806,0.010803864217549562,0.048580783295631404
1772525737057822700,0.86382275390625,0.12469313211739062,-0.0006637246057391166,0.05982727671414614
1772525737067806700,0.873806640625,0.11937047578990459,-0.022445640563964843,0.036219898894429205
1772525737077790500,0.88379052734375,0.08826338986456393,-0.06720993431136012,0.027821196122467515
1772525737087773400,0.8937734375,0.035624271088838574,-0.11068068111687898,0.023545126238465306
1772525737097757700,0.9037578125,-0.004131400716304779,-0.13819967942237854,-0.006961655706167221
1772525737107741700,0.91374169921875,-0.028718729484081267,-0.12380495110601186,-0.06311112069040536
1772525737117724700,0.923724609375,-0.06765490159988403,-0.11865896651968359,-0.07703355531990527
1772525737127708700,0.933708740234375,-0.07661971382200718,-0.09650748659670352,-0.02073562177568674
1772525737137692700,0.943692626953125,-0.005446574968099594,-0.04750891628041863,0.03019815438687801
1772525737147675400,0.95367529296875,0.05000935479402542,-0.00898570887967944,0.06790361566394568
1772525737157659600,0.96365966796875,0.07209025369882584,0.0036712358586490153,0.05403904870152473
1772525737167643600,0.9736435546875,0.07394143452346325,0.00636953503191471,0.023889117370545863
1772525737177626600,0.983626708984375,0.051181905704736706,-0.0074503160059452055,-0.004268763360381126
1772525737187610600,0.993610595703125,0.05677285757958889,0.01053118475601077,-0.0398842666208744
1772525737197593600,1.003593505859375,0.0785357765763998,0.01076543190330267,-0.06675970632582902
1772525737207577600,1.01357763671875,0.10644903489649295,-0.003885170870274305,-0.05787234325408935
1772525737217561600,1.0235615234375,0.09895780235826969,-0.029502281077206132,-0.04341097944229841
1772525737227544600,1.033544677734375,0.02588029118776321,-0.05102773805633187,-0.05061988790780306
1772525737237528600,1.043528564453125,-0.0285778597086668,-0.030036972475796935,-0.058008536854386325
1772525737247512600,1.0535126953125,-0.037001989182829854,0.02045870453044772,-0.04566021967381239
1772525737257495600,1.06349560546875,-0.002897475007176399,0.037885055627673865,-0.015749065534770488
1772525737267479600,1.0734794921875,0.029288053804636,0.03644216334298253,0.03912029651105404
1772525737277463600,1.083463623046875,0.06183247905671596,0.01917071054652333,0.04335223499238491
1772525737287446500,1.093446533203125,0.06305763693749904,0.0027779402807354926,0.033766076001524925
1772525737297430500,1.103430419921875,0.05503858113288879,-0.0006651859104633331,0.024565116935968398
1772525737307414500,1.11341455078125,0.048852585974335665,0.017974924890697002,0.015543898351490497
1772525737317397500,1.1233974609375,0.06923135713636874,0.01800575842037797,0.027237258754670618
1772525737327381500,1.133381591796875,0.11764847430288791,0.010687690491974353,0.058823068107664585
1772525737337364700,1.14336474609375,0.13195581659674643,-0.021394816336780784,0.056175476208329196
1772525737347348700,1.1533486328125,0.11828969481587409,-0.04318725368902087,0.04687690198719501
1772525737357332700,1.163332763671875,0.07934417034983635,-0.048815907225757835,0.006848258459568024
1772525737367315500,1.1733154296875,0.04570610464215279,-0.04044423859119415,-0.02185615023821592
1772525737377299500,1.183299560546875,-0.012775894942879677,-0.04294496936574578,-0.015105799195170402
1772525737387283500,1.193283447265625,-0.030505028378963468,-0.0388061159953475,-0.014984510903060435
1772525737397266700,1.2032666015625,-0.01473813492655754,0.005433277095109224,0.009818798702955246
1772525737407250700,1.213250732421875,0.01675765805542469,0.025235855804383752,0.04480652545392513
1772525737417234700,1.223234619140625,0.04503156638145447,0.010711655889451503,0.06466098048090935
1772525737427217700,1.2332177734375,0.09789046538770198,-0.003225684048235416,0.04589490521252155
1772525737437201400,1.243201416015625,0.13279168289899826,-0.019579291347414252,0.020326748713850974
1772525737447185400,1.253185302734375,0.13559271179437637,-0.046711043900996445,0.004267302055656909
1772525737457168600,1.263168701171875,0.14211539156138897,-0.06782835847064853,0.0059624155357480045
1772525737467152600,1.273152587890625,0.1184551145106554,-0.05970365033447742,-0.025739421412348747
1772525737477135600,1.283135498046875,0.09569733925759792,-0.041957419633120295,-0.04311170423477888
1772525737487119600,1.29311962890625,0.052149289432168004,-0.036049364633113146,-0.03685498192757368
1772525737497103600,1.303103515625,0.021388824987411497,-0.024845395182073116,-0.03490530916452408
1772525737507086600,1.313086669921875,0.0059235448300838465,0.014357611176371573,-0.028164018210768697
1772525737517070600,1.323070556640625,-0.054389761835336684,0.045529432900995016,0.005678337897360324
1772525737527054600,1.3330546875,-0.0928396117389202,0.06912146702110766,0.034515433064103124
1772525737537037600,1.34303759765625,-0.10068214193284511,0.09385141912996768,0.0577700519233942
1772525737547021600,1.353021484375,-0.0407166257917881,0.10020984824597835,0.06406301458775997
1772525737557005600,1.363005615234375,0.03880173208117485,0.09642316931411624,0.10273147567808627
1772525737566988800,1.37298876953125,0.09050620035529136,0.07135434063971043,0.14086685280501843
1772525737576972800,1.382972900390625,0.10713643263876438,0.033266163655370475,0.13555121074020862
1772525737586956500,1.39295654296875,0.07167641220092773,0.014908961448818444,0.11455693802833557
1772525737596939500,1.402939453125,0.0015793781459331512,0.024187808056175708,0.07932809599786997
1772525737606923500,1.412923583984375,-0.06026186873912811,0.022104425910860297,0.05974632043242454
1772525737616906800,1.42290673828125,-0.053831543430685996,0.03393441830575466,0.031677579289674754
1772525737626890800,1.432890869140625,-0.06491407845914364,0.044810617107152936,0.021145371620357036
1772525737636874800,1.442874755859375,-0.020925299128890035,0.044091801313310856,0.048047991593182085
1772525737646857500,1.452857421875,0.01664601437449455,0.028209318657219408,0.11451426793038845
1772525737656841500,1.462841552734375,0.02094517287313938,0.01763926319554448,0.12474457004368304
1772525737666825500,1.472825439453125,0.020528408765792844,0.027355770567804572,0.11720803705900906
1772525737676808700,1.48280859375,0.01407937875688076,0.01819309768602252,0.09598580081015824
1772525737686792700,1.492792724609375,-0.011036942321062088,0.011138210738450288,0.07047755780518054
1772525737696776700,1.502776611328125,-0.027983400946855544,-0.005184709161520004,0.023578443986177443
1772525737706759700,1.512759765625,-0.05248655856251716,-0.024207389539480206,-0.009400281029939651
1772525737716743700,1.52274365234375,-0.04857084642350673,-0.02964958059340715,-0.03648030339628458
1772525737726727700,1.532727783203125,-0.02069382846057415,-0.020251491520553826,-0.03496551491916179
1772525737736710700,1.542710693359375,0.004624152669310569,-0.007756459345668554,-0.002112169848382473
1772525737746694700,1.552694580078125,0.011980360651016235,-0.009526683888584376,0.02868891886770725
1772525737756678700,1.5626787109375,0.01578033745586872,-0.0123446639187634,0.036518297319114205
1772525737766661600,1.57266162109375,0.03574175998866558,0.020014029502868652,0.043865737472474575
1772525737776645600,1.582645751953125,0.040210429835319514,0.033734511819481845,0.02803542339503765
1772525737786628600,1.592628662109375,0.04555179086327552,0.022255232558399438,-0.0074377487853169435
1772525737796612600,1.602612548828125,0.04295651367306709,0.0112139063231647,-0.022968203133344647
1772525737806596600,1.6125966796875,0.043267479318380354,-0.021668080320209265,-0.021781039175391197
1772525737816579600,1.62257958984375,0.026653029125928877,-0.04156052927002311,-0.041433249628543854
1772525737826563600,1.6325634765625,0.057900400304794306,-0.02356996841877699,-0.06526537611484527
1772525737836547600,1.642547607421875,0.0837771843612194,-0.008205956678837537,-0.04498188202083111
1772525737846530600,1.652530517578125,0.12617489510774613,-0.02732975934371352,-0.006336509545147418
1772525737856514800,1.662514892578125,0.13990414525270461,-0.00990881507396698,0.003735679396986961
1772525737866498800,1.672498779296875,0.1704080045878887,-0.002385872223228216,0.008049450942873954
1772525737876481500,1.6824814453125,0.20004794057011605,0.004239975657314062,0.0074962009742856025
1772525737886465500,1.692465576171875,0.17184534391462802,-0.011344985356926917,-0.0006216390296816826
1772525737896449500,1.702449462890625,0.14717325947284698,-0.03336524011567235,-0.02502338209748268
1772525737906432500,1.7124326171875,0.12376140422523021,-0.04116100855842232,-0.042564884006977076
1772525737916416800,1.722416748046875,0.07622749963402747,-0.032920272827148434,-0.04943418525457382
1772525737926399700,1.732399658203125,0.049527124235033984,-0.015248714797198772,-0.017311200284957886
1772525737936383700,1.7423837890625,0.050769817772507664,0.012866641966253518,0.039168811827898026
1772525737946367500,1.752367431640625,0.03331190249323845,0.014266133500635624,0.10133885227590798
1772525737956350500,1.7623505859375,0.012174421918392181,0.0342756329588592,0.1219035013988614
1772525737966334500,1.77233447265625,0.01054185228049755,0.029543343739956617,0.10331599756777286
1772525737976318700,1.782318603515625,-0.012943068203330039,0.03372457494735718,0.10176818360388279
1772525737986301700,1.7923017578125,-0.025794950991868973,0.030052170044928786,0.08544628661721944
1772525737996285700,1.80228564453125,-0.029783143845200536,0.01310118137449026,0.0639046091556549
1772525738006269700,1.812269775390625,-0.031768180182576176,0.0004768237315118313,0.06185147601813078
1772525738016252400,1.82225244140625,-0.05177168829143047,-0.005614625011384487,0.06213701496124267
1772525738026236400,1.832236328125,-0.06694236941635608,-0.012798837427049875,0.057824412459135055
1772525738036220700,1.842220703125,-0.07114800441265105,0.013350772221386432,0.06588058540374041
1772525738046203600,1.85220361328125,-0.06459609855115413,0.028681027822196482,0.0691965780839324
1772525738056187600,1.862187744140625,-0.006308160233497619,0.04228402123898267,0.054012745216488835
1772525738066170600,1.872170654296875,0.07070084516704082,0.05035115396901965,0.03221007873117924
1772525738076154600,1.882154541015625,0.14685294147729872,0.01785655920803547,0.02907499557584524
1772525738086138400,1.892138427734375,0.18131693661510942,0.0055818917855620384,0.005269172574579715
1772525738096121600,1.90212158203125,0.19342355399429798,0.00840937029644847,-0.03263707197159529
1772525738106105600,1.912105712890625,0.14144026877880095,0.0010100538253784179,-0.04022971905767917
1772525738116089600,1.922089599609375,0.06194470725953578,-0.01466623873412609,-0.045377895601093766
1772525738126072300,1.932072265625,-0.005339607462286949,0.0029917291618883606,-0.047667175582051274
1772525738136056300,1.942056396484375,0.0007031798332929611,0.041662236078828574,-0.018980887062847614
1772525738146040300,1.952040283203125,0.057065703046321865,0.04891001524999737,0.02937602434903383
1772525738156023600,1.9620234375,0.12379939814805983,0.03249693284854293,0.07222615503817796
1772525738166007600,1.972007568359375,0.16562544648647307,0.018334990374743936,0.08345014436393976
1772525738175991600,1.981991455078125,0.15885376039445398,-0.020415888302028177,0.04670826742202043
1772525738185974500,1.991974609375,0.1226116496682167,-0.051724049757421016,-0.012991291259229182
1772525738195958300,2.001958251953125,0.04641688326001167,-0.08259659627452492,-0.042437458235025406
1772525738205942300,2.0119423828125,-0.02928454667329788,-0.09344473802521824,-0.05947773262411356
1772525738215925500,2.021925537109375,-0.055441901236772534,-0.08085705913081764,-0.04867606036365032
1772525738225909500,2.031909423828125,-0.07276362291574477,-0.0625718992471695,-0.030350130078196525
1772525738235892500,2.041892578125,-0.05945698209702968,-0.031738369566202164,-0.009175240102410316
1772525738245876500,2.05187646484375,-0.0403460389137268,-0.014426877020299433,0.04749795649498701
1772525738255860500,2.061860595703125,-0.019849194329977036,-0.004965513452887535,0.07427636556625365
1772525738265843500,2.071843505859375,-0.0160948102325201,-0.01334258891493082,0.07496814722269773
1772525738275827500,2.081827392578125,-0.014420739540457724,-0.0055704936087131495,0.040514965739846226
1772525738285811500,2.0918115234375,-0.0019680852025747296,-0.007951835787296295,0.014726152227818964
1772525738295794400,2.10179443359375,0.008473813834786414,-0.03299509162902832,-0.007708382420241832
1772525738305778400,2.1117783203125,0.032170915764570235,-0.0452086765140295,-0.03859159646183252
1772525738315762400,2.121762451171875,0.05383621960580349,-0.03180529732257128,-0.031118191841244695
1772525738325745700,2.13174560546875,0.042512277036905285,-0.02798661581724882,-0.011700959187746046
1772525738335729700,2.141729736328125,0.05413900194466114,-0.01093947329595685,-0.01371902101188898
1772525738345713400,2.15171337890625,0.033687165546417236,0.009588789339363574,-0.0205760472998023
1772525738355696400,2.1616962890625,0.039703064835071564,0.019220833298563954,-0.013663783693313598
1772525738365680400,2.171680419921875,0.05178980847001075,0.0016349077254533767,0.00762830292135477
1772525738375664400,2.181664306640625,0.06726677906513213,-0.0048573769032955166,0.004211480215191841
1772525738385647600,2.191647705078125,0.08722995516359805,-0.009014496582746506,0.018365970034897327
1772525738395631600,2.201631591796875,0.07741641715764999,-0.025701135228574274,0.036595746469497675
1772525738405614300,2.2116142578125,0.005200491252541542,-0.03222483790889382,0.025585692155361175
1772525738415598300,2.221598388671875,-0.03162555684149265,0.0012348024919629096,-0.021726970900595187
1772525738425582300,2.231582275390625,-0.016174889731407165,0.032791385750472545,-0.0346165553510189
1772525738435565600,2.241565673828125,0.05140110141336918,0.044225364565104244,0.008207564114034175
1772525738445549600,2.251549560546875,0.11602058084011077,0.03344473509266972,0.0671808543473482
1772525738455533600,2.261533447265625,0.15183774415254592,0.03885770005211234,0.10618483100235461
1772525738465516500,2.2715166015625,0.15546470247805116,0.02894347815066576,0.08798252709656953
1772525738475500500,2.28150048828125,0.10699322477579117,0.012289134339243174,0.06613280659914016
1772525738485484500,2.291484619140625,0.01384498547911644,-0.0020166005194187163,0.031205577863752842
1772525738495467500,2.301467529296875,-0.0752373195528984,-0.009589958383142947,0.02587649179548025
1772525738505451500,2.311451416015625,-0.1030745900273323,0.02139613151103258,0.02091068608164787
1772525738515435500,2.321435546875,-0.06875906344950199,0.04662351174801588,0.04758154312521219
1772525738525418500,2.33141845703125,0.004552840998768806,0.051364568795263764,0.07934621617645025
1772525738535402500,2.341402587890625,0.07215630467236042,0.05567936325445771,0.10786182430386543
1772525738545386500,2.351386474609375,0.11102934842407702,0.048146775792539113,0.12040712536126374
1772525738555369500,2.361369384765625,0.10486439605355262,0.026992928604781627,0.0967044704735279
1772525738565353500,2.371353515625,0.06299684666097163,-0.008946107521653176,0.049770285341143604
1772525738575337500,2.38133740234375,0.012743161717057227,-0.031843583506345745,0.011213467931747436
1772525738585320400,2.391320556640625,-0.049022681844234466,-0.03539455398619175,-0.006995557975769042
1772525738595304400,2.401304443359375,-0.07374328160285949,-0.01672930874377489,0.0054018590435385705
1772525738605288400,2.411288330078125,-0.05716682533323764,0.02034136176109314,0.04257862027138471
1772525738615271700,2.421271728515625,-0.022886370068788527,0.0481811164535582,0.05740121861100197
1772525738625255700,2.431255615234375,0.027279636591672894,0.06274360255226492,0.08610241243839263
1772525738635238400,2.44123828125,0.07712123360335826,0.0489392413444817,0.07283756493479013
1772525738645222400,2.451222412109375,0.09911445422470569,0.018980302540957925,0.02368979540616274
1772525738655206400,2.461206298828125,0.1004389808267355,-0.02508388011306524,-0.04556961878091097
1772525738665189600,2.471189697265625,0.08571662799119949,-0.058147068542242046,-0.10290420189648866
1772525738675173600,2.481173583984375,0.08543664200603962,-0.08434870063886046,-0.1148711185440421
1772525738685157600,2.49115771484375,0.08351648759841919,-0.058059974780678744,-0.07691255928874015
1772525738695140600,2.501140625,0.1048176343023777,-0.018668460112810134,-0.014813538250327109
1772525738705124400,2.511124267578125,0.11105039121210575,0.03571443359032273,0.05704290669262409
1772525738715108400,2.5211083984375,0.003845569512248039,0.022310323746502398,0.08908113598823547
1772525738725091600,2.531091552734375,-0.06015899288654327,0.01772825665324926,0.011714110930263996
1772525738735075600,2.54107568359375,-0.05440612844824791,0.046614451658725735,-0.04452098651081323
1772525738745059600,2.5510595703125,-0.020931728869676588,0.017598054402321577,-0.031336510767042636
1772525738755042600,2.56104248046875,0.042154549640417094,-0.03845204186066985,0.029058336701989172
1772525738765026600,2.571026611328125,0.09012626112699508,-0.052180269092321395,0.020320611234009266
1772525738775010600,2.581010498046875,0.097196637904644,-0.036746114725619554,0.004508709596097469
1772525738784993500,2.59099365234375,0.06065525197088718,-0.06515650891289114,0.006245908652245998
1772525738794977500,2.6009775390625,0.022001988449692724,-0.07412424374446272,-0.011873100884258747
1772525738804961500,2.61096142578125,-0.0023328268617391584,-0.054673108821362254,-0.026558628840744492
1772525738814944500,2.620944580078125,-0.002979308071732521,-0.03712093938738108,-0.014061550839245318
1772525738824928500,2.630928466796875,0.026714988446235655,-0.036760289381444454,0.012122107209265232
1772525738834912500,2.64091259765625,0.04623392790853977,-0.02727203780710697,0.03798340143561363
1772525738844895500,2.6508955078125,0.05111819281876087,-0.018641133714467285,0.05002689045071602
1772525738854879500,2.66087939453125,0.041270168021321295,0.0020965338878333566,0.035934944473207
1772525738864863500,2.670863525390625,0.039783144333958624,0.0078884151622653,0.021092180128395557
1772525738874846500,2.680846435546875,0.05505085609257221,-0.0005738543651998043,0.0003045359045267105
1772525738884830500,2.69083056640625,0.07601999436318874,0.0036348493710160255,-0.005674246244132519
1772525738894813400,2.7008134765625,0.10554068787992,-0.012218261060118675,-0.009412555989623069
1772525738904797400,2.71079736328125,0.0942781201094389,-0.027901714012771844,-0.014392390228807925
1772525738914781700,2.72078173828125,0.07716916439831256,-0.03250935393869877,-0.021576164253056047
1772525738924764400,2.730764404296875,0.06966682594418526,-0.011341332095116376,-0.03148644063174724
1772525738934748400,2.74074853515625,0.07523673503100872,-0.0028073125056922435,-0.03574994329512119
1772525738944732400,2.750732421875,0.07922726597189902,0.0008913958817720412,-0.023455109867453573
1772525738954715400,2.76071533203125,0.08820259958803653,-0.0015653496205806732,0.011102116511762142
1772525738964699400,2.770699462890625,0.07461831087172031,0.01810717296823859,0.04196370324343442
1772525738974683600,2.78068359375,0.042889293655753134,0.04435571294650435,0.06126841543316841
1772525738984666600,2.79066650390625,-0.006518003591895103,0.06365063439458608,0.04287263478189707
1772525738994650600,2.800650634765625,-0.04052548713386059,0.05682458776682615,0.030995734505355355
1772525739004634400,2.81063427734375,-0.012968202644586563,0.030426264054328203,0.026337679566442965
1772525739014617300,2.820617431640625,0.022850129711627958,0.036613428256660696,0.05195815077424049
1772525739024601300,2.830601318359375,0.05421732787787914,0.031371435949951405,0.10025281060487032
1772525739034585600,2.840585693359375,0.06693886228501797,0.03393850995898247,0.10571809027343988
1772525739044568600,2.850568603515625,0.0816641377300024,0.04507146000042558,0.09165303230285644
1772525739054552600,2.860552490234375,0.08253156821429729,0.06408098863586784,0.08753390654623508
1772525739064536600,2.87053662109375,0.07760112607479094,0.0595401303358376,0.10493833807259798
1772525739074519300,2.880519287109375,0.06843114666938781,0.025505028134584426,0.0907920315593481
1772525739084503300,2.89050341796875,-0.0011310498565435408,0.006176350547373295,0.060758712345361704
1772525739094487800,2.90048779296875,-0.05753448960185051,-0.0005007891289889812,0.013031331008672714
1772525739104471000,2.910470947265625,-0.0728933867752552,-0.0193703247718513,-0.03672375676333904
1772525739114455000,2.920455078125,-0.11439327189922333,-0.01937295512035489,-0.025244915893673895
1772525739124439000,2.93043896484375,-0.12346329806149005,-0.020054069252312182,-0.0011687515184283257
1772525739134422000,2.940422119140625,-0.12033084525465965,-0.013443565071374177,0.014624445419013499
1772525739144406000,2.950406005859375,-0.08713292452991009,-0.0043662323854863645,0.007340718151628971
1772525739154390000,2.96039013671875,-0.024966098952293396,0.015246522840112447,0.008724865986406802
1772525739164373000,2.970373046875,0.030434885752201078,0.0002443301498889923,0.029173195253312585
1772525739174357000,2.98035693359375,0.0578963086515665,-0.022416852860897778,0.03858896611332893
1772525739184340000,2.990340087890625,0.06772270613908768,-0.027666590082645416,0.023250234945118426
1772525739194324000,3.000323974609375,0.0836462514579296,-0.020872984419763086,0.002630640764534473
1772525739204308000,3.010307861328125,0.07517945188581943,-0.03279810775220394,-0.011976268997788428
1772525739214291200,3.020291259765625,0.062409986683726305,-0.04975391872823238,-0.025000001221895215
1772525739224275000,3.03027490234375,0.08480652740895747,-0.03488265894129872,-0.02856266213953495
1772525739234259000,3.040259033203125,0.10156418546438216,-0.034102906740456816,-0.021172259627282617
1772525739244242000,3.050241943359375,0.08595219031274318,-0.04949643683582544,-0.008660568578541278
1772525739254226000,3.060225830078125,0.0710416214287281,-0.04830284313708544,-0.00796206492036581
1772525739264210000,3.0702099609375,0.060849897760152816,-0.03580371930897236,-0.017167115639150143
1772525739274193200,3.080193115234375,0.061061494684219356,-0.012353431747108698,-0.00951747766882181
1772525739284177200,3.09017724609375,0.045052024647593496,0.0031871056035161016,0.003799392282962799
1772525739294161200,3.1001611328125,0.04139467118382454,0.02899403929412365,0.005212181690335273
1772525739304144000,3.110143798828125,0.05378361263573169,0.04519041020497679,0.01871960577815771
1772525739314128000,3.1201279296875,0.06702770961225032,0.04462459301576018,0.02180558909475803
1772525739324112000,3.13011181640625,0.08992284750938415,0.038407764327526094,0.021054478466510772
1772525739334095000,3.14009521484375,0.10279226595461367,0.0301332724571228,-0.0057400049567222595
1772525739344079000,3.1500791015625,0.07106850943565368,-0.00042421676144003867,-0.017773557099699973
1772525739354063000,3.16006298828125,0.011800327908992766,-0.018367577470093963,-0.02777209628373384
1772525739364046000,3.170046142578125,-0.01409632989168167,-0.024768384423106908,-0.01528846228569746
1772525739374029800,3.18002978515625,0.003634557110071182,0.03329436683654785,0.008111118002235889
1772525739384013800,3.190013916015625,-0.0000263034850358963,0.05226487863585352,0.05813304001688957
1772525739393997000,3.1999970703125,0.0177723880559206,0.060028790635615586,0.10276274759918451
1772525739403981000,3.20998095703125,0.035216859331727024,0.06779664815813302,0.12288695947825908
1772525739413965000,3.219965087890625,0.026629648250341413,0.04128244298100471,0.10295768564939499
1772525739423948000,3.229947998046875,0.023449849170446395,0.008862520891427993,0.07266746906489134
1772525739433932000,3.23993212890625,0.013878303226828575,-0.01841433922126889,0.053637189902365205
1772525739443916000,3.249916015625,-0.0076233344852924345,-0.02965747163891792,0.049313773745298384
1772525739453899000,3.25989892578125,-0.01907996352314949,-0.024563363370299338,0.048347851322591305
1772525739463883000,3.269883056640625,-0.012568974193930625,-0.00513107927814126,0.025046762973070142
1772525739473867000,3.279866943359375,0.011817863565683364,0.01553089273944497,0.03001256868690252
1772525739483850000,3.28985009765625,0.06773673466444015,0.019498481196165082,0.03137625825554132
1772525739493834000,3.299833984375,0.09911971492171287,-0.006892243731766939,0.03929273046851158
1772525739503818000,3.30981787109375,0.08862520891427993,-0.03409428504258394,0.023104981255531308
1772525739513801200,3.31980126953125,0.075890815025568,-0.0360761065095663,-0.001584346581995487
1772525739523785000,3.329784912109375,0.04161211332678794,-0.028209172526746987,-0.01106207676231861
1772525739533769000,3.33976904296875,0.026684593307971953,-0.017248802573233843,-0.01891512835025787
1772525739543752000,3.349751953125,0.05442658671438694,-0.00819908854663372,-0.01643470971137285
1772525739553736000,3.35973583984375,0.07188391747176646,-0.0008240297339856624,-0.019651041409373283
1772525739563720000,3.369719970703125,0.0996931308954954,-0.02236804528310895,-0.04181874181479216
1772525739573703200,3.379703125,0.11691489933133124,-0.03265679958537221,-0.0762593560770154
1772525739583687200,3.389687255859375,0.1126905596345663,-0.03333279915079474,-0.11340981381982564
1772525739593670000,3.399669921875,0.10186989041268825,-0.04514525588899851,-0.11015811854749917
1772525739603654000,3.40965380859375,0.08648001357913017,-0.03341258638873696,-0.05469809713214636
1772525739613638000,3.419637939453125,0.0948398456454277,-0.023961598084867,-0.011686346140503883
1772525739623620900,3.429620849609375,0.08043255010843277,-0.0006784837834537029,0.02646247498989105
1772525739633605000,3.439605224609375,0.0768581987529993,0.0190773331746459,0.04168927021622657
1772525739643589000,3.449589111328125,0.08207505661845206,0.027344518521428107,0.049238370421528815
1772525739653572000,3.459572021484375,0.07223813773691654,-0.0027361469656229016,0.04573240812718868
1772525739663556000,3.46955615234375,0.05975099660754203,-0.018840601809322833,0.00732639736533165
1772525739673539800,3.479539794921875,0.0629763883948326,-0.04088438357412815,-0.032465514796972274
1772525739683522800,3.489522705078125,0.05492518388628959,-0.06437763349488378,-0.024797172126173973
1772525739693507000,3.499507080078125,0.03549333818554878,-0.05824892148151994,-0.020110183353722094
1772525739703491000,3.509490966796875,0.0047977556705474855,-0.039244799673557276,0.005099661226570606
1772525739713474000,3.51947412109375,-0.013414777368307113,0.0017997428983449935,0.01532850203514099
1772525739723458000,3.5294580078125,-0.019043138644099233,0.019212942253053186,0.03283347132652998
1772525739733442000,3.539442138671875,-0.047181437891721724,0.03878419642448425,0.06398381187170743
1772525739743424800,3.5494248046875,-0.05247019194960594,0.030590076313912865,0.06323182446062564
1772525739753409000,3.559408935546875,-0.012568974193930625,0.02501885205283761,0.04569353742152452
1772525739763393000,3.56939306640625,0.009061258333921431,0.008822627272456885,0.04284545451402664
1772525739773376000,3.5793759765625,0.03324117534458637,-0.0006422434262931346,0.035877076806128026
1772525739783360000,3.589360107421875,0.05385667787194252,0.004632335975766182,0.018909283131361008
1772525739793344000,3.599343994140625,0.08721241950690746,0.015872838044911623,0.032114509402215476
1772525739803327000,3.609326904296875,0.08337269521355628,0.017235650830715894,0.06974047570228577
1772525739813311000,3.61931103515625,0.07370645672380924,0.022216946374624968,0.08891367046684026
1772525739823295000,3.629294921875,0.06122691437900066,0.03148512545749545,0.08023264362215995
1772525739833278000,3.63927783203125,0.042425183275341984,0.040122313160449265,0.060331134583055966
1772525739843262000,3.649261962890625,0.008685995280742645,0.03178425453454256,0.033254911608994006
1772525739853246000,3.659245849609375,-0.036947044125199315,0.0003058510787785053,-0.004415770615637302
1772525739863229000,3.66922900390625,-0.03306698782145977,-0.005208674558997154,-0.01683306137919426
1772525739873213000,3.679212890625,-0.02847030768096447,0.00022898645028471946,-0.031772271835803986
1772525739883197200,3.689197265625,0.023510054925084112,-0.005806202060729265,-0.036790392258763314
1772525739893180000,3.699179931640625,0.0543149430334568,-0.018795447493344546,-0.01321662444770336
1772525739903164000,3.709163818359375,0.0716518622815609,-0.024835604440420864,0.022982231658697127
1772525739913148000,3.71914794921875,0.07057458843886852,-0.015474778638035059,0.028295243375003335
1772525739923131000,3.729130859375,0.03693593820929527,-0.005793196448683738,0.01454904209524393
1772525739933115000,3.739114990234375,0.03090367230772972,0.0009703063368797302,-0.012663082218170165
1772525739943099100,3.74909912109375,0.0419581502854824,-0.006324234585464,-0.013192951311171054
1772525739953082000,3.75908203125,0.030159575942158696,-0.020676731195300817,-0.00938859059214592
1772525739963066000,3.769066162109375,0.043941433057188985,-0.018528467120230197,-0.01736848343014717
1772525739973049900,3.7790498046875,-0.012931962287425994,-0.024912176807969807,-0.038673721787333484
1772525739983032800,3.78903271484375,-0.07827683337926865,-0.02409749942421913,-0.05775193174481392
1772525739993016800,3.799016845703125,-0.11351765810847282,-0.010925006379187106,-0.04851707040965557
1772525740003001000,3.8090009765625,-0.10965455293953418,-0.005442921706289052,-0.00466682276725769
1772525740012984000,3.818984130859375,-0.08310323062241078,0.022049188592284916,0.039597558633983135
1772525740022968000,3.828968017578125,-0.05186813440322876,0.05301175148040056,0.08976941051334142
1772525740032952000,3.8389521484375,-0.003892331263422966,0.09910393283069133,0.13196487668603657
1772525740042934800,3.848934814453125,0.05213292281925678,0.11642375481352209,0.13175474106669424
1772525740052918800,3.858918701171875,0.0959071826159954,0.10936360716894268,0.1286591131389141
1772525740062903000,3.868903076171875,0.11138473773300647,0.07188231003656984,0.08874503590166569
1772525740072886000,3.878885986328125,0.07979775933623313,0.01795519727692008,0.04000760073959827
1772525740082870000,3.8888701171875,0.023351064971089363,-0.006614303573220968,-0.025689444790780544
1772525740092853000,3.89885302734375,-0.002009001734852791,-0.014942863718420267,-0.048041854113340374
1772525740102836200,3.908836181640625,0.03112052992880344,-0.020505174020677804,-0.0027601123631000517
1772525740112820200,3.9188203125,0.05175415263473987,-0.004258534227311611,0.04061842611432075
1772525740122804200,3.92880419921875,0.06480944904088974,0.025126696341484782,0.09472790970355272
1772525740132787200,3.938787109375,0.06430033047497272,0.03967164678350091,0.10308072750717401
1772525740142771200,3.948771240234375,0.06167232005894184,0.047765813650935886,0.0770540135860443
1772525740152755200,3.958755126953125,0.023373861324787137,0.013302403035014867,0.018770459182560442
1772525740162738200,3.96873828125,0.0078688336789608,-0.03603840484768152,-0.0224649297863245
1772525740172722200,3.97872216796875,0.03736322371065617,-0.0622337533339858,-0.04642068265229463
1772525740182706200,3.9887060546875,0.07713935378193855,-0.06230623404830694,-0.041021746218204494
1772525740192689200,3.998689208984375,0.098321258020401,-0.07091916409283876,-0.021827800926566124
1772525740202671000,4.008671142578125,0.0972094973862171,-0.06998699780926108,-0.0247501181140542
1772525740212655000,4.018655029296875,0.14446341599225998,-0.04548120984509587,-0.007001403194665908
1772525740222638000,4.02863818359375,0.1951736125320196,-0.032522797942161556,0.016379764653742312
1772525740232622000,4.0386220703125,0.213028418174386,-0.0337334889061749,0.04130523933470249
1772525740242606000,4.048606201171875,0.23012392988204955,-0.04151230621412396,0.04169277734756469
1772525740252589300,4.05858935546875,0.17452771486639976,-0.07059212409555912,0.004014204077422619
1772525740262573300,4.0685732421875,0.12653437606990336,-0.0653790656223893,-0.04309066144675016
1772525740272557300,4.078557373046875,0.10076689760684966,-0.05872969073578715,-0.08648995045125484
1772525740282540000,4.0885400390625,0.08438041095137595,-0.06086743341684341,-0.0885568198531866
1772525740292524000,4.09852392578125,0.10280687900185584,-0.05911985909715294,-0.0610138561502099
1772525740302508000,4.108508056640625,0.09360825802385807,-0.04041559701859951,-0.0340744112983346
1772525740312491300,4.1184912109375,0.07506605463922024,-0.02997238280698657,-0.03370470120310783
1772525740322475300,4.128475341796875,0.05891805291473865,-0.0025619594424962995,-0.01459521932452917
1772525740332459300,4.138459228515625,0.049072366204857824,0.013258125501871108,-0.0034527708023786544
1772525740342442200,4.148442138671875,0.02524082424044609,0.023200696714967488,0.016480302418768404
1772525740352426000,4.158426025390625,-0.006772270613908767,0.015103753368556499,0.021019114892184734
1772525740362410000,4.168409912109375,-0.04389642487168312,-0.00022752514556050298,0.025401275499165057
1772525740372393200,4.178393310546875,-0.0820171889513731,-0.006529840160161256,0.02820142761170864
1772525740382377200,4.188377197265625,-0.14856325252652167,-0.021535101590305566,0.0014694880306720733
1772525740392361200,4.198361328125,-0.1649789652764797,-0.03754486388787627,-0.0230792622923851
1772525740402344200,4.20834423828125,-0.13453823430538175,-0.014083908801525831,-0.03106646165400743
1772525740412328200,4.218328125,-0.07367080088853836,-0.003267038971930742,-0.011684592574834823
1772525740422312200,4.228312255859375,0.0044148938328027725,-0.002116261501610279,0.028572891272604463
1772525740432295200,4.238295166015625,0.06563187133967877,-0.0006150631584227084,0.06937661082595586
1772525740442279200,4.248279052734375,0.115596802470088,0.011404168198257684,0.09058657211512326
1772525740452263200,4.25826318359375,0.10199790070652962,0.009649141224473714,0.07791121493726968
1772525740462246100,4.26824609375,0.04963292269706726,0.013037176227569579,0.06210428173542022
1772525740472230100,4.278230224609375,0.03076163348853588,0.03389247886016965,0.04662818792313337
1772525740482214100,4.288214111328125,0.015731822139024732,0.04308832335919142,0.047234337122738355
1772525740492197400,4.298197265625,0.006868132203817367,0.04241510027274489,0.06669073274284601
1772525740502181000,4.30818115234375,0.002269113975763321,0.0544870847299695,0.05914601645171642
1772525740512165000,4.3181650390625,-0.0004465747237205505,0.07230725745037198,0.023322715659439563
1772525740522148000,4.328148193359375,0.013859014004468918,0.06207388659715652,0.012235212194919586
1772525740532132000,4.338132080078125,0.04429682236611843,0.06371785441190005,0.03144844670891762
1772525740542116000,4.3481162109375,0.08683891001939772,0.058414779567718504,0.048455403350293635
1772525740552099300,4.358099365234375,0.09490355853140353,0.059862786418944595,0.055225335876643654
1772525740562083300,4.368083251953125,0.0340939927816391,0.05891892969757318,0.0034913492470979688
1772525740572067300,4.3780673828125,-0.036868718191981315,0.005512333680689334,0.013259586806595326
1772525740582051300,4.38805126953125,-0.08275894722938537,0.0017320844896137712,0.0010460019215941428
1772525740592035000,4.39803515625,-0.06023848786354065,0.026725655970722434,0.03329758170694112
1772525740602019000,4.40801904296875,-0.00499883120059967,0.013104103983938693,0.07670388497412205
1772525740612002000,4.418001953125,0.026045710882544516,0.01702317712381482,0.10766600947082042
1772525740621986000,4.427986083984375,0.04452244781553745,0.011152969916164874,0.11631810248196124
1772525740631970000,4.437969970703125,0.02807633992731571,-0.005673369461297989,0.0908750336676836
1772525740641953300,4.447953369140625,0.006974515187740326,-0.022166969753056764,0.052504386480152605
1772525740651937300,4.457937255859375,-0.0325122765481472,-0.028990970554202793,0.01842939065992832
1772525740661921300,4.46792138671875,-0.040862756264209744,-0.033409225387871264,-0.006757073044776916
1772525740671904000,4.477904052734375,-0.03325988004505634,-0.013945815505087375,0.00888531724512577
1772525740681888000,4.487887939453125,0.009866144976019859,0.021786007611453533,0.02107405994981527
1772525740691872000,4.4978720703125,0.07171732873320578,0.05313786207810044,0.033923604650795455
1772525740701855200,4.507855224609375,0.13734920007288456,0.06175152277499437,0.025456805078685283
1772525740711839200,4.517839111328125,0.14777999319434165,0.04692819378301501,0.016013561689853666
1772525740721823200,4.5278232421875,0.11549801827073096,0.015670008949190378,-0.01952390789836645
1772525740731806200,4.53780615234375,0.07282733580172061,-0.004629997888207435,-0.07613222256600856
1772525740741790000,4.5477900390625,0.0485766916424036,-0.018548925386369226,-0.10848580142110585
1772525740751774000,4.55777392578125,0.06155073950588703,-0.02085544876307249,-0.09147533764839172
1772525740761757200,4.567757080078125,0.07962240276932715,-0.027559184185415506,-0.053454234550893306
1772525740771741200,4.5777412109375,0.08465922789275646,-0.03041530426889658,-0.045266836442053315
1772525740781725200,4.58772509765625,0.06289513985216617,-0.019157558804005385,-0.029031156434118747
1772525740791708200,4.597708251953125,0.048885319200158116,-0.016064707355201244,-0.010849603055417536
1772525740801692200,4.607692138671875,0.02782148838341236,-0.011070260068774223,-0.0005427285745739937
1772525740811676200,4.61767626953125,0.0032797523230314253,-0.0480723953820765,-0.030023674602806565
1772525740821659100,4.6276591796875,0.009295067089796065,-0.05492503775581717,-0.0452174443423748
1772525740831643100,4.63764306640625,0.004378068953752518,-0.0765806969858706,-0.0275692671880126
1772525740841627100,4.647627197265625,0.002319382858276367,-0.09256693227738141,-0.003146189071238041
1772525740851610000,4.657610107421875,-0.002675356689095497,-0.07600289709791541,0.01501958221644163
1772525740861594000,4.667593994140625,-0.00048690673410892486,-0.06707388684153556,0.01915273649841547
1772525740871578000,4.677578125,-0.010883797585964201,-0.04913710200414061,0.023514731100201604
1772525740881561000,4.68756103515625,-0.006343231546878814,-0.04441767226681113,0.031552783866226675
1772525740891545000,4.697545166015625,0.0038514147311449047,-0.0342398309931159,0.029946225452423095
1772525740901529000,4.707529052734375,0.03136602912247181,-0.00797813927233219,0.01380436120778322
1772525740911512000,4.717511962890625,0.05821662664711475,-0.004446311884373427,0.011883622278273104
1772525740921496000,4.72749609375,0.0786181941628456,0.0015033903002738952,0.016527356430888176
1772525740931480000,4.73747998046875,0.06901391499340534,0.007654606406390666,0.025825638391077516
1772525740941463300,4.74746337890625,0.06244681156277656,0.030497575724869965,0.029872575694322584
1772525740951447300,4.757447265625,0.05519289491176605,0.05356587823182344,0.045886137384176254
1772525740961431300,4.767431396484375,0.06643441989421844,0.0800527570106089,0.05037263514846563
1772525740971414000,4.7774140625,0.0938987654030323,0.07404401811510324,0.05391483779996633
1772525740981398000,4.78739794921875,0.09688976391255855,0.06194222304150462,0.04313976128548384
1772525740991382000,4.797382080078125,0.13009294533431529,0.05815539797917008,0.013793255291879176
1772525741001365200,4.807365234375,0.1478524739086628,0.05377615998163819,0.008421206864714622
1772525741011349200,4.817349365234375,0.15101649089753627,0.035650282312929625,0.005244330394268036
1772525741021333200,4.827333251953125,0.10845745210945605,0.026576310627907513,0.013887947838008403
1772525741031316000,4.83731591796875,0.07176175239682198,0.026806027730554342,-0.0008580781340599059
1772525741041300000,4.847300048828125,0.07068740116357802,0.022523674236238002,0.000754033237695694
1772525741051284000,4.857283935546875,0.1112310084760189,0.008703969328850506,0.007097849306464195
1772525741061267200,4.86726708984375,0.12149988903403282,-0.000044569794088602064,0.049041678805649275
1772525741071251200,4.877251220703125,0.10874971305429935,-0.021616642393916845,0.0863324218019843
1772525741081235200,4.887235107421875,0.07309913848042487,-0.010173311229050158,0.07204583003520965
1772525741091218700,4.89721875,0.024254735812544823,0.012946867595613002,0.05481500151008367
1772525741101202700,4.90720263671875,-0.0075075991511344906,0.03645107730180025,0.05202917018383741
1772525741111186700,4.917186767578125,-0.021594576692581177,0.04311462684422731,0.07243950552791356
1772525741121170000,4.927169921875,-0.05370762479007244,0.033392274253070356,0.06365910996198654
1772525741131154000,4.93715380859375,-0.07579436891376971,0.018257833485305307,0.03849778069853783
1772525741141138000,4.947137939453125,-0.06210135912597179,0.006912555867433548,0.027318215036392212
1772525741151120600,4.95712060546875,-0.027087913411855697,0.0031102409750223157,0.030446868450939652
1772525741161104600,4.967104736328125,0.03076864775121212,-0.005622077665477991,0.03595803308784962
1772525741171088600,4.977088623046875,0.06389642584919929,-0.003407762616872787,0.04557312591224909
1772525741181072000,4.98707177734375,0.05197276382148266,-0.007512129195779561,0.03813537712693214
1772525741191056000,4.997055908203125,0.009233692291378975,-0.011186579924821853,0.014724398662149906
1772525741201040000,5.007039794921875,-0.04072013292312622,-0.01178454581797123,-0.007014554937183857
1772525741211022800,5.01702294921875,-0.07482932327389717,-0.011503536919504403,-0.01823942104578018
1772525741221006600,5.027006591796875,-0.059009822851419445,-0.0165916538387537,-0.0134828741684556
1772525741230990600,5.036990478515625,-0.030952187624573704,-0.03166735015660524,-0.004584112919867039
1772525741240973800,5.046973876953125,0.00751285984814167,-0.021689123108237982,0.035039164677262306
1772525741250957800,5.056957763671875,0.05278232663869858,-0.03158843970149755,0.07152180616110562
1772525741260941800,5.06694189453125,0.07077683301270007,-0.01654299239143729,0.0894283419907093
1772525741270924800,5.0769248046875,0.03247428262531757,0.014173925172537565,0.07767828296422957
1772525741280908800,5.08690869140625,0.013453355813026428,0.015106237586587667,0.024319617742300032
1772525741290892800,5.096892822265625,0.052775896897912025,0.05376651537045836,-0.026935937720537186
1772525741300875800,5.106875732421875,0.09882686945497988,0.07540186246484518,-0.03054857525974512
1772525741310859800,5.11685986328125,0.14541735571622846,0.02720481778979301,0.001620294678211212
1772525741320843800,5.12684375,0.17443945206105707,0.00832256879583001,0.021290040788054465
1772525741330826800,5.13682666015625,0.16371055277585983,0.026454730074852703,0.020895780773460864
1772525741340810800,5.146810791015625,0.12505845829844475,0.03786269766539335,0.011808218954503536
1772525741350794800,5.156794677734375,0.0647539194613695,0.03990998558402061,-0.009703063368797301
1772525741360777700,5.16677783203125,-0.00004676175117492675,0.03444821304678917,-0.035137072093784805
1772525741370761700,5.17676171875,-0.021748890471458435,0.02729498029127717,-0.04908931733965873
1772525741380745700,5.186745849609375,-0.007883446726202965,0.00810775700137019,-0.026379472881555555
1772525741390728700,5.196728759765625,0.04136544508934021,0.002843845123797655,-0.01783171702772379
1772525741400712700,5.206712646484375,0.08580605984032154,0.007075929735600948,0.0058019642770290375
1772525741410696700,5.21669677734375,0.11740823580622672,-0.00629135522916913,0.05295066894292831
1772525741420680700,5.2266806640625,0.12951193057596683,-0.007854220631718634,0.04644143317937851
1772525741430664000,5.236663818359375,0.1347550919264555,-0.0008477028705179691,0.05727759223133325
1772525741440648000,5.24664794921875,0.11422960577011108,0.005994271978735924,0.060925885605812066
1772525741450632000,5.2566318359375,0.035649990051984784,-0.02136675928607583,0.03712678460627794
1772525741460614700,5.26661474609375,-0.04476794700920581,-0.03587503097951412,-0.009044307199120522
1772525741470598700,5.2765986328125,-0.11540157215893268,-0.05392521306350827,-0.02448445291519165
1772525741480582700,5.286582763671875,-0.12636954089701175,-0.061586833732575175,-0.011853519400954245
1772525741490566000,5.29656591796875,-0.09581307459175586,-0.05877572183459997,0.014376608137786387
1772525741500550000,5.3065498046875,-0.06921089887022971,-0.038005321006476876,0.029814708027243612
1772525741510534000,5.316533935546875,-0.018312486281991003,-0.028546733918040988,0.026033143661916256
1772525741520516600,5.3265166015625,0.024513094487786293,-0.013847615827620029,0.017234043395519257
1772525741530500600,5.33650048828125,0.06367664561867714,-0.01803147738352418,-0.007383972771465778
1772525741540484600,5.346484619140625,0.08734861310720443,-0.039510757133364674,-0.028674890342354774
1772525741550467800,5.3564677734375,0.06257014568150043,-0.042027416129410265,-0.041460429896414276
1772525741560451800,5.366451904296875,0.01019815340936184,-0.02524710785076022,-0.07659925555586815
1772525741570435800,5.376435791015625,-0.007626257094740867,-0.00794438313320279,-0.09589140052497386
1772525741580418800,5.386418701171875,0.003911620485782623,0.0015923837579786776,-0.083818977676332
1772525741590402800,5.39640283203125,0.012685878571867941,-0.026354630701243876,-0.07814823856353759
1772525741600386800,5.40638671875,0.031051556345820425,-0.03575593464449048,-0.06042962652146816
1772525741610369800,5.416369873046875,0.05704992095530033,-0.028808745855093,-0.05318360091596842
1772525741620353800,5.426353759765625,0.07756605476140975,-0.008224076857417821,-0.056793023584783074
1772525741630337800,5.436337890625,0.09450491460263728,-0.016516104384511707,-0.03923252471387386
1772525741640320800,5.44632080078125,0.0972533365279436,-0.02939122191816568,-0.038545711493492125
1772525741650304800,5.4563046875,0.09406067796647548,-0.04576178035214543,-0.01386105983108282
1772525741660288800,5.466288818359375,0.046674657413363456,-0.060346478282660244,0.022253625123202798
1772525741670271700,5.476271728515625,0.013421791630983351,-0.05010623929724097,0.024454642298817632
1772525741680255700,5.486255859375,-0.01903027916252613,-0.0387811276845634,-0.002824409770965576
1772525741690239700,5.49623974609375,-0.04308569301068783,-0.026047756709158418,0.0048310734182596205
1772525741700222700,5.50622265625,-0.043698856472969054,-0.0014598434194922447,0.013569967930018901
1772525741710206700,5.516206787109375,-0.042947745844721795,0.013113164073228835,0.02250146240442991
1772525741720190700,5.526190673828125,-0.023519991797208786,0.01368891813457012,0.04817103345096111
1772525741730174000,5.536174072265625,0.006503390544652939,0.034920214472711084,0.0764206841185689
1772525741740158000,5.546157958984375,0.03939093014597893,0.04775675356164574,0.11160890187770127
1772525741750142000,5.556141845703125,0.02545651281774044,0.05865063415020704,0.10548282021284103
1772525741760124700,5.566124755859375,0.035464696612954136,0.07406316120699048,0.09976970326304435
1772525741770108700,5.576108642578125,0.008048281899094581,0.07703750084266066,0.10710574523955584
1772525741780092700,5.5860927734375,-0.020863924330472947,0.058714054775238035,0.07615618796348571
1772525741790076000,5.596075927734375,-0.028249358406662938,0.04972659232988953,0.02000701524019241
1772525741800060000,5.606059814453125,0.01097322943508625,0.06840148218348623,0.010965338389575481
1772525741810044000,5.6160439453125,0.08112930020093917,0.066079030585289,0.031975685453414913
1772525741820026600,5.626026611328125,0.13543547540605066,0.0635502427600324,0.06270078632384539
1772525741830010600,5.6360107421875,0.139886609596014,0.05178016385883093,0.07799187895804643
1772525741839994600,5.64599462890625,0.11232815606296062,0.037154111004620786,0.07501344766914844
1772525741849977900,5.655977783203125,0.05330021303296089,0.034386545987427235,0.03867401404827833
1772525741859961900,5.6659619140625,0.012138181561231613,0.017711597779393195,-0.022158932577073572
1772525741869945900,5.67594580078125,-0.024618308427929878,-0.0059537938378751275,-0.04165302985906601
1772525741879928800,5.6859287109375,-0.007960019093751906,-0.030947657579928636,-0.025548867276310918
1772525741889912800,5.695912841796875,0.04660743739604949,-0.046949236571043725,0.009838087925314903
1772525741899896800,5.705896728515625,0.09200491448044776,-0.057547933605313295,0.038864568184316155
1772525741909879800,5.7158798828125,0.07694704608023166,-0.09102993196845054,0.0370434902369976
1772525741919863800,5.72586376953125,0.03798632404506206,-0.07717296379059553,0.0029521278038620946
1772525741929847800,5.735847900390625,0.014704232656955718,-0.033326807801425454,-0.012439210334420204
1772525741939830800,5.745830810546875,0.017228782698512076,0.008910305555909872,-0.04248597355186939
1772525741949814800,5.755814697265625,0.04441314222216606,0.0013328560389578342,-0.052583589196205135
1772525741959798800,5.765798828125,0.06738251439929008,-0.039090047503262754,-0.050686523403227324
1772525741969781800,5.77578173828125,0.050938744598627086,-0.09016834670305252,-0.08127104675918817
1772525741979765800,5.785765869140625,0.04283142598867416,-0.07454349206984043,-0.1134878474920988
1772525741989749800,5.795749755859375,0.04287058895528316,-0.06258022868409753,-0.12394114470630883
1772525741999732700,5.805732666015625,0.0666886869162321,-0.013002104914188383,-0.044887773996591565
1772525742009716700,5.815716796875,0.05837912373244762,0.05992503800019622,0.035409459294378755
1772525742019700700,5.82570068359375,0.011359013882279395,0.0960246715158224,0.06361439403742551
1772525742029683700,5.83568359375,-0.047718028986454004,0.12298866628706455,0.0881342105269432
1772525742039668000,5.84566796875,-0.04960428112447261,0.13915595723390578,0.08065262259989976
1772525742049652000,5.85565185546875,-0.041027006915211675,0.11885770396217703,0.07475771934241056
1772525742059635700,5.8656357421875,-0.022684710016846656,0.06532032117247581,0.06628682811707258
1772525742069618700,5.87561865234375,-0.030161914029717445,0.0065332011610269546,0.05445581280887127
1772525742079602700,5.885602783203125,-0.03903612535893917,-0.0007470189750194549,0.04322364017665386
1772525742089587200,5.895587158203125,-0.038379707276821134,-0.00961319312825799,0.0439779656752944
1772525742099570000,5.90556982421875,-0.018916297394037246,0.011572218241542576,0.042941023842990395
1772525742109554200,5.91555419921875,-0.0036287118911743164,0.022205255936831234,0.06594488281160593
1772525742119538200,5.9255380859375,0.006401683735847472,-0.009448211824893952,0.06013298166245222
1772525742129521200,5.935521240234375,0.020098785176873205,-0.017893822478502987,0.032894553864002224
1772525742139505200,5.945505126953125,0.06528700342476368,-0.04046966529339552,0.05048369430750608
1772525742149489200,5.9554892578125,0.07323650112450122,-0.07797098230049014,0.05696838015168905
1772525742159472000,5.96547216796875,0.024887188497185707,-0.07196896540671587,0.0001502221256494522
1772525742169456000,5.9754560546875,-0.0003612345278263092,-0.058674161156266925,-0.024504618920385836
1772525742179440000,5.985440185546875,-0.021076105776429176,-0.03003711860626936,-0.0028191490739583967
1772525742189423000,5.995423095703125,0.016485855376720426,0.0175502697378397,-0.004301204325258732
1772525742199407000,6.005406982421875,0.0821867002993822,0.03336144072338938,0.00046001872718334194
1772525742209391000,6.01539111328125,0.13448621185719967,0.008281067741662264,-0.007327274148166179
1772525742219374000,6.0253740234375,0.1688005693912506,-0.010005991838127374,-0.060117784093320366
1772525742229358000,6.035358154296875,0.1894131493091583,-0.03693228494748473,-0.09832096575945615
1772525742239342300,6.04534228515625,0.17336042465269563,-0.05246785386204719,-0.096482352155447
1772525742249325000,6.055324951171875,0.14751695834398268,-0.020199907463788986,-0.10091010546982287
1772525742259309000,6.06530908203125,0.149668583419919,0.005527823510766029,-0.09974252299517393
1772525742269293000,6.07529296875,0.1859358285874128,0.012845014656335115,-0.0637912119090557
1772525742279276000,6.085276123046875,0.22089958994090556,0.03553878476247191,-0.021139818662405014
1772525742289260000,6.095260009765625,0.21654256377518175,0.012849983092397451,-0.011140694956481456
1772525742299244300,6.105244384765625,0.1647363886922598,-0.017164485290646552,-0.024845979703962802
1772525742309227300,6.115227294921875,0.09705459908545017,-0.012581395284086465,-0.030180034208297728
1772525742319211000,6.1252109375,0.021385902377963065,-0.030943273665755985,-0.010941665253043175
1772525742329195000,6.135195068359375,-0.04382628224492073,-0.03146963562741875,-0.009150982443988322
1772525742339178000,6.145177978515625,-0.0734597884863615,-0.0041398762837052345,-0.011268997511267661
1772525742349162000,6.155161865234375,-0.0482411760777235,0.028420184928923845,0.02535100661665201
1772525742359146200,6.165146240234375,0.0028396073400974273,0.0316245339281857,0.07967647104412316
1772525742369129200,6.175129150390625,0.03285831350684166,0.012129413732886314,0.0940250221312046
1772525742379113200,6.18511328125,0.04747194527089595,-0.006713526163995265,0.0704381025776267
1772525742389097200,6.19509716796875,0.022036475241184232,-0.022432634951919318,0.05716302594095468
1772525742399080000,6.205079833984375,-0.01269815353155136,-0.008785656262934207,0.0639680297806859
1772525742409064000,6.21506396484375,-0.024819968479871748,0.011654489697515964,0.07196019757837056
1772525742419048200,6.225048095703125,-0.055748190706968306,0.02826806310713291,0.059870239073038095
1772525742429031200,6.23503125,-0.08357318622171879,0.050258361119031904,0.06356617098152637
1772525742439015200,6.24501513671875,-0.10969430042803287,0.055863779910653825,0.0910451295375824
1772525742448999200,6.254999267578125,-0.1143552779763937,0.07297054366469383,0.08174684757739305
1772525742458982100,6.264982177734375,-0.0831459007203579,0.10409516524672507,0.056421852184832096
1772525742468966000,6.2749658203125,-0.025135610300302504,0.08396379297450185,0.0480123357579112
1772525742478950100,6.2849501953125,0.022111878564953804,0.050966217127442356,0.059824646365642546
1772525742488933000,6.29493310546875,0.046181320938467975,0.025060937628895042,0.06644961746335029
1772525742498917000,6.304917236328125,0.040328503257036206,0.009992109443247318,0.06067132632285356
1772525742508901000,6.314901123046875,0.03474281207919121,0.0415976464100182,0.05161006798893213
1772525742518885000,6.324885009765625,0.05232230791151523,0.0486529717490077,0.010447159734368324
1772525742528868000,6.3348681640625,0.08090835092663765,0.030691929253190753,-0.008899053509533406
1772525742538852000,6.34485205078125,0.11917056930363178,0.0041461598940193654,0.015730360834300516
1772525742548836400,6.35483642578125,0.1525438465952873,-0.03401113680377602,0.014029402135312556
1772525742558819000,6.364819091796875,0.18004560150504112,-0.0441075834043324,0.019675591328740118
1772525742568803000,6.374802978515625,0.18450024282634256,-0.036418782467395064,-0.017106909884512425
1772525742578787000,6.384787109375,0.16812310852110385,-0.037459085300564764,-0.029845103165507314
1772525742588770000,6.39477001953125,0.16144202332198618,-0.0365500076316297,-0.024862054055929183
1772525742598754000,6.404754150390625,0.13886954150795935,-0.03143982501104474,-0.010891980892419814
1772525742608738300,6.41473828125,0.11413315965831279,-0.014369447744637727,-0.033925650477409364
1772525742618721000,6.424720947265625,0.08143383610546588,-0.01924932874068618,-0.0764382197752595
1772525742628705000,6.434705078125,0.009696633628010749,-0.02810746571794152,-0.09355097487866879
1772525742638689000,6.44468896484375,-0.037404140242934224,-0.03112652127817273,-0.08500760293900966
1772525742648672000,6.454672119140625,-0.0484457587391138,-0.009865268193185329,-0.07528846521824598
1772525742658656000,6.464656005859375,-0.01481529181599617,0.012152356217056513,-0.07659837877303362
1772525742668640300,6.47464013671875,0.03165244484841823,0.02029343096613884,-0.04733107549548149
1772525742678623200,6.484623291015625,0.02782674908041954,-0.0000935235023498535,0.003487549854815006
1772525742688607200,6.494607177734375,0.02210895595550537,-0.019710078120231626,0.007181143675744533
1772525742698591200,6.50459130859375,0.024441198295354842,-0.029348697950690984,-0.02299246079176664
1772525742708574000,6.514573974609375,0.03949146791100502,-0.03862213773056865,-0.05945990470647811
1772525742718558000,6.524557861328125,0.03977496102750301,-0.08223682305142282,-0.04995031808316707
1772525742728542200,6.534542236328125,-0.004375730866193771,-0.11809724098369478,-0.05232873765230178
1772525742738525200,6.544525146484375,-0.04914484691917896,-0.12575637743473053,-0.0641658904403448
1772525742748509200,6.55450927734375,-0.0850935276567936,-0.13057605267614125,-0.03551145836412906
1772525742758493200,6.5644931640625,-0.09657412209212779,-0.08507949913144111,-0.018121932145953177
1772525742768476000,6.574475830078125,-0.03815174373984337,-0.020498305888473987,0.020950141309201715
1772525742778460000,6.5844599609375,0.012979893082380295,0.014099690892547367,0.06391483828872442
1772525742788444200,6.594444091796875,0.05477846889197826,0.019893033471703528,0.06810586023777723
1772525742798427100,6.60442724609375,0.0751595781415701,0.008764321213960646,0.07733195374459027
1772525742808411100,6.6144111328125,0.06416472139656543,-0.00966024714037776,0.07718377744555473
1772525742818395100,6.62439501953125,0.019905308431386947,-0.011504559832811356,0.016974807937443256
1772525742828378000,6.634378173828125,0.01314823538661003,-0.006008008243143558,-0.028290859460830688
1772525742838362000,6.644362060546875,0.027456162202358244,0.024814415521919726,-0.009882803849875926
1772525742848346000,6.65434619140625,0.05555003778636455,0.06339432154595852,0.039675884567201135
1772525742858329000,6.6643291015625,0.0734469290047884,0.08224705218449234,0.04978343708366156
1772525742868313000,6.67431298828125,0.10421031605899334,0.09824512404426931,0.06421703610569238
1772525742878297000,6.684297119140625,0.12975976785719395,0.10109203790798783,0.10185118571221828
1772525742888280000,6.694280029296875,0.112681791806221,0.08480258188620209,0.10098755462020635
1772525742898264000,6.70426416015625,0.07936638218164443,0.09357230992764234,0.08623392986357212
1772525742908248000,6.714248046875,0.03154313925504684,0.11219020889699459,0.09557195931226015
1772525742918232300,6.724232421875,0.0048655602097511285,0.11071648308262229,0.09588847791552543
1772525742928215000,6.734215087890625,0.02718494404554367,0.10380202751904725,0.07029401793181896
1772525742938199000,6.744198974609375,0.04432780202627182,0.07951777335107325,0.052091714026033874
1772525742948183000,6.75418310546875,0.04587678503394126,0.04781096796691418,0.06086597211211919
1772525742958166000,6.764166015625,0.04272212039530277,0.03631093817874789,0.06789806270599365
1772525742968150000,6.77414990234375,0.0644277562469244,0.028220716834068297,0.08521656951457261
1772525742978134300,6.78413427734375,0.08529109605550765,0.029800679501891133,0.08655161751061677
1772525742988117200,6.7941171875,0.06716156512498855,0.00232055190205574,0.09060264646708965
1772525742998101200,6.804101318359375,0.0376449632614851,-0.01618614177778363,0.059491761149466034
1772525743008085000,6.8140849609375,0.0294797769844532,-0.012054302670061587,-0.007554360902309418
1772525743018068000,6.82406787109375,0.035817747834324835,-0.01787073386386037,-0.03417465680241585
1772525743028052000,6.834052001953125,0.04206570231318474,-0.04966229492202401,-0.04659457791447639
1772525743038036200,6.8440361328125,0.025243746849894524,-0.06291326003074646,-0.064303545345366
1772525743048019200,6.854019287109375,-0.035004093363881106,-0.07673033458963036,-0.08725655090957879
1772525743058003200,6.864003173828125,-0.09900105697810649,-0.08589563781991601,-0.1240691550001502
1772525743067987200,6.8739873046875,-0.14245675234496594,-0.0752494483821094,-0.13565145624428987
1772525743077970000,6.883969970703125,-0.10659341180324554,-0.06624488867148756,-0.10153145223855972
1772525743087954000,6.893953857421875,-0.03769406310021877,-0.05395195493996143,-0.04798018705397844
1772525743097938000,6.90393798828125,0.04090717992782592,-0.025054069496691225,-0.04684270745664835
1772525743107921000,6.9139208984375,0.12062310619950294,-0.03554156124144792,-0.05491144762188196
1772525743117905000,6.92390478515625,0.1625093602925539,-0.04084185960665345,-0.01915449006408453
1772525743127889000,6.933888916015625,0.14184008175134658,-0.052706923314929,-0.011901450195908546
1772525743137872000,6.943871826171875,0.04705751925110817,-0.07494798121750354,-0.011401391719281673
1772525743147856000,6.95385595703125,-0.0525198763102293,-0.04403028038442135,-0.05564414581060409
1772525743157840100,6.963840087890625,-0.10661387006938457,0.004112696015834808,-0.03637479719519615
1772525743167822800,6.97382275390625,-0.09630348845720291,0.024645342565327882,0.0030392215654253957
1772525743177806800,6.983806884765625,-0.041485856598615645,0.04530366132110357,-0.0019371055424213409
1772525743187790800,6.993790771484375,0.049234863290190695,0.049943303820490836,0.03312777809798717
1772525743197773800,7.00377392578125,0.09091185854673385,0.020104922656714916,0.10573621045202017
1772525743207757800,7.0137578125,0.05537994191646576,0.009041384589672088,0.12023323009908199
1772525743217742000,7.0237421875,-0.01930091279745102,0.02674289936646819,0.07762479921132326
1772525743227724800,7.033724853515625,-0.07972586314380169,0.05912102814093232,0.08655074072778224
1772525743237708800,7.043708740234375,-0.12092705758213997,0.0688435268625617,0.09185147748440503
1772525743247692800,7.05369287109375,-0.1208037234634161,0.0856478005386889,0.0793134829506278
1772525743257675800,7.06367578125,-0.043700610038638114,0.09180120860189199,0.11355886690169573
1772525743267659800,7.07365966796875,0.050368835756182666,0.07705722845643759,0.11784399687498807
1772525743277644000,7.08364404296875,0.12776187203824518,0.05146788303926587,0.08887509202212095
1772525743287628000,7.0936279296875,0.14411153381466865,0.028226562052965164,0.09140753310918807
1772525743297611000,7.103611083984375,0.1406277833521366,0.032040275122225285,0.10615794299542904
1772525743307595000,7.113594970703125,0.11515607296526431,0.0459418130941689,0.08654927942305803
1772525743317577700,7.12357763671875,0.09379238241910934,0.05520005530491471,0.06972703169882297
1772525743327561700,7.133561767578125,0.0922995135128498,0.05796309027746319,0.038755554851889605
1772525743337546000,7.1435458984375,0.10274608872532844,0.02495046299174428,0.02787292630970478
1772525743347530000,7.153530029296875,0.14038169963657854,0.013375906662642954,-0.0001502221256494522
1772525743357513000,7.163512939453125,0.16793956864774226,0.005855009638518095,-0.05208586880713701
1772525743367497000,7.1734970703125,0.18955285004079342,-0.03394976200535893,-0.07862930007874966
1772525743377481000,7.18348095703125,0.20196984854340552,-0.0589791354522109,-0.12088935592025518
1772525743387464000,7.1934638671875,0.22297347360551356,-0.06962415584623813,-0.14382044191360474
1772525743397448000,7.203447998046875,0.23410101681947706,-0.08549509419500827,-0.17010902164131403
1772525743407432000,7.213431884765625,0.21392449023127555,-0.10296616121679544,-0.1608575014322996
1772525743417415000,7.223414794921875,0.15746961255967615,-0.10704042491838335,-0.14035831876099109
1772525743427399000,7.23339892578125,0.08283551959693432,-0.09253054578974843,-0.16365794580578802
1772525743437383000,7.2433828125,0.03982639895379543,-0.08659019595533608,-0.17774580013006924
1772525743447366000,7.253365966796875,0.045158992153406144,-0.10132014757543802,-0.0999988358438015
1772525743457350000,7.263349853515625,0.06838906109333039,-0.0733268097564578,-0.015635960549116135
1772525743467334000,7.273333984375,0.06530979977846145,-0.03318038506805897,-0.007139350360631943
1772525743477316900,7.28331689453125,0.021472996139526367,-0.03423953873217106,-0.07423223416358232
1772525743487300900,7.29330078125,-0.04413783241212368,-0.08868672984316944,-0.1527975290954113
1772525743497284900,7.303284912109375,-0.11121464186310767,-0.17154110027104616,-0.15283464623540638
1772525743507267800,7.313267822265625,-0.14657178644835947,-0.18629808602854608,-0.12451660650670528
1772525743517252000,7.323252197265625,-0.16140110678970812,-0.14886106642931698,-0.12407090856581926
1772525743527236000,7.333236083984375,-0.1830792701125145,-0.08684022519364952,-0.07281886023432016
1772525743537218800,7.34321875,-0.24082126498520373,-0.05430529842227697,0.06391892994195222
1772525743547202800,7.353202880859375,-0.2951630960255861,0.028151158729195592,0.175249014878273
1772525743557186800,7.363186767578125,-0.25793898852467534,0.10971008251905441,0.18995295527428388
1772525743567169800,7.373169677734375,-0.1993301476895809,0.14584858674034476,0.18826982449293136
1772525743577154000,7.383154052734375,-0.12257482478916644,0.14188187506645916,0.19658757098317145
1772525743587138000,7.393137939453125,-0.05970072772502899,0.09992050991058349,0.17726035470068455
1772525743597121000,7.40312109375,-0.015392214921116828,0.0697225016541779,0.1421595229640603
1772525743607105000,7.41310498046875,0.025744682109355925,0.059944327222555875,0.11733166343867778
1772525743617088800,7.4230888671875,0.06409867042303084,0.058481853454560036,0.11856500462591647
1772525743627071700,7.43307177734375,0.11127309405207633,0.09134148213565349,0.10059212556183338
1772525743637056000,7.443055908203125,0.16959084298610685,0.1267155778557062,0.09001578648984432
1772525743647040000,7.4530400390625,0.2092687733799219,0.1345971248857677,0.0821238641962409
1772525743657023000,7.46302294921875,0.23408114307522773,0.1125892912171781,0.05373480505794286
1772525743667007000,7.473007080078125,0.23422376641631126,0.07467632466927171,0.014771160413324833
1772525743676991000,7.482990966796875,0.24531097761988638,0.060916679386049506,0.013367138834297656
1772525743686973700,7.4929736328125,0.2354454171657562,0.06322583311125636,0.03502893554419279
1772525743696958000,7.5029580078125,0.21638474286496637,0.08163754198402166,0.011634323692321777
1772525743706942000,7.51294189453125,0.18534663052260875,0.06304916137009858,-0.02292582529634237
1772525743716925000,7.522925048828125,0.18610884706676006,0.02951981673389673,-0.022421675166487694
1772525743726909000,7.532908935546875,0.1736708057761192,-0.00895633665472269,-0.014941840805113314
1772525743736893000,7.542892822265625,0.1813397329688072,-0.019842033936828374,-0.027344226260483263
1772525743746877000,7.552876953125,0.20625673208236694,-0.008289835570007563,-0.04699819027930498
1772525743756860000,7.56285986328125,0.1843944443643093,-0.009831950445473194,-0.03259440187364816
1772525743766844000,7.572843994140625,0.1067524017572403,-0.02204217432960868,0.01988864955753088
1772525743776828000,7.582827880859375,0.008373860591650009,0.007806582097709179,0.024924597898125646
1772525743786811000,7.592810791015625,-0.06101122580170631,0.0135449796192348,0.008673720321059227
1772525743796795000,7.602794921875,-0.13051730822622776,0.018664806850999593,0.021065292121469972
1772525743806779000,7.61277880859375,-0.16778174773752688,0.010196545974165201,0.043882980868220324
1772525743816761900,7.622761962890625,-0.1812970628708601,0.0017345687076449393,0.025232640933990476
1772525743826746000,7.63274609375,-0.14608604875802994,0.0066049512229859825,0.04009264867454767
1772525743836730000,7.642730224609375,-0.10523907458484172,-0.006941635831445455,0.05782704280763864
1772525743846712800,7.652712890625,-0.0593909311234951,-0.013880495183914899,0.062463762697577474
1772525743856696800,7.66269677734375,-0.019326631760597228,-0.009007482320070266,0.05310469046086073
1772525743866680800,7.672680908203125,0.005261866050958633,-0.017310615763068197,0.04683686223775148
1772525743876663800,7.682663818359375,0.018678981506824493,-0.03266425223946571,0.010871230365335941
1772525743886648000,7.69264794921875,-0.01914016927778721,-0.06832768629491329,-0.054255029539763924
1772525743896632000,7.702632080078125,-0.03876782981157303,-0.09182254365086555,-0.0981248586654663
1772525743906615000,7.712614990234375,-0.04171089752614498,-0.11385346593409776,-0.14675649536550045
1772525743916598800,7.722598876953125,-0.019947978529334068,-0.11329159426763653,-0.16331658502221105
1772525743926582800,7.732582763671875,0.0032148703932762144,-0.13476809753850102,-0.1306844814866781
1772525743936565800,7.742565673828125,-0.000014028525352478027,-0.13082213639169932,-0.0989510803565383
1772525743946550000,7.752550048828125,0.02971767739355564,-0.08478665366470814,-0.06154401750415563
1772525743956534000,7.762533935546875,0.05357902997434139,-0.022402970466017722,-0.02156038216203451
1772525743966517000,7.77251708984375,0.09554302547872066,0.01255786827802658,0.02449263622164726
1772525743976501000,7.7825009765625,0.13670096529722212,0.045006578070670364,0.022689093931019304
1772525743986485000,7.792485107421875,0.14968670359849928,0.037571313503384586,-0.021981530183553696
1772525743996467700,7.8024677734375,0.10709726967215537,-0.019828589933365583,-0.10542495254576205
1772525744006452000,7.812451904296875,0.10665654016733168,-0.07045958375707269,-0.1608560401275754
1772525744016436000,7.82243603515625,0.11209902348220348,-0.09348550842702388,-0.11078384923040867
1772525744026419000,7.8324189453125,0.12933365139961242,-0.06787891961410641,-0.0985237948551774
1772525744036403000,7.84240283203125,0.1682996341317892,-0.0007088789217174052,-0.1417848444327712
1772525744046387000,7.852386962890625,0.21138883427381513,0.020230740993469953,-0.08584668411165475
1772525744056370000,7.862369873046875,0.2451315293997526,0.016897504917532204,0.02473229019641876
1772525744066354000,7.87235400390625,0.2530009476006031,0.041773295237869025,0.07234978141784668
1772525744076338000,7.882337890625,0.23296119913458824,0.06870601808801292,0.10459434694051742
1772525744086321000,7.89232080078125,0.1876788728624582,0.11153759020715952,0.1512380246937275
1772525744096304600,7.9023046875,0.02166705740690231,0.06841726427450776,0.14621318226903676
1772525744106288600,7.91228857421875,-0.18715806385874748,0.024820699132233857,0.05789601639062166
1772525744116271600,7.922271728515625,-0.3102788320928812,0.01676291875243187,-0.08925941516458988
1772525744126255900,7.932255859375,-0.3250789263397455,0.011123013169318437,-0.07383797414898872
1772525744136239900,7.942239990234375,-0.23859014493227004,-0.01758957883492112,0.027602000413835048
1772525744146223900,7.952223876953125,-0.11866261978149413,0.0031445816360414027,0.07321019763946533
1772525744156206800,7.962206787109375,-0.004376899909973145,0.04364055041447282,0.1381359665364027
1772525744166190600,7.972190673828125,0.0727367349088192,0.05473258392363786,0.24603373893648384
1772525744176174600,7.982174560546875,0.10270926384627818,0.07564063965678215,0.2730529710263014
1772525744186157800,7.99215771484375,0.052150458475947375,0.07788067366853356,0.2039186445236206
1772525744196141800,8.002141845703125,0.004752162963151931,0.04966638657525181,0.0706777565523982
1772525744206124800,8.012124755859375,0.003763736447691917,0.048154082316160196,0.06641776102036237
1772525744216107800,8.022107666015625,-0.022159224838018417,0.009497311663627625,-0.019826397976279258
1772525744226091800,8.032091796875,-0.034237785166502,-0.048575084207206964,-0.03935059813559055
1772525744236075500,8.042075439453125,-0.009673252752423285,-0.07152253681346774,-0.05532967303395271
1772525744246058800,8.052058837890625,0.03276011382937431,-0.031135873628407716,-0.06223521463871002
1772525744256042800,8.062042724609375,0.06508300528526306,-0.015490122337639332,-0.005308920063078404
1772525744266026800,8.07202685546875,0.06250584827363491,-0.003853460557758808,0.04943535429835319
1772525744276009700,8.082009765625,0.056743631485104556,0.03436448028609156,0.02705634922981262
1772525744285993700,8.09199365234375,0.045430210310220716,0.04680690549090504,-0.018171324245631695
1772525744295977700,8.101977783203125,0.04795300678610801,0.025988866128772495,-0.026547230663895607
1772525744305960700,8.111960693359375,0.0712462040901184,0.0009567162029445171,-0.013409516671299934
1772525744315944700,8.12194482421875,0.11522153941690921,0.02374678629040718,-0.019409049347043038
1772525744325928700,8.1319287109375,0.12969722401499748,0.025196108315885066,-0.03555003680884838
1772525744335911700,8.14191162109375,0.12846329830586908,0.0069705696649849415,-0.07222060208022595
1772525744345895700,8.151895751953125,0.14583821147680281,-0.007082651737332343,-0.06207125624865293
1772525744355879700,8.161879638671875,0.15111176796555517,-0.02980564793795347,-0.03291238178163767
1772525744365863000,8.17186279296875,0.13313655081391335,-0.03728782038688659,-0.020407704995572564
1772525744375846700,8.1818466796875,0.09307809666991233,-0.02804433735385537,0.01244680911898613
1772525744385830700,8.19183056640625,0.03928279359638691,-0.00532908606827259,0.0408233010366559
1772525744395813600,8.201813720703125,-0.04056231201291084,0.007547785031050443,-0.00317541516572237
1772525744405797600,8.211797607421875,-0.09013327538967132,-0.0015291092634201048,-0.06551145983040332
1772525744415781600,8.22178173828125,-0.08857727811932563,0.0018378829516470432,-0.03982230730056763
1772525744425764900,8.231764892578125,-0.05992459960877895,0.0010017243884503841,-0.022127368395030496
1772525744435748900,8.241748779296875,0.0040402153015136714,0.0036713819891214367,0.00044978959411382674
1772525744445732900,8.25173291015625,0.06616553982496261,0.018875673122704027,0.0592775338768959
1772525744455715600,8.261715576171875,0.07690320693850516,0.03560878125876188,0.10767097790688275
1772525744465699600,8.271699462890625,0.08943126460015774,0.05561433519423008,0.10750058977603912
1772525744475683600,8.28168359375,0.07552724241018295,0.059522740809619425,0.08975713555365801
1772525744485666800,8.291666748046875,0.06004559563994407,0.04813172435387969,0.0818362794265151
1772525744495650800,8.30165087890625,0.04514087197482586,0.03819543675109744,0.07058160270154476
1772525744505634800,8.311634765625,0.060085927650332445,0.04243526627793908,0.02267448088377714
1772525744515617800,8.32161767578125,0.0785264242261648,0.04578019279167056,0.002718026787042618
1772525744525601500,8.3316015625,0.08219429908394812,0.013491203605383634,0.022658406531810758
1772525744535585500,8.34158544921875,0.09927636678814887,0.012515636571496725,0.015936697061359882
1772525744545569500,8.351569580078126,0.10106967994570731,0.017634294759482146,0.012996551956236361
1772525744555552800,8.361552734375,0.10842004270851612,0.023688480231910943,0.021568857729434964
1772525744565536800,8.371536865234376,0.12073474988043308,0.02802928591519594,0.02363660391420126
1772525744575520800,8.381520751953126,0.09760229609608649,0.008367430850863456,0.00395662867128849
1772525744585503700,8.391503662109375,0.09544190319180489,-0.003242196791619062,0.0012891630277037619
1772525744595487700,8.40148779296875,0.10731646538078785,-0.006826485019177198,0.007932546564936638
1772525744605471700,8.4114716796875,0.09410451710820197,-0.024863807621598243,0.02200783366858959
1772525744615454700,8.421454833984376,0.04571896412372589,-0.033397096558660265,0.044318157415091985
1772525744625438700,8.431438720703126,0.0018599486529827117,-0.026200755313783883,0.01714841093868017
1772525744635422700,8.441422607421876,-0.039892449927330015,-0.013675912522524595,-0.007417582780122756
1772525744645405700,8.45140576171875,-0.059088733306527134,-0.015434300497174262,-0.017981354631483554
1772525744655389700,8.4613896484375,-0.016133388677239416,-0.016766133622825145,-0.007639701098203658
1772525744665373700,8.471373779296876,0.010058452677726745,-0.02553103935867548,0.015106383717060088
1772525744675356700,8.481356689453126,0.02183189257979393,-0.029810762504488227,0.03854951088577509
1772525744685340700,8.491340576171876,-0.009050152418017387,-0.022428397168219087,0.016835399466753005
1772525744695324700,8.50132470703125,-0.05538929426670074,-0.005604980400204658,-0.023292028260231017
1772525744705307600,8.5113076171875,-0.06633797378242015,0.008160802362859248,-0.05493745884597301
1772525744715291600,8.521291748046876,-0.08770926311314106,-0.015142770204693078,-0.04598229123502969
1772525744725275600,8.531275634765626,-0.12115560564100741,-0.034169396105408666,-0.0873024358779192
1772525744735259000,8.5412587890625,-0.09862988557815551,-0.03355082581564784,-0.12511983309686184
1772525744745243000,8.551242919921876,-0.04133621899485588,-0.019083909045904873,-0.07258329791277647
1772525744755227000,8.561226806640626,0.04230360272228718,-0.016189356648176906,0.004384206433594226
1772525744765209600,8.571209716796876,0.12625731269419194,0.010534984148293732,0.04233136751204729
1772525744775193600,8.581193603515626,0.1668313151448965,0.024016397012025115,0.0553194439008832
1772525744785177600,8.591177490234376,0.17106734527945516,0.009323416401445865,0.06285773045122624
1772525744795160800,8.601160888671876,0.13946224670410157,-0.019808570058643817,0.025200199969112873
1772525744805144800,8.611144775390626,0.0983732804685831,-0.04769347906708717,-0.06604220570623874
1772525744815128800,8.62112890625,0.08441957391798496,-0.09099047674089669,-0.11500497405678033
1772525744825111600,8.631111572265626,0.0799608409434557,-0.10837298869639635,-0.09295885420441627
1772525744835095600,8.641095458984376,0.08132745312154292,-0.10262319299802183,-0.06344780529886483
1772525744845079600,8.65107958984375,0.0925654709726572,-0.05386690700501203,0.0005821838021278381
1772525744855062800,8.661062744140626,0.08027823632955551,0.0058306058496236796,0.058226563519239424
1772525744865046800,8.671046875,0.03604395780563354,0.033056174166500564,0.1103898814767599
1772525744875030800,8.68103076171875,-0.017766542837023735,0.057765960270166394,0.12348434084951877
1772525744885013800,8.691013671875,-0.0523018496453762,0.07400909293219447,0.07315379127711057
1772525744894997800,8.700997802734374,-0.12831307618021964,0.049713586717844004,0.00758212569206953
1772525744904981800,8.710981689453124,-0.14113514835238455,0.017385580695420504,-0.02391191372424364
1772525744914964700,8.72096484375,-0.1139455281317234,0.0009561316810548305,-0.06565057604014873
1772525744924948700,8.73094873046875,-0.05553951639235019,-0.0015890227571129798,-0.05483721334189176
1772525744934932700,8.7409326171875,-0.027774726632237432,-0.024172464356571433,-0.02598930452018976
1772525744944915700,8.750915771484374,-0.0030021044254302976,-0.006481909365206957,0.008265431781113147
1772525744954899700,8.760899658203124,-0.0038911622196435925,0.02621288414299488,0.036894729416072365
1772525744964883700,8.7708837890625,0.015478139638900755,0.08233399981558323,0.0813286221653223
1772525744974866700,8.78086669921875,0.06965805811583996,0.09338526292294264,0.08775894747376442
1772525744984850700,8.7908505859375,0.10794248832464218,0.09162073746845126,0.05739888052344322
1772525744994834700,8.800834716796874,0.1481657776415348,0.06253375919386744,0.014630582898855209
1772525745004818700,8.810818603515624,0.16652502567470073,0.009378945980966091,0.019890110862255096
1772525745014801700,8.8208017578125,0.18089023563563822,-0.004947685535252094,0.007483341492712498
1772525745024785700,8.83078564453125,0.17420155165195464,-0.011394669717550278,-0.00004179331511259079
1772525745034769700,8.840769775390624,0.14650748904049396,-0.022490941010415554,0.019658347932994365
1772525745044753000,8.8507529296875,0.10470131444633006,-0.02643237211257219,0.04756546877324581
1772525745054737000,8.86073681640625,0.06803250274062156,-0.0044011575683951375,0.04425269096344709
1772525745064720600,8.870720703125,0.06514613364934921,0.02941504118517041,0.026325404606759546
1772525745074703600,8.88070361328125,0.08106324922740459,0.05048603239506483,0.022775310909748075
1772525745084687600,8.8906875,0.08943068007826804,0.05238572853654623,-0.0006970423534512519
1772525745094672100,8.900672119140625,0.1005477018982172,0.016975100198388098,-0.005631576146185398
1772525745104655400,8.9106552734375,0.08692191212773323,0.0011519465140998363,0.04093114532530308
1772525745114639400,8.920639404296875,0.07172668108344078,0.02558642280772328,0.03501052310466766
1772525745124623400,8.930623291015625,0.03763268830180168,0.05495514063313603,0.04669073176532983
1772525745134606300,8.9406064453125,0.032092589831352235,0.06537643527388572,0.06271452258825302
1772525745144590000,8.950590087890625,0.05150865344107151,0.06022372868582606,0.040888767488300795
1772525745154574000,8.960573974609375,0.06864800429046154,0.04004910179376602,0.02250292370915413
1772525745164557300,8.970557373046875,0.08084639160633086,-0.001031096613407135,0.0021577625557780266
1772525745174541300,8.980541259765625,0.0519230794608593,-0.03841857798248529,-0.02441869420260191
1772525745184525300,8.990525390625,-0.024528292056918144,-0.048691842454671855,-0.030066929222643375
1772525745194508300,9.00050830078125,-0.1297404786348343,-0.020494798757135866,-0.013306640818715096
1772525745204492300,9.0104921875,-0.21089257518947124,0.014218787227571009,-0.006360474942624568
1772525745214476300,9.020476318359375,-0.24544366408884524,0.046325697845220566,0.02586860074996948
1772525745224459300,9.030459228515625,-0.19980302589833734,0.05340367340743542,0.04125087879896164
1772525745234443300,9.040443359375,-0.10697627364099026,0.04922697224467992,0.05886895307600498
1772525745244427300,9.05042724609375,0.014378069442510605,0.017056494871526957,0.10196867461204528
1772525745254410200,9.06041015625,0.06117839906215668,-0.025475948170572516,0.1339119191005826
1772525745264394200,9.070394287109375,0.012061024671792984,-0.05639657161310315,0.06486293279379605
1772525745274378200,9.080378173828125,-0.03748305069804191,-0.03494929443672299,0.022206278850138185
1772525745284361200,9.090361328125,-0.0684404990196228,-0.006124181968718767,0.019448796835541723
1772525745294345200,9.10034521484375,-0.04633388115167617,0.005278817185759544,-0.003975625632703304
1772525745304329200,9.1103291015625,0.010060790765285491,0.032623043446242804,-0.012691723790764808
1772525745314312200,9.120312255859375,0.08175064696967602,0.026927169892191884,0.025441899770498273
1772525745324296200,9.130296142578125,0.12357143461108207,0.0005265080921351909,0.03314794410318136
1772525745334280200,9.1402802734375,0.17005495336651802,-0.005669131677597761,0.013613514810800552
1772525745344263400,9.150263427734375,0.19264847796857357,0.009470715917646885,-0.003593640577793121
1772525745354247400,9.160247314453125,0.2147153483480215,0.03405585272833705,-0.01944032126814127
1772525745364231400,9.1702314453125,0.23380992491841315,0.028935879366099832,-0.05589724378883838
1772525745374214100,9.180214111328125,0.2489046181976795,0.027638094640523192,-0.04764963992536068
1772525745384198100,9.1901982421875,0.2448661564618349,0.025720570581406352,-0.05081570274084806
1772525745394182100,9.20018212890625,0.2186059260457754,-0.014873451744019984,-0.09491904836148023
1772525745404165400,9.210165283203125,0.19576924033761023,-0.029450843150913713,-0.14836013116985558
1772525745414149400,9.2201494140625,0.1798328355371952,-0.07467077171131968,-0.13472761939764022
1772525745424133400,9.23013330078125,0.12129822898209094,-0.1324133511058986,-0.08480418932139873
1772525745434116000,9.2401162109375,0.103026659232378,-0.12052739074006676,-0.12965776878744362
1772525745444100000,9.25010009765625,0.1421522164404392,-0.082836104118824,-0.15669833592623472
1772525745454084000,9.260083984375,0.1534808351844549,-0.08590995860621332,-0.11053308933973312
1772525745464067300,9.2700673828125,0.15373217959702015,-0.0682872081540525,-0.08136281669586896
1772525745474051300,9.28005126953125,0.11796820777654647,-0.06634016573950648,-0.04130845420509577
1772525745484035300,9.290035400390625,0.06782265938222408,-0.05539411657229065,-0.007456745746731758
1772525745494018300,9.300018310546875,-0.020326164191961288,-0.03762129012495279,0.01210690964013338
1772525745504002300,9.310002197265625,-0.10579261681437492,-0.042682811298221345,0.010827975745499133
1772525745513986300,9.319986328125,-0.13438567409217356,0.008862082500010728,0.022837562490999698
1772525745523969300,9.32996923828125,-0.1537859556108713,0.01669993651881814,0.02643675602674484
1772525745533953300,9.339953369140625,-0.10086743537187576,0.033237522082775826,0.050994858700037
1772525745543937300,9.349937255859375,-0.03150456081032753,0.07104352112486959,0.11521627871990203
1772525745553921300,9.35992138671875,0.01589315018057823,0.07163608019053935,0.1577446301087737
1772525745563904300,9.369904296875,0.041372459352016444,0.09710866736024618,0.13609773870706557
1772525745573888300,9.37988818359375,0.03127425918579101,0.10189283289685845,0.14816957703381775
1772525745583872300,9.389872314453125,0.002732639834284782,0.10605886653512715,0.16313479871451853
1772525745593855200,9.399855224609375,-0.04603928211927414,0.08912351382523774,0.12679770318120717
1772525745603839200,9.409839111328125,-0.1213309622079134,0.06872633022367954,0.0912801073372364
1772525745613823200,9.4198232421875,-0.1393430042386055,0.06833893834128975,0.10391688607037067
1772525745623806200,9.42980615234375,-0.13717150541841983,0.05444470689296722,0.1098173422858119
1772525745633790200,9.439790283203125,-0.08874562042355537,0.05192074137330055,0.08284779455661773
1772525745643774200,9.449774169921875,-0.020697920113801956,0.05734451998770237,0.05473053809702396
1772525745653757400,9.45975732421875,0.04843348377943039,0.04038607866317034,0.05842500870078802
1772525745663741400,9.469741455078125,0.10024901121258735,0.012917933762073517,0.07189502338767051
1772525745673725200,9.47972509765625,0.12043079849779605,-0.0008308978661894798,0.05010258603543043
1772525745683708200,9.489708251953125,0.13265665834248064,-0.007813011838495731,0.01758767913877964
1772525745693692200,9.499692138671875,0.15146540370881556,0.0052558747015893454,0.005555296039581299
1772525745703676200,9.50967626953125,0.15901216582655905,0.005151683674752712,-0.00784574506431818
1772525745713659400,9.519659423828125,0.17677169440090656,-0.023155980790406466,-0.053018181221187115
1772525745723643400,9.529643310546875,0.13553718221485614,-0.10327025872990489,-0.12512334022819996
1772525745733627400,9.53962744140625,0.07460194425880909,-0.17986892976388333,-0.19558190107196569
1772525745743610000,9.549610107421875,0.08681728270947933,-0.16091858396977185,-0.16193799014538526
1772525745753594000,9.559593994140625,0.07059446218311786,-0.07925546915307641,-0.07321428929269314
1772525745763578000,9.569578125,0.032470775493979455,-0.029857231994718313,-0.07583820805549621
1772525745773561300,9.579561279296875,-0.02061842513680458,0.04030044620633125,-0.059306467710435386
1772525745783545300,9.58954541015625,-0.04031330568790435,0.0688496643424034,-0.016600129406154154
1772525745793529300,9.599529296875,0.0025070143848657605,0.04859188921153545,0.03342734556645155
1772525745803512300,9.60951220703125,0.036519758623838425,0.03053001668974757,0.06457447124123573
1772525745813496300,9.619496337890626,0.0378887088894844,0.008109218306094408,0.05707417861372232
1772525745823480000,9.62947998046875,-0.012684125006198883,0.02534121587499976,0.05345628037750721
1772525745833463300,9.63946337890625,-0.08203238652050494,0.05142360550612211,0.058255205091834066
1772525745843447300,9.649447265625,-0.13181202421188354,0.05629676450043916,0.06859276697188615
1772525745853431300,9.659431396484376,-0.16480243966579436,0.07489289002940058,0.08851678010374307
1772525745863414300,9.669414306640626,-0.13800970980823038,0.09051803692355752,0.10344634594917297
1772525745873398300,9.679398193359376,-0.06467676257193088,0.11479995300397276,0.1458177532106638
1772525745883382300,9.68938232421875,0.0022819734573364257,0.08853343897759913,0.18102876732349393
1772525745893365200,9.699365234375,-0.01168342353105545,0.04816241175308823,0.17121844418793916
1772525745903349200,9.709349365234376,-0.07880231855809688,0.03547463348507881,0.15932926895171404
1772525745913333200,9.719333251953126,-0.11286007098257542,0.04963935243785381,0.10484656813591718
1772525745923316200,9.729316162109376,-0.11165303328037261,0.05151420639902353,0.030442776797711846
1772525745933300200,9.73930029296875,-0.04977788412570953,0.0644176732443273,-0.019826982498168944
1772525745943284200,9.7492841796875,-0.0006552490383386611,0.023788141214102505,-0.03273030321300029
1772525745953267500,9.759267333984376,0.02852642178237438,-0.01743058888092637,-0.016249708533287048
1772525745963251500,9.76925146484375,0.05089841258823871,0.010333470226824282,-0.02633972539305687
1772525745973235200,9.779235107421876,0.054420741495490074,0.03184694450721144,-0.030282910060882566
1772525745983218200,9.78921826171875,0.020985504883527753,0.042337358861416576,-0.03045738984495401
1772525745993202200,9.7992021484375,0.03574234451055527,0.07147533667087555,-0.026515374220907686
1772525746003186200,9.809186279296876,0.07901216191649436,0.0633706484094262,-0.03092763770520687
1772525746013169400,9.81916943359375,0.11490765116214752,0.0021668226450681687,-0.07172668108344078
1772525746023153400,9.8291533203125,0.1624228510528803,-0.060372781767696136,-0.07549012527018785
1772525746033137400,9.839137451171876,0.18579554333388804,-0.06755261026918888,-0.1068739823102951
1772525746043120000,9.8491201171875,0.20263854158520697,-0.06977671605944633,-0.07515168709605932
1772525746053104000,9.859104248046876,0.16917758601009844,-0.08289850183054805,-0.032732056778669354
1772525746063088000,9.869088134765626,0.1140542492032051,-0.07530366278737782,-0.04975859490334987
1772525746073071400,9.8790712890625,0.10812895080745219,-0.025121435644477604,-0.04863631287515163
1772525746083055400,9.889055419921876,0.10759119066894053,-0.019143530278652905,-0.0436249144539237
1772525746093039400,9.899039306640624,0.1079062479674816,-0.06437398023307322,-0.0505918308570981
1772525746103022000,9.90902197265625,0.07102057864069938,-0.07957154936492443,-0.04398644124269485
1772525746113005800,9.919005859375,0.0038122517645359038,-0.08137669909074902,-0.015469956332445144
1772525746122989800,9.92898974609375,-0.028841479080915448,-0.06423384111002087,-0.04887684363275766
1772525746132973000,9.93897314453125,0.006641922232508659,-0.05604863495826721,-0.10464666164964437
1772525746142957000,9.94895703125,0.038899931758642196,-0.08520283325016498,-0.13574468748569488
1772525746152941000,9.958941162109374,0.054252399191260334,-0.10629764372706413,-0.17097411403805016
1772525746162924000,9.968924072265626,0.0925391674876213,-0.12741042825207113,-0.16345745479762552
1772525746172908000,9.978907958984376,0.13840718469321728,-0.1240698856525123,-0.15236761324554682
1772525746182892000,9.98889208984375,0.17845628648698328,-0.09244272137582302,-0.12626081982553006
1772525746192876000,9.9988759765625,0.15679039812386034,-0.07325345225930213,-0.06532675091326236
1772525746202859000,10.00885888671875,0.09765490306615829,-0.026826047605276106,0.017964695757627488
1772525746212843000,10.018843017578124,0.01866904463469982,0.01826484774798155,0.019217910689115523
1772525746222827000,10.028826904296874,-0.04910802204012871,0.012416706241667269,-0.045992812629044054
1772525746232810000,10.03881005859375,-0.06290507672429084,0.010837620356678962,-0.06196545778661966
1772525746242794000,10.0487939453125,-0.01326630880832672,0.012830255478620529,-0.06546645164489746
1772525746252778000,10.058778076171874,0.0058031333208084105,0.008426175300776958,0.0015618424892425537
1772525746262761000,10.068760986328124,-0.003478489765524864,0.028306787682324645,0.06571224309951067
1772525746272745000,10.078744873046874,-0.03332826910614967,0.06035320028439164,0.08848580044358968
1772525746282729000,10.08872900390625,-0.08783610436320305,0.09053440353646874,0.03596913900375366
1772525746292712000,10.0987119140625,-0.16892916420698165,0.11550313283726572,-0.03880085529834032
1772525746302696000,10.108696044921874,-0.2323398523658514,0.02732362186387181,-0.020823592320084572
1772525746312680000,10.118679931640624,-0.2697007379889488,-0.1017284361153841,0.06996405532509088
1772525746322663200,10.1286630859375,-0.22706045065820216,-0.0940115781277418,0.08422872752100229
1772525746332647200,10.138647216796874,-0.12414426606297492,-0.061743193338066334,0.2380971007183194
1772525746342631200,10.148631103515624,-0.05302899487614631,-0.04132262886092067,0.30569121204167604
1772525746352614000,10.15861376953125,-0.020640052446722984,0.014407880058884619,0.15019786799103022
1772525746362598000,10.168597900390624,-0.012712766578793526,-0.02030702110007405,-0.03042348757535219
1772525746372582000,10.178581787109374,0.0040296939074993135,-0.16508008756339548,-0.13564122711122034
1772525746382565000,10.188565185546874,-0.11900748769640922,-0.3488267355434596,-0.16600538571476936
