time,seconds_elapsed,z,y,x
1772525736339000600,0.14500048828125,0.1220768541097641,-0.31647276878356934,0.5673099756240845
1772525736348984800,0.15498486328125,0.11553133279085159,-0.2932511270046234,0.4734763205051422
1772525736358967600,0.164967529296875,0.10473807901144028,-0.24092373251914978,0.3746804893016815
1772525736368951600,0.17495166015625,0.0831182673573494,-0.16106469929218292,0.29596975445747375
1772525736378935600,0.184935546875,0.0551723912358284,-0.07944013923406601,0.2308139204978943
1772525736388918500,0.19491845703125,0.024909209460020065,-0.00498823169618845,0.17794901132583618
1772525736398902500,0.204902587890625,-0.005672401282936335,0.04191509634256363,0.1235390305519104
1772525736408886800,0.21488671875,-0.03155931085348129,0.0651407465338707,0.08240928500890732
1772525736418869800,0.224869873046875,-0.06110335513949394,0.04758945107460022,0.0518665537238121
1772525736428853500,0.234853515625,-0.07820306718349457,0.005196535959839821,0.014439959079027176
1772525736438837500,0.24483740234375,-0.08018579334020615,-0.04069958254694939,-0.02608802542090416
1772525736448820500,0.254820556640625,-0.06612927466630936,-0.06530438363552094,-0.0631820484995842
1772525736458804500,0.264804443359375,-0.04741577059030533,-0.08524107187986374,-0.09970144182443619
1772525736468787700,0.27478759765625,-0.026573680341243744,-0.10127370804548264,-0.1303086131811142
1772525736478771700,0.284771728515625,-0.01325627788901329,-0.10058820992708206,-0.14322493970394135
1772525736488755700,0.294755615234375,-0.004928574897348881,-0.0863971933722496,-0.1344701200723648
1772525736498738400,0.304738525390625,-0.00570382084697485,-0.07444758713245392,-0.10679029673337936
1772525736508722400,0.314722412109375,-0.020993830636143684,-0.051204923540353775,-0.0560726635158062
1772525736518706700,0.324706787109375,-0.030460037291049957,-0.04336031526327133,-0.0044728536158800125
1772525736528689700,0.334689697265625,-0.04963719844818115,-0.07362159341573715,0.04936418682336807
1772525736538673700,0.344673583984375,-0.0621202327311039,-0.10184177756309509,0.09963134676218033
1772525736548657700,0.35465771484375,-0.06631463021039963,-0.10913604497909546,0.13921168446540833
1772525736558640600,0.364640625,-0.06169537454843521,-0.10387709736824036,0.16039447486400604
1772525736568624600,0.374624755859375,-0.05168437585234642,-0.09230515360832214,0.1600620597600937
1772525736578608600,0.384608642578125,-0.037641528993844986,-0.0795251727104187,0.14164550602436066
1772525736588591600,0.394591552734375,-0.02281748130917549,-0.0875638797879219,0.1064586490392685
1772525736598575600,0.40457568359375,-0.006173258647322655,-0.09621968865394592,0.06982500851154327
1772525736608558600,0.41455859375,0.005730897653847933,-0.08635970950126648,0.042872827500104904
1772525736618542600,0.42454248046875,0.007744780275970697,-0.06083757430315018,0.018687596544623375
1772525736628526600,0.434526611328125,-0.0014039771631360054,-0.036993492394685745,-0.01305435411632061
1772525736638509600,0.444509521484375,-0.014706999063491821,-0.023015357553958893,-0.042325157672166824
1772525736648493600,0.45449365234375,-0.02225378155708313,-0.010661562904715538,-0.06423091888427734
1772525736658477600,0.4644775390625,-0.03240574896335602,0.009393371641635895,-0.07772462069988251
1772525736668460500,0.47446044921875,-0.04408787935972214,0.009730080142617226,-0.07860087603330612
1772525736678444500,0.484444580078125,-0.05820849537849426,-0.002555613871663809,-0.07582426071166992
1772525736688428500,0.494428466796875,-0.06432364881038666,-0.02627415768802166,-0.06117748096585274
1772525736698411800,0.504411865234375,-0.05734749510884285,-0.035443153232336044,-0.0445265993475914
1772525736708395800,0.514395751953125,-0.04004129767417908,-0.03677036240696907,-0.025357721373438835
1772525736718379800,0.5243798828125,-0.02327829599380493,-0.04310895502567291,-0.011480255052447319
1772525736728362500,0.534362548828125,-0.010182114318013191,-0.04252513498067856,0.0028692176565527916
1772525736738346500,0.544346435546875,-0.009987437166273594,-0.023050235584378242,0.009334307163953781
1772525736748329700,0.554329833984375,-0.014441652223467827,-0.008883759379386902,0.00978638231754303
1772525736758313700,0.564313720703125,-0.018339987844228745,-0.006996909622102976,0.003920237999409437
1772525736768297700,0.574297607421875,-0.021011680364608765,-0.007086772006005049,0.006456134375184774
1772525736778280700,0.58428076171875,-0.023710792884230614,0.003273723879829049,0.024033529683947563
1772525736788264400,0.594264404296875,-0.02019195817410946,0.0036763937678188086,0.04463760554790497
1772525736798248400,0.60424853515625,-0.019368242472410202,-0.019240906462073326,0.06969822198152542
1772525736808231700,0.614231689453125,-0.02044869028031826,-0.03065694309771061,0.09381311386823654
1772525736818215700,0.624215576171875,-0.019757866859436035,-0.02777939662337303,0.10081616789102554
1772525736828199700,0.63419970703125,-0.013337070122361183,-0.026676040142774582,0.08934545516967773
1772525736838182700,0.6441826171875,0.00011455593630671501,-0.02930537983775139,0.07467275857925415
1772525736848166700,0.654166748046875,0.010562223382294178,-0.02662784606218338,0.058921441435813904
1772525736858150700,0.664150634765625,0.0161905474960804,-0.017025819048285484,0.05491524934768677
1772525736868133600,0.674133544921875,0.011739340610802174,0.018071778118610382,0.05778122693300247
1772525736878117600,0.68411767578125,0.009961416013538837,0.047445911914110184,0.05867445096373558
1772525736888101600,0.6941015625,0.008150470443069935,0.06073858588933945,0.050526607781648636
1772525736898084600,0.704084716796875,0.01079898327589035,0.049888867884874344,0.030533190816640854
1772525736908068600,0.714068603515625,0.015529286116361618,0.03015417419373989,-0.0017411489970982075
1772525736918051800,0.7240517578125,0.016550876200199127,-0.00288233975879848,-0.033545151352882385
1772525736928035800,0.734035888671875,0.017255812883377075,-0.03173249214887619,-0.06328070163726807
1772525736938019600,0.74401953125,0.018316015601158142,-0.04252522066235542,-0.07939016819000244
1772525736948002600,0.75400244140625,0.015929024666547775,-0.038251910358667374,-0.0802607536315918
1772525736957986600,0.763986572265625,0.012727106921374798,-0.017383914440870285,-0.05825585499405861
1772525736967970600,0.773970458984375,0.006681912112981081,0.007517516613006592,-0.023810861632227898
1772525736977953800,0.783953857421875,0.00273377588018775,0.017512626945972443,0.016867592930793762
1772525736987937800,0.793937744140625,-0.0011854167096316814,-0.00020873011089861393,0.051707036793231964
1772525736997921800,0.803921875,-0.005005721002817154,-0.028981255367398262,0.07112174481153488
1772525737007904500,0.813904541015625,-0.004380684811621904,-0.047732312232255936,0.07802088558673859
1772525737017888500,0.823888427734375,-0.0011444115079939365,-0.0486721396446228,0.07404398173093796
1772525737027872500,0.83387255859375,-0.0015287920832633972,-0.04555879533290863,0.058830127120018005
1772525737037855700,0.843855712890625,0.00469874357804656,-0.03362703323364258,0.03654585778713226
1772525737047839700,0.85383984375,0.009514625184237957,-0.017721449956297874,0.008218323811888695
1772525737057822700,0.86382275390625,0.020301226526498795,-0.003015475580468774,-0.018846848979592323
1772525737067806700,0.873806640625,0.02364935353398323,0.01118849404156208,-0.03729776293039322
1772525737077790500,0.88379052734375,0.021998994052410126,-0.00030597555451095104,-0.04868597164750099
1772525737087773400,0.8937734375,0.01191192027181387,-0.017765112221240997,-0.04487574100494385
1772525737097757700,0.9037578125,-0.000009454786777496338,-0.01687854528427124,-0.02587408758699894
1772525737107741700,0.91374169921875,-0.015687130391597748,-0.01585070788860321,-0.005459916777908802
1772525737117724700,0.923724609375,-0.028048990294337273,-0.016620362177491188,0.01926540397107601
1772525737127708700,0.933708740234375,-0.028010910376906395,-0.02275306172668934,0.041677288711071014
1772525737137692700,0.943692626953125,-0.024159180000424385,-0.022474227473139763,0.054311588406562805
1772525737147675400,0.95367529296875,-0.018769562244415283,-0.0320124626159668,0.05823285132646561
1772525737157659600,0.96365966796875,-0.01182936504483223,-0.03943096101284027,0.05476807802915573
1772525737167643600,0.9736435546875,-0.007218192331492901,-0.036386627703905106,0.05257377773523331
1772525737177626600,0.983626708984375,0.00042960746213793755,-0.027406712993979454,0.048895154148340225
1772525737187610600,0.993610595703125,0.002522505819797516,-0.027858927845954895,0.05396447330713272
1772525737197593600,1.003593505859375,-0.00009857770055532455,-0.028029104694724083,0.05252290517091751
1772525737207577600,1.01357763671875,-0.010245676152408123,-0.046347346156835556,0.04964301735162735
1772525737217561600,1.0235615234375,-0.018963266164064407,-0.06303231418132782,0.046908747404813766
1772525737227544600,1.033544677734375,-0.028348594903945923,-0.06284671276807785,0.04947683587670326
1772525737237528600,1.043528564453125,-0.03255479037761688,-0.04192039370536804,0.05507053807377815
1772525737247512600,1.0535126953125,-0.0304134339094162,-0.027678264304995537,0.06019940227270126
1772525737257495600,1.06349560546875,-0.02415873482823372,-0.03568772226572037,0.06765971332788467
1772525737267479600,1.0734794921875,-0.020538169890642166,-0.05029202997684479,0.07245512306690216
1772525737277463600,1.083463623046875,-0.017642781138420105,-0.0628696158528328,0.07265619188547134
1772525737287446500,1.093446533203125,-0.02303159423172474,-0.06389573216438293,0.06711362302303314
1772525737297430500,1.103430419921875,-0.02358286827802658,-0.05039430782198906,0.056701190769672394
1772525737307414500,1.11341455078125,-0.023206479847431183,-0.03039860725402832,0.047452859580516815
1772525737317397500,1.1233974609375,-0.02012600004673004,-0.013570092618465424,0.028321243822574615
1772525737327381500,1.133381591796875,-0.02551436796784401,-0.01934751309454441,0.015015649609267712
1772525737337364700,1.14336474609375,-0.027003075927495956,-0.029528247192502022,0.00025374768301844597
1772525737347348700,1.1533486328125,-0.026699380949139595,-0.03805754706263542,-0.001565469428896904
1772525737357332700,1.163332763671875,-0.02883923053741455,-0.04033055528998375,-0.0012978222221136093
1772525737367315500,1.1733154296875,-0.035374727100133896,-0.053845975548028946,0.007657050155103207
1772525737377299500,1.183299560546875,-0.0450286865234375,-0.051673900336027145,0.022240253165364265
1772525737387283500,1.193283447265625,-0.050025757402181625,-0.04129364341497421,0.0346088707447052
1772525737397266700,1.2032666015625,-0.05153496935963631,-0.03542936220765114,0.039327725768089294
1772525737407250700,1.213250732421875,-0.04704407975077629,-0.03174148127436638,0.032290972769260406
1772525737417234700,1.223234619140625,-0.03958136960864067,-0.02273094467818737,0.02160370722413063
1772525737427217700,1.2332177734375,-0.03332338109612465,-0.015390513464808464,0.005729621276259422
1772525737437201400,1.243201416015625,-0.03129644691944122,-0.024485742673277855,-0.006065253168344498
1772525737447185400,1.253185302734375,-0.034012436866760254,-0.04450974240899086,-0.011211230419576168
1772525737457168600,1.263168701171875,-0.042680758982896805,-0.0565594807267189,-0.01758391037583351
1772525737467152600,1.273152587890625,-0.04985779523849487,-0.0728050172328949,-0.021028656512498856
1772525737477135600,1.283135498046875,-0.06259436160326004,-0.08550776541233063,-0.024093156680464745
1772525737487119600,1.29311962890625,-0.07351624965667725,-0.09740805625915527,-0.02486112341284752
1772525737497103600,1.303103515625,-0.08022208511829376,-0.08105890452861786,-0.0303373783826828
1772525737507086600,1.313086669921875,-0.08650325238704681,-0.0716109499335289,-0.03203010559082031
1772525737517070600,1.323070556640625,-0.0820176899433136,-0.0573265478014946,-0.03128308802843094
1772525737527054600,1.3330546875,-0.068805031478405,-0.029046200215816498,-0.02299324795603752
1772525737537037600,1.34303759765625,-0.054707325994968414,-0.005006110295653343,-0.012822635471820831
1772525737547021600,1.353021484375,-0.03980188071727753,0.0022700778208673,-0.0024162600748240948
1772525737557005600,1.363005615234375,-0.029477335512638092,-0.022476280108094215,0.0034384331665933132
1772525737566988800,1.37298876953125,-0.01855447143316269,-0.05073127523064613,0.007336113136261702
1772525737576972800,1.382972900390625,-0.01085420697927475,-0.07729870826005936,0.014643561094999313
1772525737586956500,1.39295654296875,-0.010292807593941689,-0.10302996635437012,0.020975928753614426
1772525737596939500,1.402939453125,-0.009929019957780838,-0.11141013354063034,0.03044559620320797
1772525737606923500,1.412923583984375,-0.015263685956597328,-0.09408239275217056,0.048945534974336624
1772525737616906800,1.42290673828125,-0.022057676687836647,-0.06296229362487793,0.05139777436852455
1772525737626890800,1.432890869140625,-0.02011933922767639,-0.03722911328077316,0.05210881307721138
1772525737636874800,1.442874755859375,-0.012068603187799454,-0.017607474699616432,0.0503668412566185
1772525737646857500,1.452857421875,-0.00011580251157283783,-0.015442422591149807,0.04465017095208168
1772525737656841500,1.462841552734375,0.011839393526315689,-0.022557321935892105,0.04187116026878357
1772525737666825500,1.472825439453125,0.022772733122110367,-0.0305192768573761,0.045462097972631454
1772525737676808700,1.48280859375,0.025480635464191437,-0.04119030013680458,0.05353440344333649
1772525737686792700,1.492792724609375,0.025072194635868073,-0.043743714690208435,0.062037393450737
1772525737696776700,1.502776611328125,0.022307567298412323,-0.04155965521931648,0.06320279091596603
1772525737706759700,1.512759765625,0.014009688049554825,-0.028258999809622765,0.06481032818555832
1772525737716743700,1.52274365234375,0.001054209191352129,0.0026871964801102877,0.060742612928152084
1772525737726727700,1.532727783203125,-0.009826036170125008,0.032191965728998184,0.04459614306688309
1772525737736710700,1.542710693359375,-0.013715317472815514,0.04572082310914993,0.0285444725304842
1772525737746694700,1.552694580078125,-0.009782107546925545,0.05043010786175728,0.014636927284300327
1772525737756678700,1.5626787109375,-0.000901530496776104,0.0572936050593853,0.006002692971378565
1772525737766661600,1.57266162109375,0.0062234895303845406,0.05218416824936867,0.002293368335813284
1772525737776645600,1.582645751953125,0.014452391304075718,0.03911470249295235,0.008678829297423363
1772525737786628600,1.592628662109375,0.018105018883943558,0.024427544325590134,0.019426386803388596
1772525737796612600,1.602612548828125,0.01831115037202835,0.012080597691237926,0.03005053475499153
1772525737806596600,1.6125966796875,0.01214565709233284,0.002392766997218132,0.03965301439166069
1772525737816579600,1.62257958984375,-0.00015788059681653976,-0.0025141071528196335,0.04198993742465973
1772525737826563600,1.6325634765625,-0.004999513737857342,0.0037915196735411882,0.04496479034423828
1772525737836547600,1.642547607421875,-0.00652390718460083,0.007180658634752035,0.040832363069057465
1772525737846530600,1.652530517578125,-0.0062657552771270275,-0.00016318471170961857,0.03093012422323227
1772525737856514800,1.662514892578125,-0.0006488822400569916,-0.0011376356706023216,0.024273287504911423
1772525737866498800,1.672498779296875,-0.004255957901477814,-0.006818979512900114,0.017550354823470116
1772525737876481500,1.6824814453125,-0.005583543796092272,-0.009135929867625237,0.009269521571695805
1772525737886465500,1.692465576171875,-0.010327428579330444,-0.013394620269536972,0.0003907582722604275
1772525737896449500,1.702449462890625,-0.016158685088157654,-0.010937321931123734,-0.009312734007835388
1772525737906432500,1.7124326171875,-0.027419866994023323,-0.0015367665328085423,-0.01720503531396389
1772525737916416800,1.722416748046875,-0.04004298150539398,0.008032238110899925,-0.02081255242228508
1772525737926399700,1.732399658203125,-0.040544357150793076,0.02447596564888954,-0.027308717370033264
1772525737936383700,1.7423837890625,-0.03283077850937843,0.027818497270345688,-0.029658958315849304
1772525737946367500,1.752367431640625,-0.023599207401275635,0.021566279232501984,-0.03286737576127052
1772525737956350500,1.7623505859375,-0.016617730259895325,0.013565609231591225,-0.030094757676124573
1772525737966334500,1.77233447265625,-0.008230185136198997,0.011365028098225594,-0.02660549432039261
1772525737976318700,1.782318603515625,-0.0035848335828632116,0.0037292130291461945,-0.020323097705841064
1772525737986301700,1.7923017578125,0.001645959448069334,0.005295895971357822,-0.01564139872789383
1772525737996285700,1.80228564453125,0.002986860927194357,0.0037523277569562197,-0.0069549670442938805
1772525738006269700,1.812269775390625,0.004590710625052452,-0.0032694728579372168,-0.0009888778440654278
1772525738016252400,1.82225244140625,0.004669006913900375,-0.00879686325788498,0.008151357062160969
1772525738026236400,1.832236328125,-0.0018469481728971004,-0.00435401126742363,0.0211923960596323
1772525738036220700,1.842220703125,-0.00017235241830348969,-0.002708177315071225,0.03292921185493469
1772525738046203600,1.85220361328125,0.006336330436170101,0.007382295560091734,0.04479789361357689
1772525738056187600,1.862187744140625,0.00813289824873209,0.013867892324924469,0.04636436700820923
1772525738066170600,1.872170654296875,0.01283922791481018,-0.001386009156703949,0.041360318660736084
1772525738076154600,1.882154541015625,0.016463257372379303,-0.018210263922810555,0.032526880502700806
1772525738086138400,1.892138427734375,0.011560383252799511,-0.025223825126886368,0.013754548504948616
1772525738096121600,1.90212158203125,0.006025801412761211,-0.03595210239291191,-0.004248686600476503
1772525738106105600,1.912105712890625,-0.0012478213757276535,-0.035732053220272064,-0.02041180245578289
1772525738116089600,1.922089599609375,-0.007237004116177559,-0.010295937769114971,-0.029151232913136482
1772525738126072300,1.932072265625,-0.011207428760826588,0.023973165079951286,-0.028991824015975
1772525738136056300,1.942056396484375,-0.00965427327901125,0.04450693726539612,-0.034739986062049866
1772525738146040300,1.952040283203125,-0.0049476707354187965,0.04686270281672478,-0.035595543682575226
1772525738156023600,1.9620234375,0.008830992504954338,0.035663045942783356,-0.037878938019275665
1772525738166007600,1.972007568359375,0.016425183042883873,0.010738943703472614,-0.03509373962879181
1772525738175991600,1.981991455078125,0.017178324982523918,-0.018005885183811188,-0.03136052191257477
1772525738185974500,1.991974609375,0.006704550236463547,-0.03274238482117653,-0.023845408111810684
1772525738195958300,2.001958251953125,-0.006345737725496292,-0.032905373722314835,-0.019506853073835373
1772525738205942300,2.0119423828125,-0.017452187836170197,-0.02985772117972374,-0.012797430157661438
1772525738215925500,2.021925537109375,-0.022814195603132248,-0.021168623119592667,-0.006728352978825569
1772525738225909500,2.031909423828125,-0.024182787165045738,0.0019300786079838872,-0.0000890013761818409
1772525738235892500,2.041892578125,-0.020918551832437515,0.014882627874612808,0.0032988060265779495
1772525738245876500,2.05187646484375,-0.01501369010657072,0.011606923304498196,0.00594191811978817
1772525738255860500,2.061860595703125,-0.01058831624686718,0.009264406748116016,0.0025586383417248726
1772525738265843500,2.071843505859375,-0.0037971800193190575,0.00560238491743803,0.0002709398977458477
1772525738275827500,2.081827392578125,0.0002244594506919384,0.014300800859928131,-0.0012095114216208458
1772525738285811500,2.0918115234375,-0.00143779581412673,0.01742657646536827,0.00016366178169846535
1772525738295794400,2.10179443359375,-0.004481256473809481,0.023521754890680313,-0.003763435874134302
1772525738305778400,2.1117783203125,-0.009675306268036366,0.022526578977704048,-0.001813374925404787
1772525738315762400,2.121762451171875,-0.010989842936396599,0.011626260355114937,-0.009693935513496399
1772525738325745700,2.13174560546875,-0.013966726139187813,0.003748194547370076,-0.012086322531104088
1772525738335729700,2.141729736328125,-0.0109965018928051,0.006325601600110531,-0.010671384632587433
1772525738345713400,2.15171337890625,-0.013602139428257942,0.015324689447879791,-0.009277485311031342
1772525738355696400,2.1616962890625,-0.009644148871302605,0.014555834233760834,-0.002735165413469076
1772525738365680400,2.171680419921875,-0.008399829268455505,0.010050758719444275,0.004273592494428158
1772525738375664400,2.181664306640625,-0.003857008647173643,-0.0007403700146824121,0.002728160470724106
1772525738385647600,2.191647705078125,-0.004926710389554501,-0.021853353828191757,0.0036025228910148144
1772525738395631600,2.201631591796875,-0.010798981413245201,-0.03534279763698578,0.004645949229598045
1772525738405614300,2.2116142578125,-0.01419789344072342,-0.02870246209204197,0.01002527866512537
1772525738415598300,2.221598388671875,-0.02051757462322712,-0.0033329243306070566,0.014607513323426247
1772525738425582300,2.231582275390625,-0.024142751470208168,0.022643903270363808,0.011209240183234215
1772525738435565600,2.241565673828125,-0.023047925904393196,0.032442472875118256,-0.00007377471774816513
1772525738445549600,2.251549560546875,-0.01479088794440031,0.017667256295681,-0.01284202840179205
1772525738455533600,2.261533447265625,-0.00661897799000144,0.00009971507824957371,-0.02803882211446762
1772525738465516500,2.2715166015625,-0.004134859889745712,-0.012740717269480228,-0.03983424976468086
1772525738475500500,2.28150048828125,-0.005553259514272213,-0.02211158163845539,-0.04164227098226547
1772525738485484500,2.291484619140625,-0.0093059241771698,-0.013196095824241638,-0.03180902078747749
1772525738495467500,2.301467529296875,-0.01694866269826889,0.004125104285776615,-0.014306193217635155
1772525738505451500,2.311451416015625,-0.014321618713438511,0.01944483071565628,-0.0021267724223434925
1772525738515435500,2.321435546875,-0.013815085403621197,0.027638046070933342,0.005686942487955093
1772525738525418500,2.33141845703125,-0.0026920430827885866,0.024673989042639732,0.004275045357644558
1772525738535402500,2.341402587890625,0.007453269325196743,0.009240438230335712,0.00047711143270134926
1772525738545386500,2.351386474609375,0.016096914187073708,-0.006241289898753166,-0.005918159149587154
1772525738555369500,2.361369384765625,0.017478561028838158,-0.02028973028063774,-0.01473641861230135
1772525738565353500,2.371353515625,0.01608225889503956,-0.01885177567601204,-0.018101060763001442
1772525738575337500,2.38133740234375,0.003460740204900503,-0.009444160386919975,-0.014500200748443604
1772525738585320400,2.391320556640625,0.00046601099893450737,0.0007168874144554138,-0.013637810945510864
1772525738595304400,2.401304443359375,0.0018346095457673073,0.014096608385443687,-0.000729734543710947
1772525738605288400,2.411288330078125,0.008125532418489456,0.021736491471529007,0.008980023674666882
1772525738615271700,2.421271728515625,0.01211707666516304,0.01603439822793007,0.01801532879471779
1772525738625255700,2.431255615234375,0.021420296281576157,0.008060723543167114,0.025897951796650887
1772525738635238400,2.44123828125,0.030796755105257034,-0.0008922913111746311,0.02735656499862671
1772525738645222400,2.451222412109375,0.033663924783468246,-0.0112061258405447,0.023506242781877518
1772525738655206400,2.461206298828125,0.02452821284532547,-0.009692918509244919,0.017118118703365326
1772525738665189600,2.471189697265625,0.007167777977883816,0.004128500819206238,0.006254839710891247
1772525738675173600,2.481173583984375,-0.007959775626659393,0.004000136163085699,-0.00633632019162178
1772525738685157600,2.49115771484375,-0.01805538311600685,0.0016150991432368755,-0.021420782431960106
1772525738695140600,2.501140625,-0.015409000217914581,0.0056348745711147785,-0.03975824639201164
1772525738705124400,2.511124267578125,-0.006856175139546394,-0.01885567605495453,-0.046298135071992874
1772525738715108400,2.5211083984375,0.001043559517711401,-0.022574514150619507,-0.04209939390420914
1772525738725091600,2.531091552734375,-0.0015210648998618126,0.02319430559873581,-0.028292236849665642
1772525738735075600,2.54107568359375,-0.0031442614272236824,0.04508735612034798,-0.017115216702222824
1772525738745059600,2.5510595703125,0.0006290879100561142,0.03734486922621727,-0.00617391848936677
1772525738755042600,2.56104248046875,0.005095475818961859,0.027001947164535522,-0.0010579866357147694
1772525738765026600,2.571026611328125,0.0059450166299939156,0.007104894146323204,0.0024684853851795197
1772525738775010600,2.581010498046875,0.004005969502031803,-0.016790317371487617,0.006317019462585449
1772525738784993500,2.59099365234375,-0.002402303507551551,-0.027967512607574463,0.013327714055776596
1772525738794977500,2.6009775390625,-0.005887582432478666,-0.023098189383745193,0.013740504160523415
1772525738804961500,2.61096142578125,-0.012377527542412281,-0.01254286989569664,0.0217803455889225
1772525738814944500,2.620944580078125,-0.01264171302318573,-0.004083072766661644,0.02050202712416649
1772525738824928500,2.630928466796875,-0.010402258485555649,-0.0036683459766209126,0.018908264115452766
1772525738834912500,2.64091259765625,-0.010117566213011742,-0.010770997032523155,0.015998762100934982
1772525738844895500,2.6508955078125,-0.007351783104240894,-0.006749599240720272,0.007692940998822451
1772525738854879500,2.66087939453125,-0.0019695349037647247,-0.004803626798093319,0.003629223443567753
1772525738864863500,2.670863525390625,0.00020075729116797447,0.0005959086120128632,-0.002811403013765812
1772525738874846500,2.680846435546875,-0.0015366887673735619,0.011081838980317116,-0.010770526714622974
1772525738884830500,2.69083056640625,-0.007395368069410324,0.014668803662061691,-0.021562833338975906
1772525738894813400,2.7008134765625,-0.012473483569920063,0.0023394329473376274,-0.02857174165546894
1772525738904797400,2.71079736328125,-0.017932258546352386,0.009562891907989979,-0.035194676369428635
1772525738914781700,2.72078173828125,-0.020520582795143127,0.02193327434360981,-0.03914893791079521
1772525738924764400,2.730764404296875,-0.02363097295165062,0.03042648546397686,-0.04396290332078934
1772525738934748400,2.74074853515625,-0.01796882599592209,0.03564814478158951,-0.043654508888721466
1772525738944732400,2.750732421875,-0.021146059036254883,0.030123282223939896,-0.039659541100263596
1772525738954715400,2.76071533203125,-0.016989130526781082,0.0011494208592921495,-0.03175714612007141
1772525738964699400,2.770699462890625,-0.017626700922846794,-0.020921053364872932,-0.01700144074857235
1772525738974683600,2.78068359375,-0.01197547372430563,-0.034113019704818726,-0.0015745479613542557
1772525738984666600,2.79066650390625,-0.003260009689256549,-0.034532394260168076,0.016658920794725418
1772525738994650600,2.800650634765625,-0.0009534456767141819,-0.024600666016340256,0.03189007192850113
1772525739004634400,2.81063427734375,-0.005281715653836727,-0.01963455229997635,0.04286416247487068
1772525739014617300,2.820617431640625,-0.0057083540596067905,-0.027854664251208305,0.03616684302687645
1772525739024601300,2.830601318359375,0.004696618299931288,-0.036521051079034805,0.029072590172290802
1772525739034585600,2.840585693359375,0.011415774002671242,-0.04169078171253204,0.02141173928976059
1772525739044568600,2.850568603515625,0.02339005656540394,-0.04155854135751724,0.011206263676285744
1772525739054552600,2.860552490234375,0.03228714317083359,-0.04553037881851196,0.002972835209220648
1772525739064536600,2.87053662109375,0.038053516298532486,-0.048860300332307816,-0.00640610046684742
1772525739074519300,2.880519287109375,0.03536611795425415,-0.05104382708668709,-0.010175538249313831
1772525739084503300,2.89050341796875,0.028328007087111473,-0.05387048050761223,-0.011843696236610413
1772525739094487800,2.90048779296875,0.017565106973052025,-0.03228769078850746,-0.006577296182513237
1772525739104471000,2.910470947265625,0.0029538623057305813,0.002626023953780532,-0.003942004404962063
1772525739114455000,2.920455078125,-0.005094210151582956,0.023308932781219482,-0.008021168410778046
1772525739124439000,2.93043896484375,-0.006459892727434635,0.03915860131382942,-0.00919343437999487
1772525739134422000,2.940422119140625,-0.0041498662903904915,0.05227227136492729,0.0023055635392665863
1772525739144406000,2.950406005859375,0.00020813941955566406,0.06249300763010979,0.016377780586481094
1772525739154390000,2.96039013671875,0.0029948707669973373,0.05380471050739288,0.03227818384766579
1772525739164373000,2.970373046875,0.005485725589096546,0.02128804661333561,0.04498572275042534
1772525739174357000,2.98035693359375,0.004857219755649567,-0.00440613180398941,0.052018601447343826
1772525739184340000,2.990340087890625,0.007551353890448809,-0.020570218563079834,0.050678469240665436
1772525739194324000,3.000323974609375,0.007203811313956976,-0.019743572920560837,0.04239923506975174
1772525739204308000,3.010307861328125,0.0003717397339642048,-0.014751574024558067,0.02981107123196125
1772525739214291200,3.020291259765625,-0.0016610510647296906,0.004958747420459986,0.017275571823120117
1772525739224275000,3.03027490234375,0.000009282026439905167,0.0265088751912117,0.002356208860874176
1772525739234259000,3.040259033203125,-0.0000972445122897625,0.027199968695640564,-0.011843765154480934
1772525739244242000,3.050241943359375,-0.0007913336157798767,0.022275613620877266,-0.014736930839717388
1772525739254226000,3.060225830078125,-0.004427347332239151,0.017166072502732277,-0.009897436015307903
1772525739264210000,3.0702099609375,-0.012548760510981083,0.002745590638369322,-0.0012202332727611065
1772525739274193200,3.080193115234375,-0.013939729891717434,-0.011978494003415108,0.005523156840354204
1772525739284177200,3.09017724609375,-0.012514768168330193,-0.023999910801649094,0.012456374242901802
1772525739294161200,3.1001611328125,-0.006085631903260946,-0.021404659375548363,0.01815553940832615
1772525739304144000,3.110143798828125,-0.00045010587200522423,-0.019177500158548355,0.013481570407748222
1772525739314128000,3.1201279296875,0.0009648320265114307,-0.012598959729075432,0.008203452453017235
1772525739324112000,3.13011181640625,-0.0019699777476489544,-0.001395288622006774,-0.0046696737408638
1772525739334095000,3.14009521484375,-0.0021665189415216446,0.006582743022590876,-0.0191761776804924
1772525739344079000,3.1500791015625,-0.00838153250515461,0.010404626838862896,-0.029415030032396317
1772525739354063000,3.16006298828125,-0.01343514584004879,0.017149880528450012,-0.025182999670505524
1772525739364046000,3.170046142578125,-0.019808806478977203,0.0202045701444149,-0.021181493997573853
1772525739374029800,3.18002978515625,-0.021120145916938782,0.012150905095040798,-0.010414333082735538
1772525739384013800,3.190013916015625,-0.016056502237915993,0.0031198346987366676,-0.000445367768406868
1772525739393997000,3.1999970703125,-0.002307133749127388,-0.002718613250181079,0.008368098177015781
1772525739403981000,3.20998095703125,0.003923951182514429,-0.012191260233521461,0.014363314025104046
1772525739413965000,3.219965087890625,0.009289953857660294,-0.016792669892311096,0.01838788390159607
1772525739423948000,3.229947998046875,0.010298585519194603,-0.011389986611902714,0.01892036385834217
1772525739433932000,3.23993212890625,0.005073462147265673,-0.004341664724051952,0.013995912857353687
1772525739443916000,3.249916015625,0.0012064790353178978,0.0022752461954951286,0.006805601064115763
1772525739453899000,3.25989892578125,0.0008000805974006653,0.009165642783045769,-0.0011029220186173916
1772525739463883000,3.269883056640625,0.002800541464239359,0.02794511988759041,0.0000033061951398849487
1772525739473867000,3.279866943359375,0.006905271206051111,0.03679214045405388,-0.002818046137690544
1772525739483850000,3.28985009765625,0.010502578690648079,0.023046476766467094,-0.004005862399935722
1772525739493834000,3.299833984375,0.010710040107369423,0.004114597104489803,-0.008724183775484562
1772525739503818000,3.30981787109375,0.009023291990160942,-0.013409454375505447,-0.006235874257981777
1772525739513801200,3.31980126953125,0.005365706514567137,-0.02107296697795391,-0.004796967841684818
1772525739523785000,3.329784912109375,0.002949066925793886,-0.019475722685456276,-0.0026839934289455414
1772525739533769000,3.33976904296875,0.004397826734930277,-0.009128808975219727,0.0007293797098100185
1772525739543752000,3.349751953125,0.007966193370521069,0.0006919577717781067,0.0009261206723749638
1772525739553736000,3.35973583984375,0.008682850748300552,0.008654809556901455,0.0005194558762013912
1772525739563720000,3.369719970703125,0.00588004756718874,0.017283519729971886,-0.00355795631185174
1772525739573703200,3.379703125,0.0009164479561150074,0.020219389349222183,-0.00509220315143466
1772525739583687200,3.389687255859375,-0.010505054146051407,0.015840012580156326,-0.00803673081099987
1772525739593670000,3.399669921875,-0.02292018011212349,0.006486191414296627,-0.00639356067404151
1772525739603654000,3.40965380859375,-0.025417329743504524,-0.007179548032581806,-0.009577919729053974
1772525739613638000,3.419637939453125,-0.025060731917619705,-0.01932755671441555,-0.009865540079772472
1772525739623620900,3.429620849609375,-0.015128913335502148,-0.015418102964758873,-0.015004798769950867
1772525739633605000,3.439605224609375,-0.003932984080165625,-0.011779427528381348,-0.017591793090105057
1772525739643589000,3.449589111328125,0.003482220694422722,-0.015560038387775421,-0.021528929471969604
1772525739653572000,3.459572021484375,0.004422582685947418,-0.014725936576724052,-0.02452019229531288
1772525739663556000,3.46955615234375,-0.001293344423174858,-0.012558347545564175,-0.027406517416238785
1772525739673539800,3.479539794921875,-0.008293995633721352,-0.008450688794255257,-0.0322691835463047
1772525739683522800,3.489522705078125,-0.014299789443612099,-0.015157508663833141,-0.03634839132428169
1772525739693507000,3.499507080078125,-0.02189166098833084,-0.0182622242718935,-0.03898891434073448
1772525739703491000,3.509490966796875,-0.02585604414343834,-0.003876264439895749,-0.03880096599459648
1772525739713474000,3.51947412109375,-0.023114319890737534,-0.00483526848256588,-0.035820625722408295
1772525739723458000,3.5294580078125,-0.01954791136085987,-0.00012467149645090103,-0.02618635818362236
1772525739733442000,3.539442138671875,-0.015818152576684952,0.003714008955284953,-0.017262373119592667
1772525739743424800,3.5494248046875,-0.010553078725934029,0.0073525672778487206,-0.008858224377036095
1772525739753409000,3.559408935546875,-0.0064957523718476295,0.009992293082177639,-0.002323360648006201
1772525739763393000,3.56939306640625,-0.007168991025537252,0.004169445484876633,0.0008615171536803246
1772525739773376000,3.5793759765625,-0.005616368260234594,-0.0001177110243588686,0.0013238415122032166
1772525739783360000,3.589360107421875,-0.010837413370609283,-0.004172769375145435,-0.0006026462651789188
1772525739793344000,3.599343994140625,-0.014315235428512096,-0.012526839040219784,-0.008879484608769417
1772525739803327000,3.609326904296875,-0.012449781410396099,-0.02391187846660614,-0.016847707331180573
1772525739813311000,3.61931103515625,-0.006895759142935276,-0.025501251220703125,-0.022584689781069756
1772525739823295000,3.629294921875,0.0018238788470625877,-0.015266235917806625,-0.029155615717172623
1772525739833278000,3.63927783203125,0.004340300336480141,-0.005141430534422398,-0.036265190690755844
1772525739843262000,3.649261962890625,0.004996064584702253,0.00061989133246243,-0.03720457851886749
1772525739853246000,3.659245849609375,0.0023310394026339054,0.009573172777891159,-0.029686741530895233
1772525739863229000,3.66922900390625,-0.0017255041748285294,0.007807820104062557,-0.018434962257742882
1772525739873213000,3.679212890625,-0.0026054128538817167,0.0031134660821408033,-0.008125333115458488
1772525739883197200,3.689197265625,-0.009387489408254623,-0.006215231493115425,0.0016392478719353676
1772525739893180000,3.699179931640625,-0.012818973511457443,-0.021200573071837425,0.0033159740269184113
1772525739903164000,3.709163818359375,-0.009508936665952206,-0.03819738328456879,0.0022102966904640198
1772525739913148000,3.71914794921875,-0.01106875017285347,-0.03731853887438774,0.0004326365888118744
1772525739923131000,3.729130859375,-0.006920880638062954,-0.024343164637684822,-0.0060158101841807365
1772525739933115000,3.739114990234375,-0.006741649936884642,-0.010010563768446445,-0.0130433589220047
1772525739943099100,3.74909912109375,-0.004888269584625959,0.0011650745291262865,-0.02700134366750717
1772525739953082000,3.75908203125,-0.005767645314335823,0.006905784364789724,-0.038205262273550034
1772525739963066000,3.769066162109375,-0.005432886071503162,0.004555012099444866,-0.04383065924048424
1772525739973049900,3.7790498046875,-0.007173527963459492,0.0007490888237953186,-0.04263490065932274
1772525739983032800,3.78903271484375,-0.01664239540696144,0.003826713189482689,-0.023985177278518677
1772525739993016800,3.799016845703125,-0.02434505522251129,0.010501394048333168,-0.0049933772534132
1772525740003001000,3.8090009765625,-0.029468709602952003,0.008630789816379547,0.015005631372332573
1772525740012984000,3.818984130859375,-0.026187695562839508,0.0034293695352971554,0.029378976672887802
1772525740022968000,3.828968017578125,-0.019108915701508522,-0.004747416824102402,0.038479577749967575
1772525740032952000,3.8389521484375,-0.0015461663715541363,-0.008624446578323841,0.04507382959127426
1772525740042934800,3.848934814453125,0.010295228101313114,-0.018163302913308144,0.0343693383038044
1772525740052918800,3.858918701171875,0.020686082541942596,-0.018045324832201004,0.026410749182105064
1772525740062903000,3.868903076171875,0.024056389927864075,-0.02072831057012081,0.017538273707032204
1772525740072886000,3.878885986328125,0.01932821050286293,-0.014710630290210247,0.004034449812024832
1772525740082870000,3.8888701171875,0.004454545211046934,0.008415314368903637,-0.0016032187268137932
1772525740092853000,3.89885302734375,-0.006709159351885319,0.028531501069664955,-0.008824113756418228
1772525740102836200,3.908836181640625,-0.009295531548559666,0.03197712451219559,-0.007712731137871742
1772525740112820200,3.9188203125,-0.0015278896316885948,0.023524250835180283,-0.00856947060674429
1772525740122804200,3.92880419921875,0.005590834189206362,0.011723622679710388,-0.0016298918053507805
1772525740132787200,3.938787109375,0.01839158497750759,-0.006016758736222982,0.011024383828043938
1772525740142771200,3.948771240234375,0.028371162712574005,-0.01388111338019371,0.021783974021673203
1772525740152755200,3.958755126953125,0.028198324143886566,-0.012700533494353294,0.03470057249069214
1772525740162738200,3.96873828125,0.016718769446015358,0.0016307340702041984,0.0396905355155468
1772525740172722200,3.97872216796875,0.0064573441632092,0.012447429820895195,0.03589340299367905
1772525740182706200,3.9887060546875,0.002682750578969717,0.024869903922080994,0.025771882385015488
1772525740192689200,3.998689208984375,0.002321892883628607,0.03280851989984512,0.013321338221430779
1772525740202671000,4.008671142578125,0.005408143624663353,0.029752328991889954,0.00557455699890852
1772525740212655000,4.018655029296875,0.008327234536409378,0.011990376748144627,-0.004058363381773233
1772525740222638000,4.02863818359375,0.011690357699990273,-0.008216315880417824,-0.014675742946565151
1772525740232622000,4.0386220703125,0.011598745360970497,-0.027666980400681496,-0.022870555520057678
1772525740242606000,4.048606201171875,0.006160742603242397,-0.03770560026168823,-0.028882022947072983
1772525740252589300,4.05858935546875,-0.0031219711527228355,-0.03247435390949249,-0.029486030340194702
1772525740262573300,4.0685732421875,-0.011863885447382927,-0.015540231950581074,-0.03638226166367531
1772525740272557300,4.078557373046875,-0.02091250941157341,-0.002171961823478341,-0.045084673911333084
1772525740282540000,4.0885400390625,-0.023262647911906242,0.001546431565657258,-0.05164073035120964
1772525740292524000,4.09852392578125,-0.0214474368840456,0.0006888937205076218,-0.058994513005018234
1772525740302508000,4.108508056640625,-0.020861098542809486,-0.002446472179144621,-0.05915488675236702
1772525740312491300,4.1184912109375,-0.016654103994369507,-0.008123531937599182,-0.053828828036785126
1772525740322475300,4.128475341796875,-0.013719658367335796,-0.01829700730741024,-0.049943916499614716
1772525740332459300,4.138459228515625,-0.012152654118835926,-0.02828545868396759,-0.04315605014562607
1772525740342442200,4.148442138671875,-0.006584960035979748,-0.03478887304663658,-0.03825685381889343
1772525740352426000,4.158426025390625,-0.0029204501770436764,-0.034932419657707214,-0.024860626086592674
1772525740362410000,4.168409912109375,-0.006264407187700272,-0.033742181956768036,-0.008444477804005146
1772525740372393200,4.178393310546875,-0.010672205127775669,-0.02431592345237732,0.006928352639079094
1772525740382377200,4.188377197265625,-0.017331179231405258,-0.00441623292863369,0.02234305813908577
1772525740392361200,4.198361328125,-0.016761528328061104,0.012531058862805367,0.031814590096473694
1772525740402344200,4.20834423828125,-0.0195450559258461,0.015048964880406857,0.0317823700606823
1772525740412328200,4.218328125,-0.019271017983555794,0.012138129211962223,0.024233106523752213
1772525740422312200,4.228312255859375,-0.016174204647541046,-0.0019249324686825275,0.015709439292550087
1772525740432295200,4.238295166015625,-0.011757085099816322,-0.01809990592300892,0.004666641354560852
1772525740442279200,4.248279052734375,-0.010160345584154129,-0.02481047250330448,-0.002517879009246826
1772525740452263200,4.25826318359375,-0.005618857219815254,-0.019287876784801483,-0.008539020083844662
1772525740462246100,4.26824609375,-0.007397496607154608,-0.011276605539023876,-0.009626745246350765
1772525740472230100,4.278230224609375,-0.0066768452525138855,-0.015618889592587948,-0.007559865713119507
1772525740482214100,4.288214111328125,-0.0058888159692287445,-0.014105948619544506,-0.0009107515215873718
1772525740492197400,4.298197265625,-0.005484015680849552,-0.013237492181360722,0.011873753741383553
1772525740502181000,4.30818115234375,-0.005503804422914982,-0.00772648211568594,0.022902660071849823
1772525740512165000,4.3181650390625,-0.0021231877617537975,-0.00917284470051527,0.035796087235212326
1772525740522148000,4.328148193359375,0.0015994817949831486,-0.025105640292167664,0.04689038544893265
1772525740532132000,4.338132080078125,0.0043494622223079205,-0.04871802404522896,0.05501808598637581
1772525740542116000,4.3481162109375,0.0032223910093307495,-0.07544786483049393,0.05963461846113205
1772525740552099300,4.358099365234375,0.0007808045484125614,-0.08244691789150238,0.06769334524869919
1772525740562083300,4.368083251953125,-0.005561685189604759,-0.06251678615808487,0.07416926324367523
1772525740572067300,4.3780673828125,-0.012885911390185356,-0.036365341395139694,0.07336126267910004
1772525740582051300,4.38805126953125,-0.013705438002943993,-0.008569274097681046,0.06396017968654633
1772525740592035000,4.39803515625,-0.008801493793725967,0.021270114928483963,0.0488765686750412
1772525740602019000,4.40801904296875,0.0014863726682960987,0.03509516268968582,0.03370579332113266
1772525740612002000,4.418001953125,0.00965881533920765,0.03582673519849777,0.018078098073601723
1772525740621986000,4.427986083984375,0.011921162717044353,0.027093540877103806,0.006815589033067226
1772525740631970000,4.437969970703125,0.01829863339662552,0.01591678522527218,0.00664248364046216
1772525740641953300,4.447953369140625,0.01256654504686594,0.008213242515921593,0.008166389539837837
1772525740651937300,4.457937255859375,0.0052697500213980675,0.001821123412810266,0.017587322741746902
1772525740661921300,4.46792138671875,0.0007893429137766361,0.0029794403817504644,0.025682970881462097
1772525740671904000,4.477904052734375,-0.001606436911970377,0.010884501039981842,0.03304101899266243
1772525740681888000,4.487887939453125,0.005280402489006519,0.015500450506806374,0.03391729295253754
1772525740691872000,4.4978720703125,0.009883410297334194,0.015217090025544167,0.02340180054306984
1772525740701855200,4.507855224609375,0.0188661627471447,0.009990516118705273,0.011746498756110668
1772525740711839200,4.517839111328125,0.020705875009298325,0.0012004869058728218,-0.0035608182661235332
1772525740721823200,4.5278232421875,0.02229338511824608,-0.0008695879951119423,-0.009544409811496735
1772525740731806200,4.53780615234375,0.015367036685347557,0.013331984169781208,-0.010550284758210182
1772525740741790000,4.5477900390625,0.004818609915673733,0.013641830533742905,-0.005992572754621506
1772525740751774000,4.55777392578125,-0.0004696287214756012,0.010581858456134796,-0.005489234812557697
1772525740761757200,4.567757080078125,-0.006428901106119156,0.0036560818552970886,-0.007609265856444836
1772525740771741200,4.5777412109375,-0.005035534966737032,-0.00042973970994353294,-0.0026195673272013664
1772525740781725200,4.58772509765625,-0.004466681741178036,-0.0026911236345767975,-0.0013355906121432781
1772525740791708200,4.597708251953125,-0.00311619252897799,-0.010809237137436867,0.0013810996897518635
1772525740801692200,4.607692138671875,0.00007782038301229477,-0.012443577870726585,0.0018672370351850986
1772525740811676200,4.61767626953125,-0.0028924031648784876,0.00010976474732160568,0.00039610685780644417
1772525740821659100,4.6276591796875,-0.003454235615208745,0.009034122340381145,-0.00021624239161610603
1772525740831643100,4.63764306640625,-0.003201501676812768,0.008769936859607697,-0.0009656557813286781
1772525740841627100,4.647627197265625,-0.003419801127165556,0.008981889113783836,-0.00009695766493678093
1772525740851610000,4.657610107421875,-0.008211893029510975,0.009415984153747559,0.00895166490226984
1772525740861594000,4.667593994140625,-0.013902084901928902,0.007717548869550228,0.01273038238286972
1772525740871578000,4.677578125,-0.013913003727793694,0.00228949380107224,0.01771528646349907
1772525740881561000,4.68756103515625,-0.013981528580188751,0.001250461908057332,0.021044190973043442
1772525740891545000,4.697545166015625,-0.012844092212617397,0.003564748913049698,0.023033838719129562
1772525740901529000,4.707529052734375,-0.012116439640522003,0.009920438751578331,0.0166725255548954
1772525740911512000,4.717511962890625,-0.00929748360067606,0.016249706968665123,0.00899623055011034
1772525740921496000,4.72749609375,-0.012796156108379364,0.013312451541423798,0.00039830198511481285
1772525740931480000,4.73747998046875,-0.01054791547358036,0.013212050311267376,-0.00584414741024375
1772525740941463300,4.74746337890625,-0.010976416990160942,0.01604165881872177,-0.009002657607197762
1772525740951447300,4.757447265625,-0.0051299799233675,0.015700507909059525,-0.004825221840292215
1772525740961431300,4.767431396484375,-0.0021726172417402267,0.00790628045797348,0.0007415940053761005
1772525740971414000,4.7774140625,0.0026306603103876114,0.00318955653347075,0.006513996049761772
1772525740981398000,4.78739794921875,0.00424557738006115,-0.003661563154309988,0.010013801977038383
1772525740991382000,4.797382080078125,0.006181162782013416,-0.006235774606466293,0.007879278622567654
1772525741001365200,4.807365234375,0.0060279639437794685,-0.01750110276043415,0.007954989559948444
1772525741011349200,4.817349365234375,0.002504335716366768,-0.027880506590008736,0.003558909986168146
1772525741021333200,4.827333251953125,0.0021061780862510204,-0.024588819593191147,-0.002356358803808689
1772525741031316000,4.83731591796875,-0.00034952256828546524,-0.010577928274869919,-0.0036338772624731064
1772525741041300000,4.847300048828125,-0.007128325290977955,0.007799734361469746,-0.006580734625458717
1772525741051284000,4.857283935546875,-0.006998362950980663,0.017692578956484795,-0.01839132234454155
1772525741061267200,4.86726708984375,-0.0037391060031950474,0.0016008267411962152,-0.025396453216671944
1772525741071251200,4.877251220703125,-0.005026211496442556,-0.013506753370165825,-0.0334935262799263
1772525741081235200,4.887235107421875,-0.004014203324913979,-0.020749764516949654,-0.030204860493540764
1772525741091218700,4.89721875,-0.0069769700057804585,-0.017528139054775238,-0.03155907988548279
1772525741101202700,4.90720263671875,-0.0006323521956801414,-0.014242078177630901,-0.026699047535657883
1772525741111186700,4.917186767578125,0.009123340249061584,-0.008623341098427773,-0.022422276437282562
1772525741121170000,4.927169921875,0.012839255854487419,-0.0029931659810245037,-0.015616905875504017
1772525741131154000,4.93715380859375,0.011358536779880524,0.001621293369680643,-0.00985968392342329
1772525741141138000,4.947137939453125,0.008577032946050167,0.004563901573419571,-0.005895344540476799
1772525741151120600,4.95712060546875,0.006115472875535488,0.0021113967522978783,-0.007811223156750202
1772525741161104600,4.967104736328125,0.005933957640081644,-0.005322824697941542,-0.012369660660624504
1772525741171088600,4.977088623046875,0.007290039677172899,-0.008010486140847206,-0.029034657403826714
1772525741181072000,4.98707177734375,0.00914916954934597,-0.010854177176952362,-0.041688185185194016
1772525741191056000,4.997055908203125,0.01438574306666851,-0.002800778253003955,-0.048604678362607956
1772525741201040000,5.007039794921875,0.011656828224658966,0.01454346813261509,-0.042297136038541794
1772525741211022800,5.01702294921875,0.010710073634982109,0.027135692536830902,-0.031530775129795074
1772525741221006600,5.027006591796875,0.008973767049610615,0.031237535178661346,-0.018879765644669533
1772525741230990600,5.036990478515625,0.012088865973055363,0.02555275149643421,-0.008384780958294868
1772525741240973800,5.046973876953125,0.014766789972782135,0.008817018941044807,0.00007822271436452866
1772525741250957800,5.056957763671875,0.01851918362081051,-0.007299899123609066,-0.0015028961934149265
1772525741260941800,5.06694189453125,0.020506415516138077,-0.03200417384505272,-0.0019783764146268368
1772525741270924800,5.0769248046875,0.013332659378647804,-0.026090092957019806,-0.00437202537432313
1772525741280908800,5.08690869140625,0.006820068694651127,0.01296532154083252,-0.014370236545801163
1772525741290892800,5.096892822265625,0.004418429918587208,0.043981295078992844,-0.029177146032452583
1772525741300875800,5.106875732421875,0.007563088554888964,0.06891603022813797,-0.0491168312728405
1772525741310859800,5.11685986328125,0.016018090769648552,0.06861349195241928,-0.06724204123020172
1772525741320843800,5.12684375,0.01571662165224552,0.05181986838579178,-0.08008912205696106
1772525741330826800,5.13682666015625,0.015338985249400139,0.016248559579253197,-0.07427571713924408
1772525741340810800,5.146810791015625,0.016144772991538048,-0.011009372770786285,-0.06027299165725708
1772525741350794800,5.156794677734375,0.01290583610534668,-0.025397367775440216,-0.039599671959877014
1772525741360777700,5.16677783203125,0.012979159131646156,-0.02640010043978691,-0.017442790791392326
1772525741370761700,5.17676171875,0.007858699187636375,-0.023889007046818733,0.0017255782149732113
1772525741380745700,5.186745849609375,0.011425657197833061,-0.019336730241775513,0.010229532606899738
1772525741390728700,5.196728759765625,0.012475740164518356,-0.014262341894209385,0.01038825698196888
1772525741400712700,5.206712646484375,0.019569072872400284,-0.020100880414247513,0.0011855009943246841
1772525741410696700,5.21669677734375,0.024867165833711624,-0.03049572929739952,-0.013394773006439209
1772525741420680700,5.2266806640625,0.031565096229314804,-0.040086179971694946,-0.02194266766309738
1772525741430664000,5.236663818359375,0.037579577416181564,-0.04643355682492256,-0.032524473965168
1772525741440648000,5.24664794921875,0.034667231142520905,-0.0643741637468338,-0.036123089492321014
1772525741450632000,5.2566318359375,0.03240753710269928,-0.06261088699102402,-0.03482639789581299
1772525741460614700,5.26661474609375,0.02729632891714573,-0.038312703371047974,-0.022375378757715225
1772525741470598700,5.2765986328125,0.016123302280902863,-0.01856296695768833,-0.012096643447875977
1772525741480582700,5.286582763671875,0.012000899761915207,-0.0010535952169448137,-0.002285993192344904
1772525741490566000,5.29656591796875,0.014456333592534065,0.0007198036182671785,0.011161372065544128
1772525741500550000,5.3065498046875,0.01503051072359085,-0.003922618925571442,0.019388142973184586
1772525741510534000,5.316533935546875,0.012546313926577568,-0.006846503354609013,0.02778322622179985
1772525741520516600,5.3265166015625,0.01003964152187109,0.00007860595360398293,0.0281560979783535
1772525741530500600,5.33650048828125,0.011326479725539684,-0.001494789496064186,0.014952944591641426
1772525741540484600,5.346484619140625,0.008904612623155117,-0.0025330909993499517,0.002567713148891926
1772525741550467800,5.3564677734375,0.008486762642860413,0.0018126551294699311,-0.006331505719572306
1772525741560451800,5.366451904296875,0.006166176870465279,0.022737577557563782,-0.006790527142584324
1772525741570435800,5.376435791015625,0.0005543641746044159,0.034427791833877563,-0.007377222180366516
1772525741580418800,5.386418701171875,-0.004935114178806543,0.029886681586503983,-0.0024552643299102783
1772525741590402800,5.39640283203125,-0.004204875323921442,0.02656571939587593,0.00490438099950552
1772525741600386800,5.40638671875,-0.008541046641767025,0.013095377013087273,0.01443285122513771
1772525741610369800,5.416369873046875,-0.012470806948840618,0.001311421045102179,0.021626049652695656
1772525741620353800,5.426353759765625,-0.014891250990331173,-0.009525145404040813,0.02423231303691864
1772525741630337800,5.436337890625,-0.019390661269426346,-0.015658404678106308,0.01737893559038639
1772525741640320800,5.44632080078125,-0.024324722588062286,-0.009905412793159485,0.006597877014428377
1772525741650304800,5.4563046875,-0.023756936192512512,-0.0074313366785645485,-0.0079570971429348
1772525741660288800,5.466288818359375,-0.015109291300177574,-0.010836614295840263,-0.012841158546507359
1772525741670271700,5.476271728515625,-0.009028762578964233,-0.008998234756290913,-0.019697997719049454
1772525741680255700,5.486255859375,-0.01239303033798933,-0.004312568344175816,-0.01630423404276371
1772525741690239700,5.49623974609375,-0.016540370881557465,-0.00128588592633605,-0.004798047244548798
1772525741700222700,5.50622265625,-0.023083144798874855,0.0017406573751941323,0.007993968203663826
1772525741710206700,5.516206787109375,-0.02907978557050228,0.007471513468772173,0.01685989834368229
1772525741720190700,5.526190673828125,-0.023527631536126137,0.008281299844384193,0.017600659281015396
1772525741730174000,5.536174072265625,-0.018029002472758293,0.005723865702748299,0.01859375275671482
1772525741740158000,5.546157958984375,-0.011101223528385162,-0.0030850546900182962,0.013794972561299801
1772525741750142000,5.556141845703125,-0.006329372059553862,-0.0035638909321278334,0.008767456747591496
1772525741760124700,5.566124755859375,0.003117123618721962,-0.011319722980260849,0.007660583592951298
1772525741770108700,5.576108642578125,0.009652786888182163,-0.01698746159672737,0.00830054096877575
1772525741780092700,5.5860927734375,0.008403230458498001,-0.0031248184386640787,0.021634124219417572
1772525741790076000,5.596075927734375,0.00413871044293046,0.011120962910354137,0.026110365986824036
1772525741800060000,5.606059814453125,-0.0021609808318316936,0.01339209359139204,0.031925223767757416
1772525741810044000,5.6160439453125,-0.003277111565694213,0.013109265826642513,0.029403477907180786
1772525741820026600,5.626026611328125,0.005292314104735851,-0.001920222071930766,0.023234426975250244
1772525741830010600,5.6360107421875,0.013995524495840073,-0.014581955969333649,0.014866776764392853
1772525741839994600,5.64599462890625,0.0210292786359787,-0.020865824073553085,0.007505587302148342
1772525741849977900,5.655977783203125,0.01857437565922737,-0.013973030261695385,0.005831524729728699
1772525741859961900,5.6659619140625,0.013488100841641426,0.002912587719038129,0.005770707502961159
1772525741869945900,5.67594580078125,0.00352494977414608,0.02494492009282112,0.0058503360487520695
1772525741879928800,5.6859287109375,-0.0004230928607285023,0.036119479686021805,0.007861127145588398
1772525741889912800,5.695912841796875,0.00030634691938757896,0.029866646975278854,0.006282404996454716
1772525741899896800,5.705896728515625,0.0003439770080149174,0.014050256460905075,0.001799562480300665
1772525741909879800,5.7158798828125,0.0034050140529870987,0.008557219989597797,-0.005578458774834871
1772525741919863800,5.72586376953125,0.0019610547460615635,0.0129613745957613,-0.00915362685918808
1772525741929847800,5.735847900390625,-0.0008690869435667992,0.03176116198301315,-0.010794665664434433
1772525741939830800,5.745830810546875,-0.009470128454267979,0.04939090833067894,-0.01285345759242773
1772525741949814800,5.755814697265625,-0.015312571078538895,0.06239858642220497,-0.02172578126192093
1772525741959798800,5.765798828125,-0.025429850444197655,0.0869697779417038,-0.041596442461013794
1772525741969781800,5.77578173828125,-0.03599248081445694,0.1081797257065773,-0.06673987209796906
1772525741979765800,5.785765869140625,-0.04610910266637802,0.11387154459953308,-0.08580236881971359
1772525741989749800,5.795749755859375,-0.04636769741773605,0.11715549230575562,-0.08415733277797699
1772525741999732700,5.805732666015625,-0.051189348101615906,0.09875518083572388,-0.07012113928794861
1772525742009716700,5.815716796875,-0.05207911133766174,0.05766473338007927,-0.05031254515051842
1772525742019700700,5.82570068359375,-0.046367347240448,0.034688886255025864,-0.02201581373810768
1772525742029683700,5.83568359375,-0.03182009607553482,0.030780695378780365,0.005234981887042522
1772525742039668000,5.84566796875,-0.012523727491497993,0.027043472975492477,0.022884836420416832
1772525742049652000,5.85565185546875,0.0029614893719553947,0.02086147665977478,0.031509216874837875
1772525742059635700,5.8656357421875,0.005977361463010311,0.015958677977323532,0.035150062292814255
1772525742069618700,5.87561865234375,0.0059629809111356735,0.006413375958800316,0.035878170281648636
1772525742079602700,5.885602783203125,0.008048223331570625,0.003432695521041751,0.04104331135749817
1772525742089587200,5.895587158203125,0.0034537375904619694,0.004050549119710922,0.05132897198200226
1772525742099570000,5.90556982421875,-0.0003610597923398018,0.005544369108974934,0.05395227670669556
1772525742109554200,5.91555419921875,0.00426644878461957,0.015867579728364944,0.04920199513435364
1772525742119538200,5.9255380859375,0.00786687433719635,0.029493393376469612,0.03835704177618027
1772525742129521200,5.935521240234375,0.014910934492945671,0.03948850557208061,0.024983178824186325
1772525742139505200,5.945505126953125,0.01744937337934971,0.03533491864800453,0.014947609975934029
1772525742149489200,5.9554892578125,0.010812776163220406,0.022618059068918228,0.007472116965800524
1772525742159472000,5.96547216796875,0.0062508792616426945,0.026401102542877197,0.010373594239354134
1772525742169456000,5.9754560546875,0.004658841993659735,0.029404615983366966,0.01601576805114746
1772525742179440000,5.985440185546875,0.000451019499450922,0.033729538321495056,0.02905149757862091
1772525742189423000,5.995423095703125,0.002806851640343666,0.03869819641113281,0.038117166608572006
1772525742199407000,6.005406982421875,0.004908270668238401,0.031514182686805725,0.04236246272921562
1772525742209391000,6.01539111328125,0.007079812232404947,0.02209698036313057,0.04080478101968765
1772525742219374000,6.0253740234375,0.009369163773953915,0.009737799875438213,0.030161961913108826
1772525742229358000,6.035358154296875,0.005067093297839165,0.002029812429100275,0.0206222515553236
1772525742239342300,6.04534228515625,-0.0048894863575696945,0.0007414312567561865,0.007331831846386194
1772525742249325000,6.055324951171875,-0.011335134506225586,0.009097898378968239,-0.0023524868302047253
1772525742259309000,6.06530908203125,-0.012378836050629616,0.02261398173868656,-0.010165860876441002
1772525742269293000,6.07529296875,-0.011951131746172905,0.02146402932703495,-0.015368612483143806
1772525742279276000,6.085276123046875,-0.011626138351857662,0.007811452262103558,-0.021067798137664795
1772525742289260000,6.095260009765625,-0.01681291125714779,-0.0026108284946531057,-0.028479907661676407
1772525742299244300,6.105244384765625,-0.016894664615392685,-0.007512560114264488,-0.03646233677864075
1772525742309227300,6.115227294921875,-0.017082417383790016,-0.01405328232795,-0.03860431909561157
1772525742319211000,6.1252109375,-0.014275001361966133,-0.02255208045244217,-0.030335450544953346
1772525742329195000,6.135195068359375,-0.018093440681695938,-0.014883243478834629,-0.014718405902385712
1772525742339178000,6.145177978515625,-0.022796057164669037,-0.0014309012331068516,-0.002587835304439068
1772525742349162000,6.155161865234375,-0.0197395458817482,0.0030024631414562464,0.004418408498167992
1772525742359146200,6.165146240234375,-0.012452248483896255,0.0024099370930343866,0.002282596193253994
1772525742369129200,6.175129150390625,-0.009724905714392662,0.0035013004671782255,-0.006918891333043575
1772525742379113200,6.18511328125,-0.005969320423901081,-0.00014065392315387726,-0.02210516482591629
1772525742389097200,6.19509716796875,-0.00369977462105453,-0.0017579919658601284,-0.0309511199593544
1772525742399080000,6.205079833984375,-0.0013423506170511246,-0.0026093909982591867,-0.03731973469257355
1772525742409064000,6.21506396484375,-0.004575162194669247,-0.005093587562441826,-0.03606192395091057
1772525742419048200,6.225048095703125,-0.011198692955076694,-0.0032132433261722326,-0.03349684551358223
1772525742429031200,6.23503125,-0.002293082419782877,0.0022126808762550354,-0.028187567368149757
1772525742439015200,6.24501513671875,0.003902867902070284,0.013696610927581787,-0.014057016000151634
1772525742448999200,6.254999267578125,0.005863487254828215,0.03105269744992256,-0.00031617097556591034
1772525742458982100,6.264982177734375,0.005051195155829191,0.036688584834337234,0.012793675065040588
1772525742468966000,6.2749658203125,0.009911729022860527,0.033812638372182846,0.02051391452550888
1772525742478950100,6.2849501953125,0.010563308373093605,0.01953755132853985,0.022218892350792885
1772525742488933000,6.29493310546875,0.01498708501458168,0.005028915591537952,0.020358674228191376
1772525742498917000,6.304917236328125,0.021123917773365974,-0.001032619271427393,0.01847025752067566
1772525742508901000,6.314901123046875,0.022069871425628662,0.005616229027509689,0.01890488527715206
1772525742518885000,6.324885009765625,0.023474939167499542,0.031750474125146866,0.01776726357638836
1772525742528868000,6.3348681640625,0.02249090000987053,0.038481611758470535,0.010418803431093693
1772525742538852000,6.34485205078125,0.023427555337548256,0.028949955478310585,0.0019773636013269424
1772525742548836400,6.35483642578125,0.026374341920018196,0.01851329579949379,-0.00599507475271821
1772525742558819000,6.364819091796875,0.02168264053761959,0.007092426531016827,-0.010858261026442051
1772525742568803000,6.374802978515625,0.01427665539085865,-0.004857710562646389,-0.01960674673318863
1772525742578787000,6.384787109375,0.009992345236241817,-0.011229092255234718,-0.02572600729763508
1772525742588770000,6.39477001953125,0.010812600143253803,-0.01518228929489851,-0.02688528411090374
1772525742598754000,6.404754150390625,0.012782805599272251,-0.02513531967997551,-0.025513755157589912
1772525742608738300,6.41473828125,0.006468451581895351,-0.023181091994047165,-0.03115166537463665
1772525742618721000,6.424720947265625,0.0003771660849452019,-0.025484826415777206,-0.03686611354351044
1772525742628705000,6.434705078125,-0.0021632234565913677,-0.013962659984827042,-0.04325583577156067
1772525742638689000,6.44468896484375,-0.000015725381672382355,-0.002604858484119177,-0.03832011669874191
1772525742648672000,6.454672119140625,-0.006208107341080904,0.006805420853197575,-0.03042677417397499
1772525742658656000,6.464656005859375,-0.011909235268831253,0.008194774389266968,-0.02306549996137619
1772525742668640300,6.47464013671875,-0.014258941635489464,-0.004488796927034855,-0.018447313457727432
1772525742678623200,6.484623291015625,-0.0056097861379384995,-0.015994463115930557,-0.017975473776459694
1772525742688607200,6.494607177734375,0.00018924754112958908,-0.017849620431661606,-0.01637997478246689
1772525742698591200,6.50459130859375,-0.004142288118600845,-0.004295081831514835,-0.017397930845618248
1772525742708574000,6.514573974609375,-0.012092355638742447,-0.002501443028450012,-0.020107697695493698
1772525742718558000,6.524557861328125,-0.028285371139645576,-0.005118568427860737,-0.022474920377135277
1772525742728542200,6.534542236328125,-0.037538789212703705,0.0032304415944963694,-0.028358908370137215
1772525742738525200,6.544525146484375,-0.0384780615568161,0.011511516757309437,-0.03722932189702988
1772525742748509200,6.55450927734375,-0.03149072825908661,0.023375898599624634,-0.03593156486749649
1772525742758493200,6.5644931640625,-0.023828282952308655,0.03463743254542351,-0.0198325514793396
1772525742768476000,6.574475830078125,-0.022279657423496246,0.024093978106975555,-0.0013938900083303452
1772525742778460000,6.5844599609375,-0.024593403562903404,0.00571026373654604,0.01651359349489212
1772525742788444200,6.594444091796875,-0.015934934839606285,-0.009952585212886333,0.02685970813035965
1772525742798427100,6.60442724609375,-0.012446120381355286,-0.026889454573392868,0.026679078117012978
1772525742808411100,6.6144111328125,-0.003805228043347597,-0.03382006287574768,0.018424611538648605
1772525742818395100,6.62439501953125,-0.00503721134737134,-0.012488225474953651,0.0067800781689584255
1772525742828378000,6.634378173828125,-0.008695063181221485,0.015012906864285469,-0.006418813951313496
1772525742838362000,6.644362060546875,-0.018122907727956772,0.022040357813239098,-0.01294144056737423
1772525742848346000,6.65434619140625,-0.017254717648029327,0.024008166044950485,-0.01565546728670597
1772525742858329000,6.6643291015625,-0.017444612458348274,0.02783362939953804,-0.01905578002333641
1772525742868313000,6.67431298828125,-0.0116391871124506,0.024929452687501907,-0.022317618131637573
1772525742878297000,6.684297119140625,-0.004003020003437996,0.013069277629256248,-0.02095070481300354
1772525742888280000,6.694280029296875,-0.002245333744212985,0.013229066506028175,-0.02492813766002655
1772525742898264000,6.70426416015625,-0.0010984702967107296,0.012250633910298347,-0.026660896837711334
1772525742908248000,6.714248046875,0.006384746171534061,0.007393027655780315,-0.0260920450091362
1772525742918232300,6.724232421875,0.014134444296360016,0.02027897536754608,-0.020674342289566994
1772525742928215000,6.734215087890625,0.01903306320309639,0.031004058197140694,-0.01938244327902794
1772525742938199000,6.744198974609375,0.018212275579571724,0.02838999219238758,-0.018689021468162537
1772525742948183000,6.75418310546875,0.01831880211830139,0.01634451374411583,-0.016267139464616776
1772525742958166000,6.764166015625,0.02029133029282093,0.000696804840117693,-0.009680274873971939
1772525742968150000,6.77414990234375,0.02352920174598694,-0.012864811345934868,-0.005839996971189976
1772525742978134300,6.78413427734375,0.028826843947172165,-0.035408876836299896,0.0010621757246553898
1772525742988117200,6.7941171875,0.03150278702378273,-0.04259035736322403,0.0040166862308979034
1772525742998101200,6.804101318359375,0.03408515825867653,-0.03855444863438606,0.00850740447640419
1772525743008085000,6.8140849609375,0.03621808439493179,-0.0319836288690567,0.006528409663587809
1772525743018068000,6.82406787109375,0.03446172922849655,-0.03787906840443611,0.007277023978531361
1772525743028052000,6.834052001953125,0.03254318982362747,-0.04829229786992073,0.007646138314157724
1772525743038036200,6.8440361328125,0.022929266095161438,-0.059731341898441315,0.015478004701435566
1772525743048019200,6.854019287109375,0.01476135104894638,-0.055699050426483154,0.0241473950445652
1772525743058003200,6.864003173828125,0.007026834413409233,-0.044941019266843796,0.028157077729701996
1772525743067987200,6.8739873046875,0.007072107866406441,-0.018094221130013466,0.03534175455570221
1772525743077970000,6.883969970703125,0.006169722881168127,0.003831037785857916,0.04004473611712456
1772525743087954000,6.893953857421875,0.004073015879839659,0.017384929582476616,0.04130201414227486
1772525743097938000,6.90393798828125,0.0018928633071482182,0.022023502737283707,0.027218442410230637
1772525743107921000,6.9139208984375,0.001730410847812891,0.015199153684079647,0.008171780966222286
1772525743117905000,6.92390478515625,-0.000060747843235731125,-0.005244296509772539,-0.00864730030298233
1772525743127889000,6.933888916015625,-0.0012634312734007835,-0.03297552838921547,-0.018780095502734184
1772525743137872000,6.943871826171875,-0.012755580246448517,-0.03184426203370094,-0.022539332509040833
1772525743147856000,6.95385595703125,-0.01644432544708252,-0.013983507640659809,-0.019436750560998917
1772525743157840100,6.963840087890625,-0.017331786453723907,0.008849259465932846,-0.0024419589899480343
1772525743167822800,6.97382275390625,-0.02155262976884842,0.03282703086733818,0.016113614663481712
1772525743177806800,6.983806884765625,-0.02694295346736908,0.04478610306978226,0.023827750235795975
1772525743187790800,6.993790771484375,-0.023300018161535263,0.032495878636837006,0.018188506364822388
1772525743197773800,7.00377392578125,-0.012978043407201767,0.008096465840935707,0.012732062488794327
1772525743207757800,7.0137578125,-0.003186932299286127,-0.011348072439432144,0.016319073736667633
1772525743217742000,7.0237421875,-0.0004594232887029648,-0.02159504033625126,0.025637436658143997
1772525743227724800,7.033724853515625,0.0005432572215795517,-0.01918434537947178,0.04744153842329979
1772525743237708800,7.043708740234375,-0.001419226173311472,0.000010653166100382805,0.06515289098024368
1772525743247692800,7.05369287109375,0.00312119722366333,0.019005650654435158,0.07491976767778397
1772525743257675800,7.06367578125,0.010099138133227825,0.03303610533475876,0.07475026696920395
1772525743267659800,7.07365966796875,0.014903214760124683,0.043677035719156265,0.060704223811626434
1772525743277644000,7.08364404296875,0.015769008547067642,0.04461686313152313,0.0377965085208416
1772525743287628000,7.0936279296875,0.01575276255607605,0.03249788284301758,0.01699269376695156
1772525743297611000,7.103611083984375,0.02237248793244362,0.02171720191836357,0.0017680949531495571
1772525743307595000,7.113594970703125,0.027903873473405838,0.016949612647294998,-0.006076779216527939
1772525743317577700,7.12357763671875,0.029440876096487045,0.018573012202978134,-0.004424181301146746
1772525743327561700,7.133561767578125,0.03165210038423538,0.016347408294677734,-0.008636504411697388
1772525743337546000,7.1435458984375,0.03645946457982063,0.02271283231675625,-0.0078022959642112255
1772525743347530000,7.153530029296875,0.03421415388584137,0.01869945041835308,-0.0143363606184721
1772525743357513000,7.163512939453125,0.03420492261648178,0.0031778670381754637,-0.018079720437526703
1772525743367497000,7.1734970703125,0.029429875314235687,-0.008303819224238396,-0.014476998709142208
1772525743377481000,7.18348095703125,0.014948120340704918,-0.012595485895872116,-0.018438568338751793
1772525743387464000,7.1934638671875,0.0018720007501542568,-0.023726966232061386,-0.02617451921105385
1772525743397448000,7.203447998046875,-0.015675224363803864,-0.025795385241508484,-0.0384397953748703
1772525743407432000,7.213431884765625,-0.028564656153321266,-0.03400911018252373,-0.05077662318944931
1772525743417415000,7.223414794921875,-0.03650218993425369,-0.023921534419059753,-0.061517417430877686
1772525743427399000,7.23339892578125,-0.040419433265924454,-0.0035744518972933292,-0.07094394415616989
1772525743437383000,7.2433828125,-0.033970579504966736,0.009250791743397713,-0.06852374225854874
1772525743447366000,7.253365966796875,-0.02853107452392578,-0.004966759588569403,-0.057974692434072495
1772525743457350000,7.263349853515625,-0.025736192241311073,-0.03809365630149841,-0.04349864646792412
1772525743467334000,7.273333984375,-0.027178293094038963,-0.05212904512882233,-0.031681668013334274
1772525743477316900,7.28331689453125,-0.023239918053150177,-0.045842722058296204,-0.025749634951353073
1772525743487300900,7.29330078125,-0.019990062341094017,-0.03275648131966591,-0.02795739844441414
1772525743497284900,7.303284912109375,-0.02643899992108345,-0.021421734243631363,-0.029224637895822525
1772525743507267800,7.313267822265625,-0.04297776147723198,-0.0027487147599458694,-0.027122072875499725
1772525743517252000,7.323252197265625,-0.06659431010484695,0.007359330542385578,-0.022005103528499603
1772525743527236000,7.333236083984375,-0.08078363537788391,0.005302571225911379,-0.013034777715802193
1772525743537218800,7.34321875,-0.0702284649014473,0.006077734753489494,0.012629179283976555
1772525743547202800,7.353202880859375,-0.05449051409959793,0.018497120589017868,0.043199069797992706
1772525743557186800,7.363186767578125,-0.04041242226958275,0.03198126330971718,0.07385076582431793
1772525743567169800,7.373169677734375,-0.030504664406180382,0.044774558395147324,0.08715751767158508
1772525743577154000,7.383154052734375,-0.021868638694286346,0.04903025180101395,0.0888308510184288
1772525743587138000,7.393137939453125,-0.013655982911586761,0.0504734180867672,0.08089037239551544
1772525743597121000,7.40312109375,-0.007628102786839008,0.05008063465356827,0.060861654579639435
1772525743607105000,7.41310498046875,-0.005029922816902399,0.04435510188341141,0.0474233441054821
1772525743617088800,7.4230888671875,-0.0018635252490639687,0.03707675635814667,0.03535493090748787
1772525743627071700,7.43307177734375,-0.0035405175294727087,0.032788265496492386,0.03143049776554108
1772525743637056000,7.443055908203125,-0.0031882666517049074,0.035205941647291183,0.022012582048773766
1772525743647040000,7.4530400390625,0.00267201941460371,0.042189281433820724,0.009754317812621593
1772525743657023000,7.46302294921875,0.006709635257720947,0.03956243023276329,-0.004054769407957792
1772525743667007000,7.473007080078125,0.011781624518334866,0.04053208604454994,-0.01627575047314167
1772525743676991000,7.482990966796875,0.016553297638893127,0.02834567427635193,-0.019996274262666702
1772525743686973700,7.4929736328125,0.013433403335511684,0.0042581818997859955,-0.01673176884651184
1772525743696958000,7.5029580078125,0.012589186429977417,-0.0037898097652941942,-0.009371460415422916
1772525743706942000,7.51294189453125,0.011846696957945824,-0.0037400086876004934,-0.0020576221868395805
1772525743716925000,7.522925048828125,0.014691334217786789,-0.014739024452865124,-0.0037609697319567204
1772525743726909000,7.532908935546875,0.016954222694039345,-0.01764773018658161,-0.006365540903061628
1772525743736893000,7.542892822265625,0.00829679612070322,-0.017362141981720924,-0.009737271815538406
1772525743746877000,7.552876953125,-0.0005994932726025581,-0.016407132148742676,-0.024167612195014954
1772525743756860000,7.56285986328125,-0.00815434567630291,-0.02086428925395012,-0.04085038602352142
1772525743766844000,7.572843994140625,-0.007045405451208353,-0.028546709567308426,-0.05326950550079346
1772525743776828000,7.582827880859375,0.003560724202543497,-0.018736395984888077,-0.05192563310265541
1772525743786811000,7.592810791015625,0.00433091027662158,-0.0076698968186974525,-0.04396837577223778
1772525743796795000,7.602794921875,0.0042411647737026215,-0.0042819129303097725,-0.029671132564544678
1772525743806779000,7.61277880859375,0.006343198008835316,0.006931859068572521,-0.013062060810625553
1772525743816761900,7.622761962890625,0.006030169781297445,0.013276297599077225,0.003883471479639411
1772525743826746000,7.63274609375,0.0058160522021353245,0.011947114020586014,0.013593357056379318
1772525743836730000,7.642730224609375,0.00610404834151268,0.009138730354607105,0.014485207386314869
1772525743846712800,7.652712890625,0.014964119531214237,0.007175447419285774,0.010058501735329628
1772525743856696800,7.66269677734375,0.019936494529247284,0.0032077927608042955,0.006605129688978195
1772525743866680800,7.672680908203125,0.015388080850243568,-0.001559531781822443,0.0022404752671718597
1772525743876663800,7.682663818359375,0.010820580646395683,0.005716343410313129,-0.011099851690232754
1772525743886648000,7.69264794921875,0.011656546965241432,0.013739116489887238,-0.023371431976556778
1772525743896632000,7.702632080078125,0.01013561524450779,0.034432943910360336,-0.029684722423553467
1772525743906615000,7.712614990234375,-0.0028174666222184896,0.05026357248425484,-0.02892012894153595
1772525743916598800,7.722598876953125,-0.01477745734155178,0.039413854479789734,-0.014286058954894543
1772525743926582800,7.732582763671875,-0.024291865527629852,0.028962545096874237,0.008200341835618019
1772525743936565800,7.742565673828125,-0.028720509260892868,0.012669815681874752,0.03167271614074707
1772525743946550000,7.752550048828125,-0.035566434264183044,0.0003564239013940096,0.05225495621562004
1772525743956534000,7.762533935546875,-0.03153584152460098,-0.011799772270023823,0.06655370444059372
1772525743966517000,7.77251708984375,-0.017965169623494148,-0.018327711150050163,0.06598059087991714
1772525743976501000,7.7825009765625,-0.006230638362467289,-0.015211617574095726,0.05566265434026718
1772525743986485000,7.792485107421875,-0.0018462762236595154,-0.002995964838191867,0.03644635155797005
1772525743996467700,7.8024677734375,-0.004402316641062498,0.014754139818251133,0.013482656329870224
1772525744006452000,7.812451904296875,-0.010727323591709137,0.018478570505976677,-0.0009434204548597336
1772525744016436000,7.82243603515625,-0.028724607080221176,-0.0007910628337413073,-0.00008657341822981834
1772525744026419000,7.8324189453125,-0.059591446071863174,-0.015297035686671734,0.011273672804236412
1772525744036403000,7.84240283203125,-0.08544734865427017,-0.01502667460590601,0.011334666982293129
1772525744046387000,7.852386962890625,-0.08761116862297058,-0.03270340710878372,-0.0036770389415323734
1772525744056370000,7.862369873046875,-0.08182316273450851,-0.050560444593429565,-0.01938372477889061
1772525744066354000,7.87235400390625,-0.07350477576255798,-0.06467413902282715,-0.04102563485503197
1772525744076338000,7.882337890625,-0.06018834188580513,-0.06678609549999237,-0.06958267837762833
1772525744086321000,7.89232080078125,-0.050706423819065094,-0.05833801254630089,-0.08525990694761276
1772525744096304600,7.9023046875,-0.03812023997306824,-0.047580406069755554,-0.09343143552541733
1772525744106288600,7.91228857421875,-0.03435692563652992,0.011248555034399033,-0.08632931858301163
1772525744116271600,7.922271728515625,-0.03014967031776905,0.06900577992200851,-0.061661917716264725
1772525744126255900,7.932255859375,-0.04259728267788887,0.08740049600601196,-0.02341173216700554
1772525744136239900,7.942239990234375,-0.06142778694629669,0.07455462217330933,0.011269303038716316
1772525744146223900,7.952223876953125,-0.06839221715927124,0.048013024032115936,0.037201568484306335
1772525744156206800,7.962206787109375,-0.05009346082806587,0.01601432077586651,0.04234515503048897
1772525744166190600,7.972190673828125,-0.03094586730003357,-0.01875031739473343,0.03797810152173042
1772525744176174600,7.982174560546875,-0.008614908903837204,-0.031625956296920776,0.028402885422110558
1772525744186157800,7.99215771484375,0.005315820220857859,-0.010089238174259663,0.009766084142029285
1772525744196141800,8.002141845703125,0.012954924255609512,0.03179556131362915,-0.012659752741456032
1772525744206124800,8.012124755859375,0.011355696246027946,0.0628160610795021,-0.027315393090248108
1772525744216107800,8.022107666015625,0.004512260667979717,0.07710634171962738,-0.032186537981033325
1772525744226091800,8.032091796875,-0.008874384686350822,0.07340188324451447,-0.02408706583082676
1772525744236075500,8.042075439453125,-0.01978207193315029,0.04894992709159851,-0.011611244641244411
1772525744246058800,8.052058837890625,-0.021303270012140274,0.019479386508464813,0.009377926588058472
1772525744256042800,8.062042724609375,-0.02412889525294304,0.001382438582368195,0.025207888334989548
1772525744266026800,8.07202685546875,-0.02533796988427639,-0.001076191896572709,0.03815484791994095
1772525744276009700,8.082009765625,-0.018715394660830498,0.012140912935137749,0.03739815577864647
1772525744285993700,8.09199365234375,-0.010297941043972969,0.022934971377253532,0.0286848247051239
1772525744295977700,8.101977783203125,-0.0033430035691708326,0.02419724315404892,0.018757736310362816
1772525744305960700,8.111960693359375,0.0007313666865229607,0.01805226504802704,0.010916058905422688
1772525744315944700,8.12194482421875,-0.005312408786267042,0.017922740429639816,-0.0011453316546976566
1772525744325928700,8.1319287109375,-0.008989435620605946,0.021123329177498817,-0.0046708243899047375
1772525744335911700,8.14191162109375,-0.01636621356010437,0.014796337112784386,-0.011900484561920166
1772525744345895700,8.151895751953125,-0.020649908110499382,-0.002044960856437683,-0.018706459552049637
1772525744355879700,8.161879638671875,-0.02006063237786293,-0.010803336277604103,-0.026998860761523247
1772525744365863000,8.17186279296875,-0.01371751632541418,-0.026950880885124207,-0.025788454338908195
1772525744375846700,8.1818466796875,-0.008832026273012161,-0.031954552978277206,-0.01746373251080513
1772525744385830700,8.19183056640625,-0.011089321225881577,-0.01260535791516304,-0.009246283210814
1772525744395813600,8.201813720703125,-0.013416323810815811,0.00428366893902421,-0.0033947909250855446
1772525744405797600,8.211797607421875,-0.01349621918052435,0.014123516157269478,0.009216075763106346
1772525744415781600,8.22178173828125,-0.02399100363254547,0.02050137333571911,0.019731368869543076
1772525744425764900,8.231764892578125,-0.028460051864385605,0.01217047218233347,0.017980605363845825
1772525744435748900,8.241748779296875,-0.027161510661244392,-0.0004998601507395506,0.01108936034142971
1772525744445732900,8.25173291015625,-0.023209111765027046,-0.0013880240730941296,0.004001091234385967
1772525744455715600,8.261715576171875,-0.01485530473291874,0.003775661811232567,-0.00838993676006794
1772525744465699600,8.271699462890625,-0.0033243491780012846,0.007415670435875654,-0.020562179386615753
1772525744475683600,8.28168359375,0.005506055895239115,0.010801076889038086,-0.026517443358898163
1772525744485666800,8.291666748046875,0.00834924541413784,0.01094062626361847,-0.022015370428562164
1772525744495650800,8.30165087890625,0.0037598228082060814,0.015422366559505463,-0.018161442130804062
1772525744505634800,8.311634765625,-0.0013973885215818882,0.001189368311315775,-0.018356919288635254
1772525744515617800,8.32161767578125,-0.0015005385503172874,-0.01198789943009615,-0.011322624050080776
1772525744525601500,8.3316015625,0.0016563725657761097,-0.013389521278440952,-0.011331678368151188
1772525744535585500,8.34158544921875,0.0037671965546905994,-0.017519645392894745,-0.008219975046813488
1772525744545569500,8.351569580078126,-0.00261640059761703,-0.010662270709872246,-0.014299440197646618
1772525744555552800,8.361552734375,-0.004541067406535149,-0.0062566036358475685,-0.020874250680208206
1772525744565536800,8.371536865234376,-0.003021733835339546,0.002206922508776188,-0.02955881878733635
1772525744575520800,8.381520751953126,-0.003079528920352459,0.014785750769078732,-0.036651745438575745
1772525744585503700,8.391503662109375,-0.006351488642394543,0.014083475805819035,-0.04274878650903702
1772525744595487700,8.40148779296875,-0.0071935649029910564,-0.0030017883982509375,-0.04800548031926155
1772525744605471700,8.4114716796875,-0.0030262505169957876,-0.010232270695269108,-0.04391086846590042
1772525744615454700,8.421454833984376,-0.0036775749176740646,-0.006498042494058609,-0.03675557300448418
1772525744625438700,8.431438720703126,-0.003712462494149804,-0.0022439092863351107,-0.02665633335709572
1772525744635422700,8.441422607421876,-0.0013767792843282223,0.004422543570399284,-0.019474545493721962
1772525744645405700,8.45140576171875,-0.00353074399754405,0.008093178272247314,-0.014978064224123955
1772525744655389700,8.4613896484375,-0.0021100505255162716,0.0009347700979560614,-0.016076188534498215
1772525744665373700,8.471373779296876,-0.0020983321592211723,-0.00597213814035058,-0.022514114156365395
1772525744675356700,8.481356689453126,0.002929813228547573,-0.005550545174628496,-0.023426804691553116
1772525744685340700,8.491340576171876,0.002429671585559845,0.008224123157560825,-0.027680937200784683
1772525744695324700,8.50132470703125,0.010575395077466965,0.01460706815123558,-0.026816722005605698
1772525744705307600,8.5113076171875,0.002937448676675558,0.014597480185329914,-0.012466809712350368
1772525744715291600,8.521291748046876,-0.010278038680553436,0.02528897300362587,0.0004589906893670559
1772525744725275600,8.531275634765626,-0.014651481062173843,0.026955045759677887,0.01819298043847084
1772525744735259000,8.5412587890625,-0.01776028983294964,0.020133165642619133,0.03317269682884216
1772525744745243000,8.551242919921876,-0.01915525458753109,0.006049570627510548,0.042015720158815384
1772525744755227000,8.561226806640626,-0.01587272807955742,-0.008101880550384521,0.032965853810310364
1772525744765209600,8.571209716796876,-0.0021129725500941277,-0.019070642068982124,0.019862834364175797
1772525744775193600,8.581193603515626,0.0073748985305428505,-0.015488755889236927,0.003036558162420988
1772525744785177600,8.591177490234376,0.0122500816360116,-0.007410855032503605,-0.010008669458329678
1772525744795160800,8.601160888671876,0.0033132261596620083,0.00584721565246582,-0.022376038134098053
1772525744805144800,8.611144775390626,-0.010929891839623451,0.016357647255063057,-0.023961152881383896
1772525744815128800,8.62112890625,-0.02726919949054718,0.01107182726264,-0.01935933344066143
1772525744825111600,8.631111572265626,-0.038980450481176376,0.0035060520749539137,-0.016561148688197136
1772525744835095600,8.641095458984376,-0.04415213316679001,-0.0031416628044098616,-0.018324539065361023
1772525744845079600,8.65107958984375,-0.034508295357227325,-0.011765510775148869,-0.020617254078388214
1772525744855062800,8.661062744140626,-0.013911938294768333,-0.017903124913573265,-0.02103983238339424
1772525744865046800,8.671046875,-0.0024592806585133076,-0.012567483820021152,-0.017744969576597214
1772525744875030800,8.68103076171875,0.00444800453260541,-0.007505256216973066,-0.016403507441282272
1772525744885013800,8.691013671875,0.012128561735153198,0.001963080372661352,-0.0057093179784715176
1772525744894997800,8.700997802734374,0.005660607013851404,0.014265436679124832,0.007446093950420618
1772525744904981800,8.710981689453124,-0.001956832129508257,0.019948890432715416,0.019917145371437073
1772525744914964700,8.72096484375,-0.009736359119415283,0.016140755265951157,0.03286174684762955
1772525744924948700,8.73094873046875,-0.019867023453116417,0.006708371452987194,0.03720163181424141
1772525744934932700,8.7409326171875,-0.022148016840219498,0.002779492409899831,0.0392228364944458
1772525744944915700,8.750915771484374,-0.015193969942629337,0.007065051235258579,0.03898901119828224
1772525744954899700,8.760899658203124,-0.0025659683160483837,0.006957221310585737,0.035978347063064575
1772525744964883700,8.7708837890625,0.006055483128875494,0.014342432841658592,0.03373463451862335
1772525744974866700,8.78086669921875,0.008667755872011185,0.013050305657088757,0.026259616017341614
1772525744984850700,8.7908505859375,0.006820321083068848,0.004339105449616909,0.019162293523550034
1772525744994834700,8.800834716796874,0.0021605025976896286,-0.003511575749143958,0.010792067274451256
1772525745004818700,8.810818603515624,-0.0047296276316046715,-0.009370263665914536,-0.0006733741611242294
1772525745014801700,8.8208017578125,-0.011050533503293991,-0.0085056247189641,-0.014094406738877296
1772525745024785700,8.83078564453125,-0.012171723879873753,-0.01211607176810503,-0.029894676059484482
1772525745034769700,8.840769775390624,-0.002345125423744321,-0.0053339069709181786,-0.0369955413043499
1772525745044753000,8.8507529296875,0.0015287087298929691,0.00575762614607811,-0.03369881212711334
1772525745054737000,8.86073681640625,0.00035889074206352234,0.007547349669039249,-0.02854928933084011
1772525745064720600,8.870720703125,0.0002158787101507187,0.005802180152386427,-0.019977105781435966
1772525745074703600,8.88070361328125,0.00048103416338562965,-0.0019341462757438421,-0.01610104739665985
1772525745084687600,8.8906875,0.0013023526407778263,-0.018659064546227455,-0.012167025357484818
1772525745094672100,8.900672119140625,0.0006432230584323406,-0.03692790865898132,-0.013592816889286041
1772525745104655400,8.9106552734375,0.0003068661317229271,-0.04393788054585457,-0.015131058171391487
1772525745114639400,8.920639404296875,0.008470251224935055,-0.035807691514492035,-0.012017622590065002
1772525745124623400,8.930623291015625,0.015225625596940517,-0.019967209547758102,-0.017556464299559593
1772525745134606300,8.9406064453125,0.02274799719452858,-0.011988029815256596,-0.02853628247976303
1772525745144590000,8.950590087890625,0.025285452604293823,-0.009643382392823696,-0.04141932353377342
1772525745154574000,8.960573974609375,0.025783367455005646,-0.017342504113912582,-0.05080833286046982
1772525745164557300,8.970557373046875,0.015208751894533634,-0.03009531833231449,-0.05220010131597519
1772525745174541300,8.980541259765625,0.006545763462781906,-0.04582023248076439,-0.0501713789999485
1772525745184525300,8.990525390625,0.0016902880743145943,-0.03805871307849884,-0.033708248287439346
1772525745194508300,9.00050830078125,0.0024057882837951183,-0.016429346054792404,-0.011708450503647327
1772525745204492300,9.0104921875,0.006271100137382746,0.013622828759253025,0.013937258161604404
1772525745214476300,9.020476318359375,0.009934278205037117,0.04184860736131668,0.031051795929670334
1772525745224459300,9.030459228515625,0.017821496352553368,0.043741580098867416,0.037799715995788574
1772525745234443300,9.040443359375,0.026457056403160095,0.023145241662859917,0.038037337362766266
1772525745244427300,9.05042724609375,0.03015485405921936,-0.0068547362461686134,0.03597578406333923
1772525745254410200,9.06041015625,0.03340055048465729,-0.022113488987088203,0.042199429124593735
1772525745264394200,9.070394287109375,0.030538184568285942,-0.025568673387169838,0.0540212020277977
1772525745274378200,9.080378173828125,0.024631844833493233,-0.01591312512755394,0.069406658411026
1772525745284361200,9.090361328125,0.018328676000237465,0.012769652530550957,0.07812798023223877
1772525745294345200,9.10034521484375,0.013203935697674751,0.020549912005662918,0.07593921571969986
1772525745304329200,9.1103291015625,0.013017512857913971,0.019133644178509712,0.059256911277770996
1772525745314312200,9.120312255859375,0.01023938786238432,0.02637525461614132,0.04222271591424942
1772525745324296200,9.130296142578125,0.011544072069227695,0.02530759386718273,0.018118975684046745
1772525745334280200,9.1402802734375,0.01182637270539999,0.020976845175027847,-0.006531113758683205
1772525745344263400,9.150263427734375,0.01865711435675621,0.027939677238464355,-0.0276784785091877
1772525745354247400,9.160247314453125,0.01478912029415369,0.02483837492763996,-0.04048055410385132
1772525745364231400,9.1702314453125,0.013332637958228588,0.01129726693034172,-0.048282284289598465
1772525745374214100,9.180214111328125,0.009603257291018963,-0.005934195592999458,-0.049890730530023575
1772525745384198100,9.1901982421875,0.003866809420287609,-0.0016574247274547815,-0.04813411086797714
1772525745394182100,9.20018212890625,-0.009756788611412048,-0.004381243139505386,-0.05125641077756882
1772525745404165400,9.210165283203125,-0.014453273266553879,-0.017355099320411682,-0.051970936357975006
1772525745414149400,9.2201494140625,-0.016110379248857498,-0.016166385263204575,-0.0520782396197319
1772525745424133400,9.23013330078125,-0.013422185555100441,-0.0030947912018746138,-0.046544190496206284
1772525745434116000,9.2401162109375,-0.02007129043340683,-0.00960153341293335,-0.033353291451931
1772525745444100000,9.25010009765625,-0.03193167969584465,-0.026793569326400757,-0.02409454435110092
1772525745454084000,9.260083984375,-0.03750433772802353,-0.04756348207592964,-0.022095447406172752
1772525745464067300,9.2700673828125,-0.038270529359579086,-0.05334334075450897,-0.02454022876918316
1772525745474051300,9.28005126953125,-0.03214472159743309,-0.0635591447353363,-0.02562800608575344
1772525745484035300,9.290035400390625,-0.03270425274968147,-0.058083947747945786,-0.028313802555203438
1772525745494018300,9.300018310546875,-0.03006116859614849,-0.03205182030797005,-0.0280148945748806
1772525745504002300,9.310002197265625,-0.032306745648384094,-0.005372007843106985,-0.028996799141168594
1772525745513986300,9.319986328125,-0.03399066627025604,0.017098601907491684,-0.026973463594913483
1772525745523969300,9.32996923828125,-0.03608391061425209,0.025408463552594185,-0.028994273394346237
1772525745533953300,9.339953369140625,-0.03061652183532715,0.016726596280932426,-0.026998210698366165
1772525745543937300,9.349937255859375,-0.029575757682323456,0.01096910797059536,-0.033137064427137375
1772525745553921300,9.35992138671875,-0.020631365478038788,-0.00394477741792798,-0.04573971778154373
1772525745563904300,9.369904296875,-0.007476679980754852,-0.010442357510328293,-0.05008120462298393
1772525745573888300,9.37988818359375,0.0012469645589590073,-0.0048081474378705025,-0.0527699813246727
1772525745583872300,9.389872314453125,-0.0011440212838351727,0.007230139337480068,-0.05117048695683479
1772525745593855200,9.399855224609375,0.004928424954414368,0.020092472434043884,-0.043627724051475525
1772525745603839200,9.409839111328125,0.013226835988461971,0.024315712973475456,-0.02975345216691494
1772525745613823200,9.4198232421875,0.02187776193022728,0.03894264996051788,-0.010658768936991692
1772525745623806200,9.42980615234375,0.019010603427886963,0.04518163576722145,0.0030125686898827553
1772525745633790200,9.439790283203125,0.017349472269415855,0.04112491384148598,0.007767643313854933
1772525745643774200,9.449774169921875,0.022989246994256973,0.03128799423575401,0.0057050250470638275
1772525745653757400,9.45975732421875,0.02471187338232994,0.017215315252542496,0.0032895314507186413
1772525745663741400,9.469741455078125,0.026981953531503677,0.010225050151348114,0.0033198916353285313
1772525745673725200,9.47972509765625,0.02423882856965065,0.006679848302155733,0.005365363787859678
1772525745683708200,9.489708251953125,0.01611378788948059,0.004018285311758518,0.004028723109513521
1772525745693692200,9.499692138671875,0.013423635624349117,0.01076902449131012,-0.0031920806504786015
1772525745703676200,9.50967626953125,0.008934345096349716,0.023572172969579697,-0.02314767986536026
1772525745713659400,9.519659423828125,0.007244829088449478,0.040564220398664474,-0.05070067569613457
1772525745723643400,9.529643310546875,0.003320661373436451,0.06106763333082199,-0.07306244224309921
1772525745733627400,9.53962744140625,-0.009844840504229069,0.037176769226789474,-0.07796335220336914
1772525745743610000,9.549610107421875,-0.024885840713977814,-0.004478263668715954,-0.06342355906963348
1772525745753594000,9.559593994140625,-0.029159147292375565,-0.010686984285712242,-0.04131978377699852
1772525745763578000,9.569578125,-0.028309332206845284,-0.006187040824443102,-0.01682189851999283
1772525745773561300,9.579561279296875,-0.017682967707514763,0.0011477833613753319,0.0003085318021476269
1772525745783545300,9.58954541015625,-0.0074332598596811295,-0.014620793052017689,-0.00549689307808876
1772525745793529300,9.599529296875,0.0027196076698601246,-0.031492963433265686,-0.007169655524194241
1772525745803512300,9.60951220703125,0.0029116212390363216,-0.04229661077260971,-0.01092737540602684
1772525745813496300,9.619496337890626,-0.00017499737441539764,-0.04831507056951523,-0.01303032971918583
1772525745823480000,9.62947998046875,0.006621389649808407,-0.03423227369785309,-0.007475775200873613
1772525745833463300,9.63946337890625,0.011237092316150665,-0.007403174415230751,0.004216322675347328
1772525745843447300,9.649447265625,0.0094639603048563,0.011172373779118061,0.0205292496830225
1772525745853431300,9.659431396484376,0.01438174955546856,0.019230222329497337,0.03609475865960121
1772525745863414300,9.669414306640626,0.02599100023508072,0.014008562080562115,0.04566536471247673
1772525745873398300,9.679398193359376,0.033089395612478256,-0.007546106353402138,0.048809222877025604
1772525745883382300,9.68938232421875,0.04026102274656296,-0.021183621138334274,0.04639160633087158
1772525745893365200,9.699365234375,0.05504901707172394,-0.029903503134846687,0.04982362315058708
1772525745903349200,9.709349365234376,0.05819873511791229,-0.008538292720913887,0.06311918795108795
1772525745913333200,9.719333251953126,0.053703673183918,0.022523168474435806,0.074693463742733
1772525745923316200,9.729316162109376,0.04690675437450409,0.03682328015565872,0.08110368996858597
1772525745933300200,9.73930029296875,0.036312710493803024,0.05025659129023552,0.0755729079246521
1772525745943284200,9.7492841796875,0.03978680446743965,0.052030257880687714,0.06388428807258606
1772525745953267500,9.759267333984376,0.040789127349853516,0.05090424790978432,0.058646075427532196
1772525745963251500,9.76925146484375,0.035313136875629425,0.06186475232243538,0.05224037170410156
1772525745973235200,9.779235107421876,0.03135035187005997,0.07615864276885986,0.0499836765229702
1772525745983218200,9.78921826171875,0.03487105295062065,0.084161177277565,0.046951666474342346
1772525745993202200,9.7992021484375,0.041218601167201996,0.10371223092079163,0.03639305755496025
1772525746003186200,9.809186279296876,0.038149572908878326,0.11441973596811295,0.020750179886817932
1772525746013169400,9.81916943359375,0.03382442519068718,0.10312893241643906,0.000846358947455883
1772525746023153400,9.8291533203125,0.01974562555551529,0.09287283569574356,-0.017229847609996796
1772525746033137400,9.839137451171876,0.013762651942670345,0.07233163714408875,-0.037529412657022476
1772525746043120000,9.8491201171875,0.00798252783715725,0.05679555982351303,-0.05228386074304581
1772525746053104000,9.859104248046876,0.008498737588524818,0.051698826253414154,-0.062457889318466187
1772525746063088000,9.869088134765626,0.020888296887278557,0.04700793698430061,-0.06326083093881607
1772525746073071400,9.8790712890625,0.017701473087072372,0.030562877655029297,-0.05819374695420265
1772525746083055400,9.889055419921876,0.014700090512633324,0.001407920615747571,-0.042266447097063065
1772525746093039400,9.899039306640624,0.023238087072968483,-0.02059929259121418,-0.025768743827939034
1772525746103022000,9.90902197265625,0.031138621270656586,-0.034595537930727005,-0.005205410532653332
1772525746113005800,9.919005859375,0.03119013085961342,-0.03273399919271469,0.019173268228769302
1772525746122989800,9.92898974609375,0.024026760831475258,-0.015342225320637226,0.038737114518880844
1772525746132973000,9.93897314453125,0.0072793602012097836,-0.0032274930272251368,0.0449746698141098
1772525746142957000,9.94895703125,-0.004345337860286236,0.001766200177371502,0.03616253659129143
1772525746152941000,9.958941162109374,-0.016695380210876465,0.007370645180344582,0.025898026302456856
1772525746162924000,9.968924072265626,-0.0348283089697361,0.00856800191104412,0.003924017772078514
1772525746172908000,9.978907958984376,-0.04039165377616882,0.004158074036240578,-0.016365008428692818
1772525746182892000,9.98889208984375,-0.04282525181770325,0.0047647422179579735,-0.03504788130521774
1772525746192876000,9.9988759765625,-0.03897291049361229,0.0029596134554594755,-0.048355717211961746
1772525746202859000,10.00885888671875,-0.029814299196004868,0.026594635099172592,-0.05247216671705246
1772525746212843000,10.018843017578124,-0.021346522495150566,0.06502951681613922,-0.055392272770404816
1772525746222827000,10.028826904296874,-0.025747928768396378,0.10128285735845566,-0.06027890741825104
1772525746232810000,10.03881005859375,-0.034486979246139526,0.11829961091279984,-0.06961829215288162
1772525746242794000,10.0487939453125,-0.03444463387131691,0.1243729516863823,-0.08103792369365692
1772525746252778000,10.058778076171874,-0.0212918259203434,0.13876888155937195,-0.1075417622923851
1772525746262761000,10.068760986328124,-0.00357621256262064,0.17569680511951447,-0.1348668783903122
1772525746272745000,10.078744873046874,0.01471465453505516,0.23585499823093414,-0.17051799595355988
1772525746282729000,10.08872900390625,0.04614288732409477,0.32842329144477844,-0.19169944524765015
1772525746292712000,10.0987119140625,0.016330020502209663,0.349628746509552,-0.12083925306797028
1772525746302696000,10.108696044921874,-0.0455290861427784,0.23607607185840607,0.0033436864614486694
1772525746312680000,10.118679931640624,-0.06687804311513901,0.06940051913261414,0.1050952896475792
1772525746322663200,10.1286630859375,-0.021543055772781372,-0.08547268807888031,0.17897777259349823
1772525746332647200,10.138647216796874,0.009760291315615177,-0.15955378115177155,0.21375703811645508
1772525746342631200,10.148631103515624,0.021805770695209503,-0.14335671067237854,0.18693608045578003
1772525746352614000,10.15861376953125,-0.006521932780742645,-0.07709161192178726,0.10942284017801285
1772525746362598000,10.168597900390624,-0.06936107575893402,-0.0057356758043169975,-0.02843116596341133
1772525746372582000,10.178581787109374,-0.1669439971446991,0.08759170770645142,-0.1839657872915268
1772525746382565000,10.188565185546874,-0.2105652540922165,0.31519824266433716,-0.23870573937892914
