time,seconds_elapsed,z,y,x
1772525996039019800,0.090019775390625,-0.7369967626988887,-0.11291545443162321,-0.9603271599832922
1772525996049002800,0.100002685546875,-0.6539210046052932,-0.02731982247158885,-0.7987017429184168
1772525996058985700,0.10998583984375,-0.41645314170122144,-0.0008979717530310154,-0.6100936263818293
1772525996068969700,0.1199697265625,-0.01911269674897194,-0.024008067575097082,-0.47671727546267206
1772525996078952700,0.12995263671875,0.44714813969433304,-0.09749591311216353,-0.3955676631260663
1772525996088935700,0.139935791015625,0.8227396941751242,-0.24592194912508128,-0.3338113911107182
1772525996098919700,0.149919677734375,1.0524106195926666,-0.42188042744696136,-0.3455829313166439
1772525996108902700,0.159902587890625,1.16525549300611,-0.5824867305971682,-0.4273475337464362
1772525996118885600,0.1698857421875,1.1983102058678865,-0.7111885138340294,-0.5436135407149791
1772525996128870000,0.179869873046875,1.2021820788651705,-0.8208918743513524,-0.6370750106792896
1772525996138852600,0.1898525390625,1.1686141557842493,-0.9070889793358743,-0.6549249940160662
1772525996148835600,0.199835693359375,1.141081421214342,-0.9647114394821226,-0.6516795092888176
1772525996158819600,0.209819580078125,1.0841302844583987,-1.0446545986384153,-0.63914692158252
1772525996168802800,0.219802734375,1.0125783754199742,-1.1222028254821896,-0.6585301058359444
1772525996178785800,0.229785888671875,0.9218874661475419,-1.1790263903357088,-0.6978159681722521
1772525996188769800,0.239769775390625,0.8072925341963767,-1.223557752110064,-0.7589186716496944
1772525996198752800,0.249752685546875,0.6919739641457796,-1.2417490962304174,-0.8390561112690716
1772525996208735700,0.25973583984375,0.5673229176044464,-1.2378534039661289,-0.8948192803494631
1772525996218719700,0.2697197265625,0.4156441634058952,-1.2378655327953398,-0.8496510819762945
1772525996228702700,0.27970263671875,0.20859715772867202,-1.2142676534563301,-0.7430858002889901
1772525996238685700,0.289685791015625,0.04286591278016567,-1.1802857427470386,-0.6172942784756422
1772525996248669700,0.299669677734375,-0.09036883771121501,-1.1339151828467846,-0.47014549585692583
1772525996258652700,0.309652587890625,-0.1979974377810955,-1.0650438911944626,-0.3155956797340885
1772525996268635600,0.3196357421875,-0.3087883012741804,-1.008670700456947,-0.14926782059930263
1772525996278619600,0.32961962890625,-0.4489326850235462,-0.90506419551,-0.03327420083135366
1772525996288602600,0.3396025390625,-0.5550485424429178,-0.7917606185436248,0.04615954749807715
1772525996298585600,0.349585693359375,-0.6588830109268426,-0.7260264558732509,0.09113266169056296
1772525996308569600,0.359569580078125,-0.7151023262768983,-0.6878923939205706,0.12955405268464237
1772525996318552800,0.369552734375,-0.7663093664228916,-0.6895647110469639,0.17574498170167208
1772525996328535800,0.379535888671875,-0.8425877194613218,-0.7263181322962046,0.21527106426833195
1772525996338519800,0.389519775390625,-0.9615846857637167,-0.8637854057908058,0.2494122023936361
1772525996348502800,0.399502685546875,-1.0373358000576496,-1.0290089934781192,0.23582482667108998
1772525996358486000,0.409486083984375,-1.0197831922322511,-1.0777218787208198,0.04992112852130085
1772525996368469800,0.4194697265625,-0.940171895378828,-1.0006319170385598,-0.21222681946791708
1772525996378452700,0.42945263671875,-0.8860732254445552,-0.976482541296631,-0.3445633059453219
1772525996388436000,0.43943603515625,-0.8700327757477759,-1.0463269157648085,-0.3379672321485355
1772525996398420000,0.449419921875,-0.868710587233305,-1.097356261256337,-0.28395607610093426
1772525996408403000,0.45940283203125,-0.8752338515222072,-1.0512249169394374,-0.1962149930774234
1772525996418385700,0.4693857421875,-0.8748620956003665,-0.9522373039647937,-0.0417893695898354
1772525996428369700,0.47936962890625,-0.8710363998323678,-0.8793944783329963,0.1915616143136285
1772525996438353000,0.489352783203125,-0.8398346213608979,-0.8464518475435674,0.46853418820276854
1772525996448336000,0.4993359375,-0.7261632339954376,-0.8181944519609212,0.7054938093237578
1772525996458320000,0.50931982421875,-0.6249614521026611,-0.8129087666429579,0.7917389912337064
1772525996468302800,0.519302734375,-0.5708510917305946,-0.8453126143805683,0.8205448875445872
1772525996478285800,0.529285888671875,-0.5612082341164351,-0.9804445767953991,0.9052933280907571
1772525996488269800,0.539269775390625,-0.5714578254520892,-0.9565425999432802,0.8376178220942616
1772525996498252800,0.549252685546875,-0.5786491982609033,-0.8731653746850788,0.662555415829271
1772525996508236000,0.559236083984375,-0.6002256547749042,-0.7992582808226346,0.4779601881958544
1772525996518220000,0.569219970703125,-0.6610790596663951,-0.7514176483698188,0.3549091607296839
1772525996528202800,0.57920263671875,-0.7237783846855164,-0.668864014454186,0.28732286738660184
1772525996538185700,0.589185791015625,-0.8456172964155674,-0.4794165244840085,0.24999776546293867
1772525996548169700,0.599169677734375,-1.0086468811899423,-0.25708441752195355,0.30695980720538646
1772525996558153000,0.609153076171875,-1.13336397870481,-0.0123980015411973,0.38284583645798265
1772525996568135700,0.6191357421875,-1.186037584272027,0.2618621533177793,0.49250952255204317
1772525996578119700,0.62911962890625,-1.1542489458233118,0.5273511188305914,0.6417863301753998
1772525996588103000,0.63910302734375,-1.0369850869238375,0.7738746871106326,0.8073310395758598
1772525996598086000,0.6490859375,-0.8448077335983514,0.9042208765536546,1.0166663023207336
1772525996608070000,0.65906982421875,-0.5025993932813406,0.9348562533140182,1.2569563099734484
1772525996618052600,0.669052490234375,-0.014154197558760642,0.887879105822742,1.41041098780334
1772525996628035800,0.679035888671875,0.5712485666155814,0.8188404947794974,1.442230752042681
1772525996638019800,0.689019775390625,1.1396300533622503,0.7429688228458166,1.3865830991007386
1772525996648002800,0.6990029296875,1.6495336321771144,0.6569429827749729,1.3235850833959877
1772525996657986000,0.708986083984375,2.0735779596596955,0.4853690031476319,1.345775434024632
1772525996667970000,0.718969970703125,2.4217472542077303,0.24686639036834238,1.444893103119731
1772525996677952800,0.728952880859375,2.7198528334259984,0.08539587160423398,1.4997686026453971
1772525996687935700,0.738935791015625,2.96916369433701,-0.12452464368268847,1.6500260918691754
1772525996697919700,0.748919677734375,3.132256991997361,-0.24503961333259938,1.7114289473369717
1772525996707903000,0.758903076171875,3.22092136387825,-0.2660311095654964,1.63389416449666
1772525996717885700,0.7688857421875,3.155893888172507,-0.256867267639935,1.5374851698383687
1772525996727869700,0.77886962890625,2.871608159992099,-0.27183351223394275,1.309676969552785
1772525996737853000,0.78885302734375,2.432888825947046,-0.24773703572303055,0.9816405816469341
1772525996747836000,0.7988359375,1.8870266295224427,-0.19271394442021847,0.5772638813823461
1772525996757819000,0.80881884765625,1.2659639384239911,-0.20879399547502397,0.2344253168703988
1772525996767802600,0.818802734375,0.7176297989279031,-0.25956848942264915,0.04544423883557319
1772525996777785900,0.828785888671875,0.32182781558930873,-0.3111431938372552,-0.06605221564359963
1772525996787768800,0.838768798828125,0.04440086726248264,-0.2980710924267769,-0.16545849242173136
1772525996797752800,0.8487529296875,-0.15782850899994372,-0.26282383795678615,-0.19968363730236888
1772525996807735800,0.85873583984375,-0.2690156783342361,-0.13214958560317755,-0.15345164562258867
1772525996817718800,0.86871875,-0.23950550621151923,0.06514934851974248,-0.038946035922691226
1772525996827702800,0.878702880859375,-0.13566343894302843,0.2838572736352682,0.1264948477771133
1772525996837685800,0.888685791015625,-0.007383680510520935,0.3618756022088229,0.47573874928671867
1772525996847669000,0.8986689453125,0.0900818374633789,0.35559754485264417,0.8748660411231219
1772525996857653000,0.908653076171875,0.11371522650718688,0.3693761870972812,1.163802956110239
1772525996867635700,0.9186357421875,0.0516746576577425,0.402663247410208,1.3184969664767383
1772525996877618700,0.92861865234375,-0.03456394838094711,0.44622912515327334,1.3542362422473728
1772525996887602700,0.938602783203125,-0.05694587605893611,0.5102259426370263,1.3339844584658742
1772525996897586000,0.9485859375,-0.00601882189810276,0.5236413045272231,1.265652680517733
1772525996907569000,0.95856884765625,0.09721300451755523,0.47680137354955077,1.186449964465201
1772525996917553000,0.968552978515625,0.17357669775187967,0.40564314000383017,1.0809323651999234
1772525996927535900,0.978535888671875,0.1265548343360424,0.3448945106610656,0.951177931104973
1772525996937518800,0.988518798828125,-0.025374679753184318,0.37297611128538843,0.7759662525624036
1772525996947502800,0.9985029296875,-0.23381109396219252,0.5164698054626584,0.5804521560296416
1772525996957485800,1.00848583984375,-0.5064034617394209,0.7646623298682272,0.3572490383867174
1772525996967468800,1.01846875,-0.8022937029957771,0.9847400820322334,0.1574693202987313
1772525996977452800,1.028452880859375,-1.0508055224835873,1.2183128371939063,-0.03862601018808782
1772525996987435800,1.038435791015625,-1.2496633764863014,1.5067612380117177,-0.21454422956481575
1772525996997419000,1.0484189453125,-1.392680100801587,1.5996800524666905,-0.22220241616778075
1772525997007403000,1.058403076171875,-1.412781224066019,1.6147202390797435,-0.2763753203820437
1772525997017385700,1.0683857421875,-1.2472586534321308,1.6815578329473733,-0.49650334142856295
1772525997027368700,1.07836865234375,-0.8889373827040195,1.7488523768022655,-0.9146164522312581
1772525997037352700,1.088352783203125,-0.5785030677884817,1.595390392448753,-1.265646396907419
1772525997047336000,1.0983359375,-0.3693699034869671,1.2439040823072194,-1.4784464131534099
1772525997057319000,1.10831884765625,-0.22028058125972746,0.9844025206409395,-1.6695086448438465
1772525997067303000,1.118302978515625,-0.11478373252153395,0.8299712528638541,-1.8157918236091732
1772525997077286000,1.128285888671875,-0.08302256660163403,0.6949919967927038,-1.8818118174836038
1772525997087268900,1.138268798828125,-0.11167290702462196,0.5747896002233028,-1.8128658531598745
1772525997097252900,1.1482529296875,-0.13796820875406265,0.45730347687527534,-1.6494401086747645
1772525997107235800,1.15823583984375,-0.1100374147772789,0.3621666941098869,-1.515272753508389
1772525997117218800,1.16821875,-0.07511807708740234,0.2439743221886456,-1.4269079490959644
1772525997127202800,1.178202880859375,-0.04730944818556308,0.10918825060203671,-1.303474023259431
1772525997137185800,1.188185791015625,-0.07694178538322448,0.015351371454074978,-1.1177915849111975
1772525997147168800,1.198168701171875,-0.2613742236703634,-0.0041865649696439505,-0.8366920124862343
1772525997157152000,1.208152099609375,-0.6532400366038084,0.06637640609666705,-0.5091342749428004
1772525997167135700,1.2181357421875,-1.1342436841487884,0.15888108679279683,-0.16202420712411403
1772525997177118700,1.22811865234375,-1.5200006588131187,0.2740226197760552,0.18329181688465176
1772525997187102000,1.23810205078125,-1.724093490859866,0.3169589674439281,0.5654444103814661
1772525997197086000,1.2480859375,-1.7363713731527328,0.2599428756929934,0.9053671239793301
1772525997207069000,1.25806884765625,-1.550362479329109,0.11700677886586636,1.0974753575913607
1772525997217051600,1.2680517578125,-1.2122674195498226,-0.11468560590930282,1.1039134278148413
1772525997227035600,1.27803564453125,-0.7939490684986114,-0.37333504425827413,0.9805106277689337
1772525997237019000,1.288018798828125,-0.3244184166043997,-0.6050387541450559,0.8155377999722957
1772525997247001900,1.298001953125,0.1553758551508188,-0.7683239211156964,0.6820896989911794
1772525997256985900,1.30798583984375,0.6068377663910388,-0.9410893755499273,0.6233348738141358
1772525997266968800,1.31796875,0.99095223454535,-1.1142198639042675,0.586265664613992
1772525997276951800,1.327951904296875,1.2804548205912112,-1.2245381414495409,0.4929004215657711
1772525997286935800,1.337935791015625,1.405125156354904,-1.3292739426873623,0.39833237859904763
1772525997296918800,1.347918701171875,1.288060619419813,-1.426272573801875,0.3073801880419254
1772525997306902000,1.357902099609375,1.0083879379928111,-1.4996797553181647,0.2424595337115228
1772525997316886000,1.367885986328125,0.6745604725301265,-1.4325263734996319,0.23107925784550606
1772525997326868700,1.37786865234375,0.3298895414918661,-1.251673401134461,0.30094555188454686
1772525997336851700,1.387851806640625,-0.1382628077864647,-1.0924999072663486,0.5253417517695576
1772525997346836000,1.3978359375,-0.725353086656332,-0.9742794782944023,0.7803327772088349
1772525997356818400,1.407818359375,-1.2640689184576273,-0.7832552405267953,0.9737410605687647
1772525997366801400,1.417801513671875,-1.6332032596230506,-0.49488085479326543,1.1353212502524257
1772525997376784600,1.42778466796875,-1.7831933300822973,-0.2228387413099408,1.2960543946526943
1772525997386768400,1.437768310546875,-1.765436724117398,-0.06413271882310509,1.466732009962201
1772525997396751400,1.44775146484375,-1.594893694972992,0.061168169929087156,1.5671081546857952
1772525997406734600,1.457734619140625,-1.2771610397428272,0.17729126129560172,1.5676149351641535
1772525997416718600,1.467718505859375,-0.8116659269750118,0.2628155815850943,1.5019102908492088
1772525997426701600,1.47770166015625,-0.3185527394413948,0.2985451396793127,1.442855313681811
1772525997436684300,1.487684326171875,0.1120627831250429,0.28014482898339627,1.375374745735526
1772525997446668300,1.497668212890625,0.41057460505664345,0.2266603454247117,1.2366644864425063
1772525997456651500,1.507651611328125,0.5901017356455326,0.16896233582422135,1.051640365872532
1772525997466634500,1.517634521484375,0.6935398982882499,0.12582542408294975,0.863439953354001
1772525997476618500,1.527618408203125,0.7650941454142332,0.08213540850356221,0.7109232870265841
1772525997486601500,1.5376015625,0.8681020999461412,0.04471504777818918,0.5799179760877042
1772525997496584400,1.54758447265625,0.9327654185146093,-0.003618482758104801,0.4604887558478862
1772525997506568400,1.557568359375,1.0313093793749808,-0.07634411175101995,0.33557547817379235
1772525997516551400,1.567551513671875,1.1840724216789007,-0.14673603709936142,0.20797902583032846
1772525997526534700,1.57753466796875,1.3835054452210664,-0.21940365229472517,0.06554594662189484
1772525997536518700,1.5875185546875,1.551820861443877,-0.3132167852409184,-0.07790580810979009
1772525997546501400,1.59750146484375,1.6177122605025767,-0.4208566373571753,-0.2832315429523587
1772525997556484400,1.607484375,1.598425376230478,-0.5454857643276453,-0.45127895588874817
1772525997566468400,1.61746826171875,1.450056769493222,-0.6778636057287454,-0.564186665405333
1772525997576451600,1.62745166015625,1.1924907059341667,-0.7451986277244985,-0.6197830265514552
1772525997586434300,1.637434326171875,0.9042255527287721,-0.6669863840140402,-0.6047450318954884
1772525997596418300,1.647418212890625,0.5989993278503417,-0.5301156151078641,-0.5182726171009242
1772525997606401500,1.657401611328125,0.37132396016418934,-0.3792972771309316,-0.36439284572675823
1772525997616384500,1.667384521484375,0.20761223834455012,-0.2865232779741287,-0.17921426524743436
1772525997626367500,1.677367431640625,0.07408522690832614,-0.1691733482263982,-0.012718027275800705
1772525997636351200,1.687351318359375,-0.15053016868531702,0.018178046247363088,0.12673676677420734
1772525997646334500,1.69733447265625,-0.4702303245961666,0.23657573636993764,0.2753722077541053
1772525997656317400,1.7073173828125,-0.8518161510556935,0.40475919677615163,0.4312149497643113
1772525997666301400,1.717301513671875,-1.1539648681849242,0.3800391815394163,0.6086142745442689
1772525997676284700,1.72728466796875,-1.2930156114786862,0.19846447077095508,0.7338263159692286
1772525997686267400,1.737267333984375,-1.1614479174166916,0.0989794296681881,0.5524246236801147
1772525997696251400,1.74725146484375,-0.7724450926989317,0.061907005597651,0.1416916131913662
1772525997706234400,1.757234375,-0.30981004553735253,-0.11504048376157879,-0.2119111045822501
1772525997716217600,1.767217529296875,0.09783610485196113,-0.3184313050188124,-0.5048138544604182
1772525997726201600,1.77720166015625,0.4858557637512684,-0.2852919826135039,-0.8275127537958323
1772525997736184300,1.787184326171875,0.7855120795428753,-0.21951953375935554,-1.0372710642583667
1772525997746167300,1.797167236328125,0.8656137902617455,-0.22642186049371957,-1.0055535913497209
1772525997756151600,1.807151611328125,0.6134983933240175,-0.20486761581152677,-0.8619304255738854
1772525997766134500,1.817134521484375,0.14398995326161385,0.036624095781147475,-0.7502860139913856
1772525997776117500,1.827117431640625,-0.2300830133497715,0.3779606216996908,-0.7096408460006117
1772525997786101200,1.837101318359375,-0.47463703512251376,0.5933244970843196,-0.5375673193532973
1772525997796084500,1.84708447265625,-0.6338619669169188,0.807526196821779,-0.3927430341593921
1772525997806067500,1.8570673828125,-0.7128618538737297,1.127925879304111,-0.347904286936298
1772525997816051500,1.867051513671875,-0.7823077305436134,1.3468174904234707,-0.30337044094391163
1772525997826034400,1.877034423828125,-0.8215840943992138,1.5381633613608776,-0.2706676833249628
1772525997836017400,1.887017333984375,-0.7915601275354623,1.7358778905473649,-0.22327669433578848
1772525997846000400,1.89700048828125,-0.7246539984762668,1.9117264787539838,-0.16197086950168013
1772525997855984400,1.906984375,-0.5643792653679848,1.9464194603420792,0.06847462048493325
1772525997865967600,1.916967529296875,-0.3165647804945707,1.869731065198034,0.3672139675620943
1772525997875950600,1.92695068359375,0.07550678414404392,1.7704826093301176,0.6083151454672217
1772525997885934300,1.936934326171875,0.6767144356936216,1.7175081211201846,0.6756673377934843
1772525997895917300,1.946917236328125,1.282491879376769,1.6793436640292405,0.5923203615430742
1772525997905900500,1.956900634765625,1.668797720095515,1.532855756472051,0.44437480252347883
1772525997915884500,1.966884521484375,1.882261022555828,1.3225617316976188,0.25883864077813923
1772525997925867500,1.976867431640625,1.9144155717074869,1.0436747938208282,0.06807922795917838
1772525997935850500,1.9868505859375,1.8045862467229365,0.7423387082487344,-0.13653576479814947
1772525997945834500,1.99683447265625,1.5308645826548337,0.5001318341240286,-0.3645292219901457
1772525997955817500,2.0068173828125,1.0437409909248352,0.342980201472342,-0.6650481824930757
1772525997965800400,2.016800537109375,0.4422054225951433,0.2589613173097372,-0.8791700219273567
1772525997975784400,2.026784423828125,-0.1094014549612999,0.3044732145540416,-1.0442644302770494
1772525997985767400,2.036767333984375,-0.6567980213463306,0.37982495426684615,-1.1507901836715637
1772525997995750400,2.04675048828125,-1.1756933003902434,0.3450130224741995,-1.1066532280422747
1772525998005733400,2.0567333984375,-1.5342816976219416,0.3386673067092895,-0.9846433436594902
1772525998015717600,2.066717529296875,-1.7281769607812165,0.37827363317161794,-0.818165956518799
1772525998025700600,2.07670068359375,-1.8044120591998098,0.37333500772565603,-0.6219456844780594
1772525998035683300,2.086683349609375,-1.7160463780045507,0.3462063239119947,-0.4713891027098521
1772525998045667300,2.096667236328125,-1.351045775642991,0.3091473438449204,-0.4313242553576827
1772525998055650600,2.106650634765625,-0.8032984961241483,0.14614274738132954,-0.498627493975684
1772525998065633500,2.116633544921875,-0.3343693172544241,-0.1382183841228485,-0.5970879778036847
1772525998075617500,2.126617431640625,0.012730302235484122,-0.3684134795449674,-0.7701100738801062
1772525998085600300,2.136600341796875,0.26807342904806136,-0.5696048910617828,-1.0133287553958594
1772525998095583500,2.14658349609375,0.43312838217020033,-0.7791562807753681,-1.196379603131488
1772525998105567500,2.1565673828125,0.5877466969519853,-0.953911374656856,-1.3347992819800971
1772525998115550500,2.166550537109375,0.8022755828171968,-1.0234441989578307,-1.3764505582734943
1772525998125533400,2.176533447265625,1.0939140118479729,-1.005078813444823,-1.311149234062433
1772525998135517400,2.186517333984375,1.4099340179413555,-0.9469779221318662,-1.1435277914531528
1772525998145500400,2.19650048828125,1.7338216886699198,-0.8936410303503275,-0.8804322969481349
1772525998155483400,2.2064833984375,1.9996160668700933,-0.8205359005205333,-0.6331220352698117
1772525998165466600,2.216466552734375,2.1605811203300953,-0.7437875918827951,-0.4053448511769995
1772525998175450600,2.22645068359375,2.235687506979704,-0.6278958981193602,-0.273167573849298
1772525998185433300,2.236433349609375,2.2576316277623176,-0.508726936250925,-0.23963307811394333
1772525998195416600,2.24641650390625,2.2209324209183454,-0.4249095660097897,-0.20247414480373263
1772525998205400600,2.256400634765625,2.1168319949746133,-0.418997857747972,-0.11553908093348145
1772525998215383600,2.266383544921875,1.9175246436387299,-0.43167277653440833,-0.027373890746384858
1772525998225366300,2.2763662109375,1.6577110934138297,-0.4023537430696189,0.026829846997559068
1772525998235350300,2.286350341796875,1.2974345969647167,-0.31553309935927387,0.006641629971563816
1772525998245333500,2.29633349609375,0.8869219512283801,-0.22107100098505614,-0.017175591206550597
1772525998255316500,2.30631640625,0.4684229829132557,-0.1803358166232705,-0.057543951549939805
1772525998265300500,2.316300537109375,0.07102291672825813,-0.21931232074946164,-0.07493325857240707
1772525998275283500,2.326283447265625,-0.3234972101062536,-0.2156090823173523,-0.03082428692858666
1772525998285266400,2.336266357421875,-0.6409142235159874,-0.14601371417418121,0.010872728202678263
1772525998295250400,2.34625048828125,-0.8764940807163715,-0.05676365135982632,0.07191336276195943
1772525998305233400,2.3562333984375,-1.0205997693121434,-0.0352734118245542,0.16101769696269183
1772525998315216600,2.366216552734375,-1.1034954946637152,-0.20177695631980894,0.38725276618003845
1772525998325199400,2.376199462890625,-1.052051723152399,-0.5137091085776686,0.5734186771962791
1772525998335183400,2.386183349609375,-0.8806412635236978,-0.6569491202548146,0.4945730309531092
1772525998345166300,2.396166259765625,-0.7505307825326919,-0.6386598687179387,0.2225935709098354
1772525998355150300,2.406150390625,-0.6482955659389495,-0.6061090137250721,-0.07508428441565483
1772525998365134300,2.41613427734375,-0.5838461823821067,-0.6359576240219176,-0.30693419784009457
1772525998375117000,2.426116943359375,-0.5718360111147165,-0.672876611096412,-0.5295713521633297
1772525998385100000,2.43610009765625,-0.7251537646919488,-0.648035453698039,-0.7453429315660148
1772525998395084000,2.446083984375,-1.056663600862026,-0.5118457989238202,-0.8737839449748397
1772525998405067300,2.4560673828125,-1.4522715229332446,-0.31087124502807856,-0.821548146302998
1772525998415050000,2.466050048828125,-1.785039834731817,-0.10157909077256917,-0.5681031081967055
1772525998425034000,2.476033935546875,-1.9271482120305299,0.07052168920785189,-0.21844900018470362
1772525998435017200,2.486017333984375,-1.8976561600863933,0.24546149200648068,0.08812787211770191
1772525998445000200,2.496000244140625,-1.7120248674035072,0.3939446650341153,0.33105997351072725
1772525998454983200,2.505983154296875,-1.4292366843044757,0.4377370450094342,0.49196401749849317
1772525998464967000,2.515966796875,-1.0912199504584073,0.3258931653320789,0.5616252904847264
1772525998474950100,2.5259501953125,-0.7691139024496078,0.16190028848350047,0.5144908700725064
1772525998484933000,2.53593310546875,-0.51517070556283,0.040088557021319866,0.39151535552795974
1772525998494917000,2.545917236328125,-0.2797352252691984,-0.018931348832696676,0.3138169430911541
1772525998504900000,2.555900146484375,-0.011492869395017624,-0.03172609460651874,0.4172343917394057
1772525998514883000,2.565883056640625,0.2838268784970045,-0.04864617668204009,0.6444478775348514
1772525998524867000,2.5758671875,0.5635802239447831,-0.04942892455756664,0.8747945833221077
1772525998534850000,2.58585009765625,0.7141168223708868,-0.07401749543435872,1.0032359620571136
1772525998544833300,2.595833251953125,0.7176794832885265,-0.08788988037705421,1.0294459966558962
1772525998554817300,2.6058173828125,0.6809235778212547,-0.051474751171469685,0.9943212725870311
1772525998564800000,2.615800048828125,0.6128419752418994,-0.045486689737811684,0.9783752231754362
1772525998574783000,2.625782958984375,0.49542497160732746,-0.08418379240073263,0.9897583485856651
1772525998584766200,2.63576611328125,0.29515199010968207,-0.10092340334281324,0.9515732870981096
1772525998594750200,2.645750244140625,0.11331190640330314,-0.047613984090089795,0.7915133657842874
1772525998604733200,2.655733154296875,-0.0017459668844938276,0.06283873348981142,0.521524787297286
1772525998614716200,2.665716064453125,-0.11652794584035872,0.14745748324170707,0.2543475399039686
1772525998624700200,2.6757001953125,-0.3559399285495281,0.17098083603978156,0.04853629113335628
1772525998634683100,2.68568310546875,-0.6932628349125385,0.22358517576307058,-0.10725367494341917
1772525998644666000,2.695666015625,-1.018990580549836,0.35581191825568675,-0.1753226281037554
1772525998654650000,2.705650146484375,-1.3303320734381674,0.5071447816260158,-0.11440240505374967
1772525998664633000,2.715633056640625,-1.6162287439465521,0.6443674327097832,0.05692706176061183
1772525998674616000,2.725615966796875,-1.7982120355159044,0.7847787968322634,0.25054443956026806
1772525998684600000,2.73560009765625,-1.810713789692521,0.9579116963393985,0.4091266712706536
1772525998694583300,2.745583251953125,-1.6653034482389688,1.0807812662914396,0.5503774818919599
1772525998704566300,2.755566162109375,-1.3761620967209338,1.0911864865802228,0.6889793123744428
1772525998714549000,2.765549072265625,-0.924850992128253,0.9972739849127829,0.6870848769299686
1772525998724533000,2.775532958984375,-0.3853238439440727,0.7679825603321194,0.6666893738288432
1772525998734516200,2.78551611328125,0.11959785480499267,0.514715363010764,0.6378251714594662
1772525998744499200,2.795499267578125,0.5904442654728889,0.3678644673600793,0.5366081919975578
1772525998754483200,2.805483154296875,0.9986778603613377,0.2643435948699713,0.41695276178643104
1772525998764466000,2.8154658203125,1.3674287551671265,0.15869067878723145,0.2985285356043838
1772525998774449200,2.82544921875,1.6541344039708374,0.05032704244107008,0.16725228050332516
1772525998784433200,2.83543310546875,1.8546534691840408,-0.052303164819628,0.05769300463180989
1772525998794416000,2.845416015625,2.011756586518884,-0.14823109796270728,0.001832987580820918
1772525998804399000,2.855399169921875,2.0924574321746823,-0.22445319076925516,-0.01315795306302607
1772525998814383000,2.865383056640625,2.1177099468529224,-0.2846817417606711,0.008189188207127154
1772525998824366000,2.875365966796875,2.0889719281464814,-0.32851547665968533,0.02384827390350401
1772525998834349000,2.88534912109375,2.008916979178786,-0.34233722739368677,0.010613711940310895
1772525998844332300,2.895332275390625,1.9345225401908157,-0.3580339782193303,-0.0002691357975825667
1772525998854316300,2.90531640625,1.867609396868944,-0.4037077880270779,-0.005729264366999268
1772525998864299000,2.915299072265625,1.7172440633565187,-0.4902826402828097,-0.0011840221527963876
1772525998874282200,2.9252822265625,1.5391063412994146,-0.5547112733125686,0.021830504340305923
1772525998884266200,2.935266357421875,1.3757488397449253,-0.5597926682300866,-0.011595891378074884
1772525998894249200,2.945249267578125,1.1486842974334954,-0.5134131943710148,-0.06481960510872305
1772525998904232000,2.95523193359375,0.8313122922092676,-0.46259339997693893,-0.07399572199396788
1772525998914216000,2.9652158203125,0.5036287363290787,-0.40436099123880265,-0.07638714717514812
1772525998924199200,2.97519921875,0.1981190183341503,-0.32941739393547176,-0.044922626114264126
1772525998934182100,2.98518212890625,-0.14215397000610827,-0.3165928375452757,0.08072356894426047
1772525998944166100,2.995166259765625,-0.5359177255153655,-0.42613530841246244,0.3536797285325825
1772525998954149000,3.005149169921875,-0.9616010523766279,-0.6444931049160659,0.7715294391587376
1772525998964132000,3.015132080078125,-1.3189561084210872,-0.7374462600320577,1.1383357757680117
1772525998974115000,3.025114990234375,-1.6232763243705033,-0.6406345297917724,1.343106214815378
1772525998984099000,3.03509912109375,-1.8899194283545016,-0.4794543722763657,1.3554513171255587
1772525998994082300,3.045082275390625,-2.1684522920966147,-0.34748540393710137,1.1838699579093606
1772525999004065000,3.05506494140625,-2.429658757984638,-0.3425755661942065,0.8874373534046113
1772525999014049000,3.065049072265625,-2.6754414447695014,-0.3613261516325176,0.4766547681530937
1772525999024032000,3.075031982421875,-2.8470687620192763,-0.3827848269857466,0.14447623894121497
1772525999034015200,3.08501513671875,-3.0084885735094544,-0.20353958207815884,-0.26868363336827605
1772525999043999200,3.094999267578125,-3.1947955734968185,-0.08134221229925752,-0.3880708410972729
1772525999053982000,3.10498193359375,-3.4115205081015825,-0.03885726166069507,-0.23609483925150707
1772525999063965200,3.114965087890625,-3.5707933706909416,0.09944383230954408,0.03961492989389226
1772525999073948200,3.1249482421875,-3.5282863543510437,0.32166531850397584,0.308430500812456
1772525999083932200,3.13493212890625,-3.2766566951036453,0.5717509631797671,0.5520368299389258
1772525999093915100,3.1449150390625,-2.775641356143355,0.7615395216725767,0.7602469976440072
1772525999103898000,3.154898193359375,-2.1004560297131536,0.8798829925023018,0.9001443478297442
1772525999113882000,3.164882080078125,-1.3078268116414546,0.9584607085242867,0.9490986406128853
1772525999123865000,3.174864990234375,-0.4720265603631735,0.9679109661757945,0.9116238462865353
1772525999133848000,3.18484814453125,0.15838029766380787,0.924283713634312,0.7781244535095989
1772525999143832300,3.194832275390625,0.5719809725433588,0.9159088301293551,0.5294637270703911
1772525999153815000,3.20481494140625,0.8443424541741609,0.9272324804373085,0.34335842366758734
1772525999163798000,3.214798095703125,1.0550777929753063,0.8889480502285063,0.3183274793181568
1772525999173781200,3.22478125,1.3031512210458516,0.829697404358536,0.4227750016665086
1772525999183765200,3.23476513671875,1.6549474739193915,0.8555788645900786,0.5528628689669073
1772525999193748200,3.244748291015625,2.0672031639307735,0.9432533486507833,0.605391220844537
1772525999203731000,3.25473095703125,2.367795299267769,0.9201251326501368,0.6558868978507817
1772525999213715200,3.264715087890625,2.556726802539825,0.7871385117009282,0.7117447594773024
1772525999223698200,3.2746982421875,2.5725030483424662,0.6448895568877459,0.7436858120087534
1772525999233681200,3.28468115234375,2.4159429518431423,0.49173576170057054,0.7465011616904288
1772525999243665200,3.2946650390625,2.094044993627071,0.3904977394506335,0.6685275490414351
1772525999253648100,3.304648193359375,1.6390297738194464,0.36430063739866014,0.513465582145378
1772525999263631000,3.314631103515625,1.1072983940780161,0.43161096334457394,0.3463340054122731
1772525999273614000,3.324614013671875,0.6737789667636156,0.560281474660337,0.2196866704871878
1772525999283598000,3.33459814453125,0.35074528251588344,0.657515229704976,0.15285654753996059
1772525999293581000,3.3445810546875,0.05840542721748352,0.7140411267861724,0.1335926240183413
1772525999303564000,3.35456396484375,-0.187848968732357,0.7869991032302379,0.09357077555768191
1772525999313548000,3.364548095703125,-0.3696925595700741,1.015963633944094,-0.0661560048116371
1772525999323531300,3.37453125,-0.5159188935816288,1.1856284189492463,-0.09805712719149887
1772525999333514200,3.38451416015625,-0.5684942994713783,1.2643451050505041,0.035687947442196305
1772525999343498200,3.394498291015625,-0.5428033933758736,1.3092270338281988,0.26297117400560527
1772525999353481000,3.40448095703125,-0.3933639425367117,1.3382011993780731,0.5425099999198689
1772525999363464000,3.4144638671875,-0.15847499020993708,1.3744772123739122,0.777821232779324
1772525999373447000,3.424447021484375,0.15746961255967615,1.3279238432526588,0.9584693302221595
1772525999383431000,3.434430908203125,0.5462199238210916,1.2085659346833824,1.034115961228311
1772525999393414100,3.4444140625,0.9285469240367412,1.0254542236059903,0.9793738788239658
1772525999403396900,3.45439697265625,1.229490357029438,0.8014087368547916,0.8965696311481296
1772525999413380900,3.464380859375,1.4371902736574411,0.5880985791295766,0.7947977212172002
1772525999423363800,3.47436376953125,1.5599831251114606,0.39314737717658277,0.6970726024590432
1772525999433347000,3.48434716796875,1.673341208744049,0.23263795852959154,0.6095603962879628
1772525999443331000,3.4943310546875,1.7733973277330397,0.12118804660588502,0.5313430745435879
1772525999453314000,3.50431396484375,1.8541110328704118,-0.011273089164495468,0.45051323221325873
1772525999463296800,3.514296875,1.8873066155076026,-0.13796090223044155,0.3764929968325421
1772525999473280000,3.524280029296875,1.7934721475124358,-0.25534283455163237,0.29770699008842927
1772525999483264000,3.534263916015625,1.640567650911212,-0.33874767846912146,0.18521273847725242
1772525999493247000,3.5442470703125,1.5041595310807228,-0.3277630508571863,0.11600418682773597
1772525999503230000,3.55422998046875,1.349794314277172,-0.3064066668346524,0.13158092800290322
1772525999513214000,3.5642138671875,1.1609276929348706,-0.29117636447697876,0.22954300645524633
1772525999523197000,3.574197021484375,0.8573071496874094,-0.21426526649296282,0.3137322604823857
1772525999533180000,3.584179931640625,0.4811830957651138,-0.07886164752990008,0.32582718742378053
1772525999543164000,3.594163818359375,0.15192366887032985,0.03533902440667152,0.3389959176091477
1772525999553147000,3.60414697265625,-0.13314531864225865,0.10780746376812457,0.4245012774698436
1772525999563129900,3.6141298828125,-0.4123825312614441,0.1416179634332657,0.532184603401646
1772525999573113000,3.624113037109375,-0.6506728164643049,0.17172449401393533,0.6527738803967833
1772525999583097000,3.63409716796875,-0.8107488121300935,0.07953910840004683,0.8197833285875618
1772525999593080000,3.644080078125,-0.7984411192208528,-0.12957155180871485,0.9911886736497283
1772525999603062800,3.654062744140625,-0.5499766460061073,-0.42245150533318515,1.0733324846554546
1772525999613046800,3.664046875,-0.16592355265021322,-0.7221487376570701,0.9452714835401624
1772525999623030000,3.674030029296875,0.09242226310968399,-0.8229027757823467,0.5546865041974932
1772525999633013000,3.684012939453125,0.12464403227865695,-0.7178574702039361,-0.016171455665305257
1772525999642997000,3.6939970703125,-0.07447218039929866,-0.5387938654735684,-0.4809570684568956
1772525999652980000,3.70397998046875,-0.46665772680640216,-0.47069721145555377,-0.6402246338166296
1772525999662963000,3.713962890625,-0.9854670811325311,-0.4117189527861774,-0.4580815120430663
1772525999672946000,3.72394580078125,-1.471674142539501,-0.12670695615783334,-0.20363902386464178
1772525999682930000,3.733929931640625,-1.7201467990607022,0.24975772789567707,0.019175866212253458
1772525999692913200,3.7439130859375,-1.8197656956762074,0.5252174678027629,0.29020156462807206
1772525999702895900,3.753895751953125,-1.706719162210822,0.7100847903758287,0.5259005181634798
1772525999712879900,3.7638798828125,-1.3561825540095567,0.780420163231343,0.6748233612500131
1772525999722862800,3.77386279296875,-0.8790197998017072,0.6894774711549282,0.705281408682093
1772525999732846000,3.78384619140625,-0.46177755354940886,0.4729693941712379,0.6541802400633693
1772525999742830000,3.793830078125,-0.18311141881644724,0.23874738132059573,0.508263556522876
1772525999752812800,3.803812744140625,-0.0039034371793270108,0.059579731693863866,0.30917551049347963
1772525999762796000,3.813796142578125,0.1266547875791788,-0.03337342342212796,0.17952954174168406
1772525999772779000,3.823779052734375,0.22411036868095396,-0.06791705966740846,0.10253942370470613
1772525999782763000,3.833762939453125,0.32081951532959935,-0.10921849960982799,0.14608013047389684
1772525999792746000,3.84374609375,0.4313064274400472,-0.12703604198172688,0.21573457186054437
1772525999802729000,3.85372900390625,0.6009042846888304,-0.06958484674915671,0.19063461739551274
1772525999812713000,3.863712890625,0.8397568799495696,-0.0017436287969350814,0.13701456129103898
1772525999822696000,3.873696044921875,0.9686883802890777,0.08850713549256324,-0.010725026827678084
1772525999832679000,3.883678955078125,0.8627268366485834,0.11193915674537419,-0.16083627598118036
1772525999842662000,3.893661865234375,0.5559668263316154,0.0680779493175447,-0.31689167436137794
1772525999852646000,3.90364599609375,0.15094810183644294,0.06308131007403135,-0.46076793811544775
1772525999862628900,3.91362890625,-0.19040040678083894,0.18654913818016647,-0.5844186850404367
1772525999872612000,3.923612060546875,-0.4280699297368526,0.3937202086284756,-0.7076030565626918
1772525999882596000,3.93359619140625,-0.6224678817212581,0.5162798358485102,-0.7421504191350191
1772525999892578800,3.943578857421875,-0.7217384032905101,0.616243746509403,-0.7453701848991214
1772525999902561800,3.953561767578125,-0.7011527113795281,0.772968532051146,-0.7216056437563151
1772525999912545800,3.9635458984375,-0.6198001238167286,0.9184396637812257,-0.6136926007218658
1772525999922529000,3.973529052734375,-0.5291700048208237,1.043445661240071,-0.42795189284775403
1772525999932512000,3.983511962890625,-0.43003392328619955,1.0549940602146088,-0.1262464990392327
1772525999942495000,3.993494873046875,-0.35595103446543214,1.1158210154905914,0.08402805384974926
1772525999952479000,4.00347900390625,-0.3102653880894184,1.165621403709054,0.21449520279131828
1772525999962462000,4.0134619140625,-0.2654389888912439,1.1429581748716533,0.2463743690676987
1772525999972445000,4.02344482421875,-0.16134674625396728,1.0258629505373538,0.23874953674506394
1772525999982429000,4.033428955078125,-0.005896072301268577,0.8154124200269579,0.18222170343510805
1772525999992412000,4.043411865234375,0.18966507824361323,0.5968577857770025,0.07480112009271979
1772526000002395000,4.053394775390625,0.44712008264362807,0.41308249622434373,-0.03895297712013125
1772526000012377900,4.0633779296875,0.755480513894558,0.2629790285184979,-0.11926628476306796
1772526000022362000,4.073362060546875,1.0863818627774715,0.11275967934802174,-0.166602401759848
1772526000032345000,4.083344970703125,1.3755232142955065,-0.02038578542470932,-0.20543584415353833
1772526000042327800,4.093327880859375,1.6236083328038453,-0.11601298205554485,-0.20686901876181363
1772526000052311800,4.103311767578125,1.819399200451374,-0.1838353491768241,-0.208850840228796
1772526000062295000,4.113294921875,1.9129928454279899,-0.2124802827723324,-0.19138240355551242
1772526000072278000,4.123278076171875,1.9520377386152743,-0.23293299595341085,-0.1593952468600124
1772526000082260700,4.1332607421875,1.8841770853102207,-0.2242078377060592,-0.12091368664391339
1772526000092244700,4.14324462890625,1.7309446719288826,-0.21335122038796542,-0.09963424031510948
1772526000102228000,4.15322802734375,1.578076415684819,-0.20951120383366942,-0.12500409776270388
1772526000112211000,4.1632109375,1.466946529495716,-0.260481658744812,-0.1721158314190805
1772526000122195000,4.17319482421875,1.3669763352245092,-0.3506352462701499,-0.23676073754802346
1772526000132178200,4.18317822265625,1.2531155627667903,-0.4889804716430604,-0.30736214092858133
1772526000142161000,4.193160888671875,1.1082155089229344,-0.6089991822086275,-0.4095082909993827
1772526000152145000,4.203144775390625,0.8891039714425801,-0.6711395581707358,-0.5246529657877982
1772526000162128000,4.2131279296875,0.644933980551362,-0.6797105487696826,-0.6241339883025735
1772526000172111000,4.223111083984375,0.44006782604455946,-0.6793686034642159,-0.6789330615911633
1772526000182093800,4.23309375,0.31981238411366936,-0.6367364994399249,-0.6944251566901802
1772526000192077800,4.243077880859375,0.24239362886846064,-0.6734850983835756,-0.6276626738853752
1772526000202061000,4.25306103515625,0.1582043565750122,-0.7655753530599176,-0.5487394323613495
1772526000212044000,4.2630439453125,0.05348316838443279,-0.8282571424223482,-0.4635730586640536
1772526000222028000,4.273028076171875,-0.06506605415046214,-0.8535084880568087,-0.3644785512488335
1772526000232010800,4.2830107421875,-0.2181008991330862,-0.8013686971053481,-0.28257147160843016
1772526000241994000,4.292993896484375,-0.5106505977898835,-0.7634772117368877,-0.19931451172903178
1772526000251977000,4.30297705078125,-0.8513473645001649,-0.908878931492567,0.00002148117944598198
1772526000261961000,4.3129609375,-0.9962696301758289,-1.2019647828526794,0.16550971115231514
1772526000271944000,4.32294384765625,-0.9778858322232961,-1.3230746496558188,0.016776070494949818
1772526000281927000,4.332927001953125,-1.0159195025414227,-1.376217626300454,-0.26697255513407286
1772526000291911000,4.342910888671875,-1.1506307553261519,-1.410277570682019,-0.5565623810719699
1772526000301894000,4.352893798828125,-1.3738766161322593,-1.3179136136308311,-0.8439397185921669
1772526000311877000,4.362877197265625,-1.6939415137022733,-1.1964632628269494,-0.9246665024068206
1772526000321860000,4.372860107421875,-2.1574398996949196,-1.0495027693219483,-0.8115551600769162
1772526000331843800,4.38284375,-2.6251287231147287,-0.7457556770853698,-0.6011784254550934
1772526000341826800,4.392826904296875,-2.890261422535777,-0.3961582494303584,-0.2552476305488497
1772526000351809300,4.402809326171875,-3.0656524762332436,-0.07505860198512673,0.12256941796168684
1772526000361793300,4.412793212890625,-3.0913112336248156,0.25972660259380936,0.4291419428825378
1772526000371776300,4.4227763671875,-2.9684248586684463,0.5781691596589982,0.6449985702201724
1772526000381759500,4.432759521484375,-2.6849843491405245,0.7884734135664999,0.8084143778331577
1772526000391742500,4.442742431640625,-2.2891578158825636,0.817853675699234,0.8925799039248377
1772526000401726500,4.4527265625,-1.869011664882302,0.7339671857446431,0.8956837882243096
1772526000411709200,4.462709228515625,-1.4493512515723705,0.6758005357190966,0.7646041699402034
1772526000421692400,4.4726923828125,-1.0752496433883905,0.6841982155777514,0.5463415043741464
1772526000431676400,4.482676513671875,-0.7084136422932148,0.7004629755496978,0.3844301830399781
1772526000441659400,4.492659423828125,-0.31352175953686234,0.6683766693286597,0.3324965821851045
1772526000451642400,4.502642333984375,0.17259879263043404,0.567659309951961,0.33064342859908935
1772526000461625300,4.512625244140625,0.6504553743213415,0.43849823864027854,0.24732838185690342
1772526000471609300,4.522609375,1.1128162807166575,0.36349385106042026,0.056398325178772205
1772526000481592300,4.53259228515625,1.5337497827023268,0.2946114534921944,-0.13291107149496673
1772526000491575600,4.542575439453125,1.774359450763464,0.16239304043650626,-0.2484326167717576
1772526000501559300,4.552559326171875,1.8263930048614738,-0.007922755823284387,-0.2826185256205499
1772526000511542300,4.562542236328125,1.7537907099872827,-0.1083314876422286,-0.33042934745699165
1772526000521525500,4.572525390625,1.466108909627795,-0.1437364168919623,-0.3280208250105381
1772526000531508500,4.582508544921875,0.9851496857464312,-0.021030074677616358,-0.3821982592694461
1772526000541492500,4.592492431640625,0.43146249478459353,0.25054054883643984,-0.5104558058701455
1772526000551475200,4.60247509765625,-0.13375146784186362,0.48383974775373934,-0.6426745842520147
1772526000561458400,4.61245849609375,-0.7141115616738796,0.660403206231445,-0.646068683669716
1772526000571442400,4.6224423828125,-1.3558786026269196,0.8215626132197678,-0.5950470100279898
1772526000581425400,4.63242529296875,-1.9581559292346238,1.007974827147275,-0.5419542292006313
1772526000591408400,4.642408447265625,-2.4131670573890207,1.205481704932451,-0.492500097136572
1772526000601392400,4.652392333984375,-2.5835084264814854,1.3763767623849212,-0.4343496675934642
1772526000611375400,4.662375244140625,-2.43429927726686,1.5229055864743888,-0.32017537220716474
1772526000621358300,4.6723583984375,-2.0065075799494982,1.5945713311508296,-0.17044680222831665
1772526000631341600,4.682341552734375,-1.3930816673398017,1.6046156091727315,-0.07637165734507143
1772526000641325600,4.69232568359375,-0.6923100642323493,1.573708575864136,-0.054764075040444726
1772526000651308300,4.702308349609375,-0.052362639921903605,1.4779409478493033,-0.008989654402434825
1772526000661291300,4.712291259765625,0.3625719139099121,1.3575871601104736,0.033706747029721734
1772526000671275300,4.722275146484375,0.616173750013113,1.2330252531573176,0.07665113187357783
1772526000681258500,4.732258544921875,0.7049836678445339,1.1191726640060544,0.13490414500832557
1772526000691241200,4.7422412109375,0.7370254042714833,1.0745014553695917,0.24127273507975042
1772526000701224400,4.752224365234375,0.7971627698481083,1.041510017002374,0.383558514771983
1772526000711208400,4.76220849609375,0.8772206414252519,0.9849271290369331,0.5404462357904761
1772526000721191400,4.77219140625,0.9553636192917824,0.9128862674377858,0.6799759947728365
1772526000731174400,4.78217431640625,1.0200105712473393,0.8804577236503363,0.741542151043564
1772526000741158400,4.792158447265625,1.058012092861533,0.840573164768517,0.6845884570043533
1772526000751141400,4.802141357421875,1.008942064744234,0.7951748109012842,0.5774153456170111
1772526000761124400,4.812124267578125,0.8722469446659088,0.6873273073837161,0.4028840505540371
1772526000771107300,4.822107421875,0.7290092710763215,0.5571963681265711,0.23347514000609515
1772526000781091300,4.83209130859375,0.6692027448892593,0.4156771888926625,0.10632438560351729
1772526000791074300,4.84207421875,0.6992915936827659,0.30287966175228354,0.03421849594414234
1772526000801057300,4.852057373046875,0.7738093667894601,0.17809943587332963,-0.030425533401966093
1772526000811041300,4.862041259765625,0.829526577836275,0.09170826962143182,-0.11966777823604642
1772526000821024500,4.8720244140625,0.8390636369884014,0.013226853580772876,-0.3106833943057805
1772526000831007500,4.882007568359375,0.7688987983942032,-0.07661620669066906,-0.5384753741089254
1772526000840990200,4.891990234375,0.575509146669507,-0.20048603972643614,-0.7476985547814518
1772526000850974200,4.90197412109375,0.29549276637136934,-0.2704135624334216,-0.9644250237561762
1772526000860957400,4.91195751953125,0.03558335455656052,-0.24914251860678194,-1.161884409137815
1772526000870940400,4.9219404296875,-0.1359399177968502,-0.16550445045530796,-1.2975170145511628
1772526000880924400,4.93192431640625,-0.24262334597110746,-0.09789660286754369,-1.354580817901343
1772526000890907400,4.941907470703125,-0.34178631551265715,-0.13346008367985487,-1.3172829145118594
1772526000900890400,4.951890380859375,-0.36003216629922385,-0.3718342477738857,-1.1668610285066068
1772526000910873300,4.961873291015625,-0.1266845981955528,-0.5246212554752826,-1.2629992433995008
1772526000920857300,4.971857421875,0.19494038829803464,-0.43523470679968596,-1.536324163234979
1772526000930840600,4.981840576171875,0.4284299952208996,-0.4185793400749564,-1.7148631595693529
1772526000940823300,4.9918232421875,0.5559188955366611,-0.5587991271480918,-1.7366800007104872
1772526000950807300,5.001807373046875,0.6387684436589479,-0.6079904435575008,-1.7281635167777538
1772526000960790300,5.011790283203125,0.6973147406518458,-0.4944362528309226,-1.7816883323468267
1772526000970773500,5.0217734375,0.6286264043509959,-0.38149288747906684,-1.7579074976563454
1772526000980756200,5.031756103515625,0.4450006062716245,-0.2727259310290217,-1.630475149833411
1772526000990740200,5.041740234375,0.30381401999294755,-0.12873743907213211,-1.4408017421528696
1772526001000723500,5.051723388671875,0.29789222872853277,0.03393178795725107,-1.241896249616146
1772526001010706400,5.06170654296875,0.4004600382775068,0.19828268446326255,-1.1028634073052554
1772526001020689400,5.071689453125,0.48964288107454773,0.26874709052592516,-0.9855014948587864
1772526001030673200,5.081673095703125,0.5639467191696167,0.2920847114935517,-0.8817016592968254
1772526001040656400,5.091656494140625,0.6040028352260589,0.2949275337040424,-0.8890130782887339
1772526001050639400,5.101639404296875,0.5224748910963535,0.27197335909605025,-0.903596826371178
1772526001060623400,5.111623291015625,0.4344815503448248,0.26215222230553625,-0.9349578139923512
1772526001070606600,5.121606689453125,0.40354689837694163,0.2729308059513569,-0.9862643689900636
1772526001080589300,5.13158935546875,0.33083237529993054,0.2862371545091271,-0.988068057411164
1772526001090572300,5.141572265625,0.26777006218731403,0.2948132596746087,-0.8750614175647496
1772526001100556300,5.151556396484375,0.291647781381011,0.3148044928237796,-0.6596401129044592
1772526001110539500,5.16153955078125,0.3778133221834898,0.3118298609271645,-0.4196671353116631
1772526001120522200,5.171522216796875,0.4819757074475288,0.23878800559192895,-0.2510853963028639
1772526001130506200,5.18150634765625,0.6254156256109475,0.15492372746914623,-0.1752734917324036
1772526001140489200,5.1914892578125,0.7269757194221019,0.06758943514823913,-0.1875795041412115
1772526001150472400,5.201472412109375,0.6921452290594577,-0.07543488795161246,-0.24792346167322246
1772526001160455400,5.211455322265625,0.5598667563796043,-0.21849399010390042,-0.27475557369310405
1772526001170439400,5.221439453125,0.4175046965807676,-0.3090340927287936,-0.3262426728894934
1772526001180422400,5.23142236328125,0.32648119435310363,-0.3849237387105822,-0.38426070822458713
1772526001190405400,5.2414052734375,0.2679541865825653,-0.45885640540570016,-0.4734929065886885
1772526001200389400,5.251389404296875,0.18975918626785276,-0.5065127673327923,-0.5917043850691989
1772526001210372400,5.261372314453125,0.11260229682922362,-0.5173351901203393,-0.7349306970145553
1772526001220355300,5.271355224609375,-0.01265197630226612,-0.4708884962439537,-0.8419222412899136
1772526001230338300,5.28133837890625,-0.2062538094729185,-0.40372853855416174,-0.8998596856694668
1772526001240322300,5.291322265625,-0.42417818299531934,-0.28828561147153375,-0.9091459118656814
1772526001250305500,5.301305419921875,-0.67151394444108,-0.12941636124700306,-0.8894415328338742
1772526001260288500,5.31128857421875,-0.8850812917977571,0.015669570557773113,-0.8056352685086429
1772526001270272500,5.3212724609375,-1.147927926108241,0.11112257966548204,-0.6314462840773165
1772526001280255200,5.331255126953125,-1.3390005330622194,0.22172610389292238,-0.48584758044481274
1772526001290238500,5.341238525390625,-1.4441571900606154,0.36172581847459073,-0.3384021529670804
1772526001300221400,5.351221435546875,-1.4031173236638306,0.5168269483372568,-0.17605324393324553
1772526001310205400,5.361205322265625,-1.2362076825857162,0.6264601662278175,0.021978388378396628
1772526001320188200,5.371188232421875,-1.0007792165547609,0.6434387735575438,0.22660083378981796
1772526001330171400,5.38117138671875,-0.7056757417619228,0.6130196698963641,0.3718756392301991
1772526001340154400,5.391154296875,-0.33015725251734257,0.5304632595017552,0.3887685045052319
1772526001350138400,5.401138427734375,0.08564590084254742,0.4050445895887911,0.34390316153615713
1772526001360122000,5.4111220703125,0.48520635993182654,0.2419093524828553,0.2771480948528275
1772526001370105300,5.421105224609375,0.8273141624838113,0.0984070366077125,0.20839926053639501
1772526001380089300,5.43108935546875,1.1097919644594192,-0.003656915072351694,0.1454877906039357
1772526001390072000,5.441072021484375,1.331276660811901,-0.08912599804326891,0.07153389845769852
1772526001400055300,5.45105517578125,1.4876304210841655,-0.16813056117519734,0.004733275599591434
1772526001410038300,5.461038330078125,1.5352555110901593,-0.25182065177485347,-0.057267216967791315
1772526001420022300,5.471022216796875,1.474570448502898,-0.3376099066108465,-0.14148140450678764
1772526001430005200,5.481005126953125,1.3296587042212487,-0.4142218755178153,-0.22116941985823213
1772526001439988200,5.49098828125,1.1724731692999601,-0.45643604639098045,-0.2930930848184973
1772526001449972200,5.50097216796875,0.9841571675777435,-0.5048210148535669,-0.3526184559766203
1772526001459955200,5.510955078125,0.8223299443304538,-0.5447554042264818,-0.40695948329940435
1772526001469938200,5.520938232421875,0.6904828488051891,-0.5492896866552531,-0.4315848790552467
1772526001479921200,5.530921142578125,0.5349158549964428,-0.49555882712006566,-0.41934455229379236
1772526001489905200,5.5409052734375,0.2820142761170864,-0.4229208764106035,-0.3820673263661563
1772526001499888000,5.55088818359375,-0.011958148819208144,-0.3783247788369655,-0.2718590120013803
1772526001509871400,5.560871337890625,-0.30664427498281,-0.33520372225195166,-0.10926146196871996
1772526001519854300,5.570854248046875,-0.48164895971119404,-0.29731647466719147,0.039160336260497565
1772526001529838300,5.58083837890625,-0.5776403134793043,-0.2261985731318593,0.12387567825466393
1772526001539821000,5.590821044921875,-0.6204471895486116,-0.19125556230545043,0.22447496420964597
1772526001549804300,5.60080419921875,-0.6843968068897723,-0.3141723324000835,0.4537967839285731
1772526001559788300,5.610788330078125,-0.6407967346161604,-0.4902779641076922,0.6476785300191491
1772526001569771300,5.620771240234375,-0.39960429823100563,-0.45333325807005165,0.6091187169350684
1772526001579754200,5.630754150390625,-0.17566460994184016,-0.4123302165523171,0.4556688614107668
1772526001589737200,5.6407373046875,-0.1723901183158159,-0.5119146263763308,0.37388570041097696
1772526001599721200,5.65072119140625,-0.3573983106642961,-0.6534376050025225,0.35886056523658333
1772526001609704200,5.6607041015625,-0.6020552082896232,-0.707609340173006,0.23210151356533168
1772526001619687400,5.6706875,-0.878514772889018,-0.6719923756077886,0.08477576694451272
1772526001629670100,5.680670166015625,-1.1066448986053465,-0.653375061160326,-0.02512019353546202
1772526001639654100,5.690654052734375,-1.3314935184329748,-0.6588502777010202,-0.09133497932963072
1772526001649637000,5.70063720703125,-1.4684417364895344,-0.6065311846598982,-0.21271131504923105
1772526001659620400,5.710620361328125,-1.4914070170134306,-0.5258583960548043,-0.2972349338635802
1772526001669604400,5.720604248046875,-1.5140291831880808,-0.43195320091098544,-0.33079832689985633
1772526001679587000,5.730587158203125,-1.5421300730347633,-0.3354799088448286,-0.3006694383569062
1772526001689570300,5.7405703125,-1.5757856743991374,-0.25060323880910873,-0.1796452040106058
1772526001699553300,5.75055322265625,-1.623414856058359,-0.10935001703500748,-0.07235153498351574
1772526001709537300,5.760537353515625,-1.676608686107397,0.05561345841139555,0.0027014409784227606
1772526001719520000,5.77052001953125,-1.6955173847168683,0.22910598501116036,0.07134725331179798
1772526001729503200,5.780503173828125,-1.6628963870972393,0.41574294760525227,0.09431406820565462
1772526001739486200,5.790486328125,-1.5100480045974254,0.6118783909067511,0.10777253858521581
1772526001749470200,5.80047021484375,-1.2555717237472535,0.7712772179633378,0.1233474896620959
1772526001759453200,5.810453125,-0.9180056562781334,0.8672659413829445,0.1367655549660325
1772526001769436200,5.820436279296875,-0.4672761509656906,0.8887243244752288,0.14581022749133407
1772526001779420200,5.830420166015625,0.03555646654963493,0.8200850880131125,0.18853461290895937
1772526001789403100,5.840403076171875,0.5462859747946262,0.7045569668650626,0.18325586878843605
1772526001799386400,5.850386474609375,0.9964414796113967,0.6211728734746575,0.12567819763198493
1772526001809369300,5.860369384765625,1.3691104246437549,0.6009525077447295,0.04999583772532642
1772526001819353000,5.87035302734375,1.6457459303319453,0.5417553456276655,0.012249021524563431
1772526001829336000,5.880336181640625,1.8198861071854828,0.4241875353455543,0.03796506206132471
1772526001839319300,5.8903193359375,1.8574755408674477,0.28970190801024437,0.05294095126651227
1772526001849302300,5.90030224609375,1.7799650156855582,0.22455869697034359,0.007326032039150596
1772526001859286300,5.910286376953125,1.637846701514721,0.25149054303765295,-0.08290449317991733
1772526001869269200,5.920269287109375,1.3534557593941687,0.3180240393921733,-0.13962576670274138
1772526001879252200,5.930252197265625,0.9807008896440267,0.41679976318180556,-0.1544368207350373
1772526001889236200,5.940236328125,0.5968629003435373,0.5822489763185381,-0.15805866449400782
1772526001899219200,5.95021923828125,0.2687590732246637,0.7541907663449645,-0.13409640882201493
1772526001909202200,5.9602021484375,-0.040030981615185736,0.9224237649813294,-0.06174377785995602
1772526001919185200,5.97018505859375,-0.274127906781435,1.0928867146268486,-0.0037868250623345374
1772526001929169200,5.980169189453125,-0.4119762885481119,1.2568044804126024,0.055225335876643654
1772526001939152100,5.990152099609375,-0.48307227051258084,1.374968210761249,0.16254713501967488
1772526001949135400,6.00013525390625,-0.4663075981944799,1.4214189962908625,0.2795170524738729
1772526001959119400,6.010119384765625,-0.32326457039415835,1.4035256122037767,0.39913463489264245
1772526001969102000,6.02010205078125,-0.058715223819017406,1.3239181147426367,0.49954585092961784
1772526001979085300,6.030085205078125,0.2377203763604164,1.2082111298963427,0.5520381085805595
1772526001989068300,6.040068359375,0.5286573791235685,1.0686311020314694,0.5572190914150327
1772526001999052300,6.05005224609375,0.7773147445619106,0.936314927689731,0.5122039647117257
1772526002009035000,6.060034912109375,0.9644254621475934,0.7463143338814378,0.4368666919156909
1772526002019018200,6.070018310546875,1.1202537372410297,0.5389265519425273,0.3499056898865849
1772526002029001200,6.080001220703125,1.2368939112842081,0.3433227312996983,0.22914149471595882
1772526002038985200,6.089985107421875,1.3285527888059616,0.1518549875482917,0.11432663640379905
1772526002048968200,6.09996826171875,1.3739409135401248,-0.019461948578059673,0.02257145890071988
1772526002058951200,6.109951171875,1.3895938252240418,-0.13822335255891083,-0.02833199518881738
1772526002068934100,6.11993408203125,1.4032611160486936,-0.2119070129290223,-0.02147869522795081
1772526002078918100,6.129918212890625,1.4119284066289663,-0.2618365804851055,0.009887041633576154
1772526002088901400,6.1399013671875,1.3697118976682423,-0.2686462604999542,0.05328896098658442
1772526002098884000,6.149884033203125,1.262042381066084,-0.25110505085140467,0.08846804559119045
1772526002108868000,6.1598681640625,1.1689490868270396,-0.23600685044080016,0.12134601364657283
1772526002118851000,6.16985107421875,1.098676696205139,-0.2554533091887832,0.13440474411882458
1772526002128834300,6.179834228515625,1.010652375793457,-0.2873474538385868,0.1411036572355777
1772526002138817300,6.1898173828125,0.8656734114944934,-0.3215072053328156,0.13599077120125294
1772526002148801300,6.19980126953125,0.6155944888204335,-0.2552995799317956,0.15542612403333186
1772526002158784300,6.2097841796875,0.29448914228677747,-0.1535597456395626,0.20574439864605665
1772526002168767200,6.219767333984375,0.016080197185277936,-0.05931655071303248,0.24679383658878504
1772526002178750200,6.229750244140625,-0.18797230285108088,0.048854339540004725,0.304297638791427
1772526002188734200,6.239734130859375,-0.3715039929062128,0.0951402898967266,0.44427156134471296
1772526002198717200,6.24971728515625,-0.5702011033892631,0.1384220900014043,0.6159910138573497
1772526002208700200,6.2597001953125,-0.7785773118436337,0.20885390896871683,0.7296713151816279
1772526002218684200,6.26968408203125,-1.0320996529698372,0.3148230513937771,0.7302413701545447
1772526002228667100,6.279667236328125,-1.3000164301514625,0.44805093375295396,0.6858657103985547
1772526002238650400,6.289650390625,-1.5259873320072888,0.4556688614107668,0.7752874765180051
1772526002248633000,6.299633056640625,-1.6283546505481004,0.16308920600712298,1.0986324186719953
1772526002258617000,6.3096171875,-1.4992320115506648,-0.07457607916519045,1.196891863502562
1772526002268600300,6.319600341796875,-1.3943740452378988,-0.09929930927231907,0.958826765357703
1772526002278583300,6.329583251953125,-1.5435340946137903,-0.19141630582511424,0.6220680687487125
1772526002288566000,6.33956591796875,-1.7380822687238453,-0.4334619980387389,0.3408748632235452
1772526002298550000,6.349550048828125,-1.8049281920284033,-0.5700320304326713,0.021746479318663477
1772526002308533200,6.359533203125,-1.8508154984563587,-0.5494705961801112,-0.3133470240244642
1772526002318516200,6.36951611328125,-1.9947090056061743,-0.5797083519250155,-0.5056112153831869
1772526002328499200,6.379499267578125,-2.1051374655276534,-0.5679515708968043,-0.5543000986957922
1772526002338483200,6.389483154296875,-2.07088389827013,-0.43497649425491686,-0.5290773581013083
1772526002348466200,6.399466064453125,-1.9442448927819729,-0.2643535317420959,-0.5010500449474901
1772526002358449200,6.40944921875,-1.7647136705398558,-0.08390241817608475,-0.43000623156167567
1772526002368433200,6.41943310546875,-1.5302210240542888,0.05970175063833594,-0.39116555570960043
1772526002378416400,6.42941650390625,-1.341698101583123,0.14798881363943217,-0.3299774389710277
1772526002388399000,6.439399169921875,-1.2298866628706455,0.23814868477508425,-0.25852994015514846
1772526002398382000,6.449382080078125,-1.181184883543849,0.37609716591536996,-0.2349135022461414
1772526002408366000,6.459365966796875,-1.1421434974879026,0.496462790222466,-0.19253288876488803
1772526002418349300,6.469349365234375,-1.0295563982278109,0.5707433935724199,-0.09378390685170888
1772526002428332000,6.47933203125,-0.7770832738935947,0.5678232683420181,0.0669505527228117
1772526002438315300,6.489315185546875,-0.35198154631257056,0.5555179135203361,0.1163056813918054
1772526002448299300,6.49929931640625,0.2853998269021511,0.5649519506894052,0.013600216937810182
1772526002458282200,6.5092822265625,0.8920335951536893,0.49300753520205615,-0.08113572994172573
1772526002468265200,6.51926513671875,1.2538614126980303,0.3441178272001445,-0.08024608762562274
1772526002478249200,6.529249267578125,1.3048422428727149,0.19148206453770397,-0.08775383290722966
1772526002488232200,6.539232177734375,1.1569815856575965,0.10681669916510582,-0.20193623853474854
1772526002498215200,6.549215087890625,0.987996307349205,0.09336918857097626,-0.4525337051901966
1772526002508198100,6.5591982421875,0.8136497942686081,0.027041736182570456,-0.8005255973447114
1772526002518182400,6.569182373046875,0.6036848553180694,-0.16183277620524167,-1.1971304214987903
1772526002528165000,6.5791650390625,0.4532458720475435,-0.29686186276748777,-1.5792258779808879
1772526002538148000,6.589148193359375,0.4300900373876095,-0.3739573774076998,-1.8153920106366275
1772526002548131300,6.59913134765625,0.5296253473728895,-0.3103060123607516,-1.9935376237392424
1772526002558115300,6.609115234375,0.7213187165737152,-0.1699658137783408,-1.9856774117581546
1772526002568098300,6.619098388671875,0.9719546886086463,-0.06949205389916896,-1.7205197240263224
1772526002578081000,6.6290810546875,1.2192594703942536,0.05146043038517236,-1.3845780428886412
1772526002588064300,6.639064208984375,1.4427730422258376,0.21112433811873196,-1.0807165304921567
1772526002598048300,6.64904833984375,1.6113789658278226,0.3696817459151149,-0.876096386635676
1772526002608031200,6.65903125,1.7044003638744354,0.46003363249152895,-0.7202489684503525
1772526002618014200,6.66901416015625,1.8057178811013697,0.49178369249552484,-0.5468835022963583
1772526002627997200,6.6789970703125,1.9118693943560123,0.4844733694821596,-0.43537462672702965
1772526002637981200,6.688981201171875,2.0105168155908584,0.45607349668890235,-0.31580738625600935
1772526002647964200,6.698964111328125,2.102338774719834,0.4243576312154531,-0.17611812586300074
1772526002657947400,6.708947509765625,2.178975439676642,0.40664281856566664,-0.043012773904949425
1772526002667931400,6.718931396484375,2.281415823453665,0.39207361046522854,0.03990764749646187
1772526002677914000,6.7289140625,2.3824141917288304,0.36285789124444123,0.10674487603791058
1772526002687897000,6.73889697265625,2.4687901604115963,0.2994394581705332,0.15422310491912067
1772526002697880300,6.74888037109375,2.543742817804217,0.23239275159686804,0.18966091352514922
1772526002707864300,6.7588642578125,2.6152503031790255,0.19362842891663312,0.2665291952807456
1772526002717847000,6.768846923828125,2.63446996743381,0.1528719095058739,0.3863167274389416
1772526002727830300,6.778830322265625,2.601573075482249,0.09667772859707474,0.47090661642253395
1772526002737813200,6.788813232421875,2.5301205351650715,0.033551556468009947,0.5369345013424753
1772526002747797200,6.79879736328125,2.386650221863389,-0.05423676323071122,0.6256386937770992
1772526002757780200,6.8087802734375,2.1903169179022313,-0.14105886824578046,0.6568146802201866
1772526002767763200,6.81876318359375,1.8849375482887027,-0.1957711400337517,0.5976064121872187
1772526002777746200,6.82874609375,1.485279474043846,-0.2541701375104487,0.46931401346884666
1772526002787730200,6.838730224609375,0.9651958619982004,-0.31708602788969875,0.3151691614177078
1772526002797713200,6.848713134765625,0.39599546008408065,-0.2897913398593664,0.2129817294884473
1772526002807696100,6.858696044921875,-0.1963625300556421,-0.2330414247639477,0.24567871495373544
1772526002817679000,6.86867919921875,-0.7772691518545151,-0.25504019834324715,0.4299195761915296
1772526002827663000,6.8786630859375,-1.2869032660782336,-0.26415114103779197,0.5707736425802111
1772526002837646300,6.888646240234375,-1.682341676801443,-0.17363047376573085,0.5800920174803584
1772526002847629300,6.89862939453125,-2.0125176340192557,0.012681494657695292,0.4863001465179026
1772526002857613300,6.90861328125,-2.35768423961997,0.19716449408829212,0.45803252180218695
1772526002867596000,6.918595947265625,-2.6907494885385037,0.09620134325698018,0.7440135826583951
1772526002877579300,6.928579345703125,-2.848319054341316,-0.300175517360121,1.1489729781817644
1772526002887562200,6.938562255859375,-2.7418863860577343,-0.3708122112497687,1.030603423062712
1772526002897546200,6.948546142578125,-2.6243255900382993,-0.34098040595725176,0.4840139352768659
1772526002907529200,6.958529296875,-2.6884692686468363,-0.695136227568984,-0.022767127603292463
1772526002917512200,6.96851220703125,-2.8593028051704166,-1.2866092515677212,-0.43051396188810465
1772526002927495200,6.9784951171875,-3.0234184316158292,-1.632718544846028,-0.9416157375115901
1772526002937479200,6.988479248046875,-3.1501170583367344,-1.5843147255524992,-1.5097928607925772
1772526002947462400,6.99846240234375,-3.2177105851382017,-1.3627464425697922,-1.8461013294160364
1772526002957445000,7.008445068359375,-3.1368665316194293,-1.1717286345429718,-1.810996990548074
1772526002967428000,7.018427978515625,-2.8420892200410366,-1.0042579985812305,-1.5476348079308866
1772526002977412000,7.028412109375,-2.4273434667795897,-0.8338878417856991,-1.2904296866387128
1772526002987395300,7.038395263671875,-2.0170050085663793,-0.6718205261722207,-1.1735910674139856
1772526002997378000,7.0483779296875,-1.6330232268810272,-0.468788747485727,-1.2229951497912406
1772526003007361300,7.058361328125,-1.332930857759714,-0.21560995910018682,-1.2304377208821475
1772526003017345300,7.06834521484375,-1.1775374669522047,-0.030175358033180236,-1.1094320451058446
1772526003027328300,7.078328369140625,-1.185386426886916,0.13802300768122075,-0.8946322333447635
1772526003037311200,7.088311279296875,-1.2318126624971628,0.3720202718652785,-0.6962978917594999
1772526003047295000,7.098294921875,-1.199156009042263,0.6940199368901551,-0.5573513394925743
1772526003057278200,7.1082783203125,-1.039862103664875,0.9447120230264962,-0.37229594700150187
1772526003067261200,7.11826123046875,-0.7409270878851413,1.065007212445885,-0.1017933180451393
1772526003077244200,7.128244140625,-0.24336919590234754,1.1522867058396338,0.13257979371398687
1772526003087228400,7.138228515625,0.46335284004211424,1.1954448795646428,0.3056807637128979
1772526003097211100,7.148211181640625,1.1982248656719923,1.228159546817094,0.4026316101629287
1772526003107194000,7.158194091796875,1.8127683841347693,1.2204280757822095,0.45918622188195585
1772526003117177300,7.16817724609375,2.234607310527563,1.1509627637594937,0.4667847872521728
1772526003127161300,7.178161376953125,2.481046999916434,0.9983299237065016,0.42488574674278495
1772526003137144000,7.18814404296875,2.536411159741878,0.7559368793599307,0.3211249280169606
1772526003147127000,7.198126953125,2.4208763165920972,0.47576311654299497,0.14550233058594167
1772526003157110300,7.2081103515625,2.2014152350217104,0.28246611153781415,-0.13682013469748197
1772526003167094300,7.21809423828125,1.8337457057118414,0.14009382260590791,-0.5421461715761572
1772526003177077200,7.2280771484375,1.3462591258883476,-0.004704670559614896,-0.9727414550721645
1772526003187060200,7.238060302734375,0.8289069846332072,-0.1175903143748641,-1.366510471278429
1772526003197043200,7.248043212890625,0.301920169070363,-0.20122896704822776,-1.6963042973108589
1772526003207027200,7.258027099609375,-0.19242226799726486,-0.2250672310143709,-1.9312720139622688
1772526003217010200,7.26801025390625,-0.6783966896921396,-0.1996205089382827,-1.9964530727945267
1772526003226993400,7.277993408203125,-1.1348135929912329,-0.03149915398284793,-1.9459969971463082
1772526003236976000,7.28797607421875,-1.4388830490499733,0.2287193237811327,-1.7830828554451466
1772526003246960000,7.297960205078125,-1.6050228747993707,0.4805594109088182,-1.5448232576414942
1772526003256943000,7.307943115234375,-1.5789654734790324,0.7223097734376788,-1.2558549246028066
1772526003266926300,7.31792626953125,-1.3774398615717887,0.9432502799108624,-0.9587364567257464
1772526003276910300,7.327910400390625,-1.0252543171197175,1.079284305731952,-0.688012805429846
1772526003286893000,7.33789306640625,-0.6528606818974018,1.1366745645575225,-0.3945300637066364
1772526003296876300,7.347876220703125,-0.2688718859493732,1.1412272594258188,-0.1526807708479464
1772526003306859300,7.357859375,0.12311141588389873,1.1540971162624656,-0.021262422128766775
1772526003316843300,7.36784326171875,0.52354456615448,1.150120321585983,0.05793181835636496
1772526003326826000,7.377825927734375,0.8800374524116515,1.1126951385550201,0.11103694720864295
1772526003336809200,7.387809326171875,1.183590775641799,1.0633978775531052,0.14763415498286483
1772526003346792200,7.397792236328125,1.4133306746423244,1.0230493544213473,0.20986776218637823
1772526003356775400,7.407775390625,1.5365285997658966,0.9704434072628617,0.29057211497351526
1772526003366758700,7.417758544921875,1.6382891845852137,0.9462713812977075,0.38116986606977876
1772526003376741400,7.427741455078125,1.7058417948544025,0.9315439138956367,0.4637819521743804
1772526003386724400,7.437724365234375,1.7742291023820638,0.8943528318814933,0.5283752011813223
1772526003396708600,7.44770849609375,1.7916876021832226,0.878522079412639,0.5886559207513928
1772526003406691600,7.457691650390625,1.7500427556306122,0.7939571056745945,0.6257788329001516
1772526003416674600,7.467674560546875,1.589417893910408,0.6945278864122927,0.6059181673280895
1772526003426657500,7.477657470703125,1.2227607565134764,0.602950695824623,0.5553494981508702
1772526003436641500,7.4876416015625,0.7930664404451847,0.5903492806658148,0.451426547665894
1772526003446624500,7.49762451171875,0.3577373333603143,0.6495894051417708,0.3527564762078225
1772526003456607500,7.507607421875,-0.0690156685590744,0.6661689301513135,0.3077835081458092
1772526003466590500,7.517590576171875,-0.4812561610013246,0.6323071386903524,0.26978951225094494
1772526003476574500,7.527574462890625,-0.8230348777294159,0.6161639592714607,0.1760194147288799
1772526003486557400,7.537557373046875,-1.046190137642622,0.6103996966563164,-0.01367284378260374
1772526003496540700,7.547540771484375,-1.201522738173604,0.6113510060317814,-0.14936463203728198
1772526003506523600,7.557523681640625,-1.2848574394643306,0.6211407247707247,-0.2549594612572342
1772526003516507400,7.56750732421875,-1.315364805930853,0.5946205282442272,-0.30970958083756267
1772526003526490400,7.577490478515625,-1.2985183005481957,0.538839458180964,-0.29333040070571004
1772526003536473600,7.5874736328125,-1.2431184848874806,0.3934703255206346,-0.08621427531503141
1772526003546456600,7.59745654296875,-1.1095131475180386,0.0657373775407672,0.2502336017791182
1772526003556440600,7.607440673828125,-0.8630693664759397,-0.10094006221666932,0.28997597571127115
1772526003566423300,7.61742333984375,-0.6908785701245069,-0.050872839755564926,-0.004184299947321415
1772526003576406500,7.627406494140625,-0.7495125454008579,-0.03563376956954598,-0.31816958534270523
1772526003586389500,7.637389404296875,-0.976103040459752,-0.09307064401581883,-0.5011095200497657
1772526003596373500,7.64737353515625,-1.2194868494093418,-0.145300743599236,-0.6452662812456488
1772526003606356500,7.6573564453125,-1.4130658862262964,-0.046437779917567965,-0.8005114957541227
1772526003616339500,7.66733935546875,-1.5447493156224488,0.20249416467845438,-0.9456351292207836
1772526003626322400,7.677322509765625,-1.628577353388071,0.37357495396137236,-0.9273325067456811
1772526003636306400,7.687306396484375,-1.5802011527538298,0.5155244874365628,-0.7887314799807965
1772526003646289700,7.69728955078125,-1.3700637798458337,0.6257971722744405,-0.6115080232243985
1772526003656272400,7.7072724609375,-1.0797492928951977,0.7242303662367164,-0.45861043128799645
1772526003666255400,7.71725537109375,-0.7220616438955069,0.786092509779334,-0.31015575370248405
1772526003676239600,7.727239501953125,-0.3563824116200208,0.7530603010103106,-0.25970643658861514
1772526003686222600,7.73722265625,-0.0864437732219696,0.6546119094789028,-0.24859620983563363
1772526003696205600,7.74720556640625,0.013133622339367866,0.5892554940797389,-0.27967246223129333
1772526003706188500,7.7571884765625,0.01649228511750698,0.6025380233705043,-0.3192582573622465
1772526003716172500,7.767172607421875,0.08484510585367679,0.6154036424234509,-0.29337241321653124
1772526003726155500,7.777155517578125,0.19602526092529296,0.5235023344479501,-0.1668812917664647
1772526003736138500,7.787138427734375,0.4221919776141643,0.3706741179533303,-0.0743583447612822
1772526003746121500,7.79712158203125,0.7266372812479734,0.22811346684247255,-0.0542643088247627
1772526003756105500,7.80710546875,1.0028472550004721,0.11826090711280703,-0.11140227338969706
1772526003766088400,7.81708837890625,1.1676368351846933,0.01085515601336956,-0.1483472716882825
1772526003776071400,7.827071533203125,1.2226695710986852,-0.12353197938352822,-0.14216032668165862
1772526003786054700,7.8370546875,1.1612129396170376,-0.25687661999017,-0.1340563690725714
1772526003796038400,7.847038330078125,1.0734762039750814,-0.33525691374391314,-0.21293672130294142
1772526003806021400,7.857021484375,0.9358440953075885,-0.3600269056022167,-0.4694580981146544
1772526003816004600,7.867004638671875,0.7903589350521564,-0.3843063374646008,-0.8208014926541596
1772526003825988600,7.876988525390625,0.6254132875233889,-0.5175023633807897,-1.1771214334972202
1772526003835971600,7.8869716796875,0.4480038797408342,-0.7091279280424118,-1.4411428106755018
1772526003845954300,7.896954345703125,0.3247118465930223,-0.8875187480777501,-1.5399239412926136
1772526003855937500,7.9069375,0.23550854552984235,-0.8194900447294116,-1.7172995929360388
1772526003865920500,7.91692041015625,0.1233960780441761,-0.6876525938153266,-1.8020616966813803
1772526003875904500,7.926904541015625,0.03374269512593746,-0.6192614868953824,-1.6287481799103318
1772526003885887500,7.936887451171875,-0.018414777612686156,-0.5118921222835779,-1.3596250956788658
1772526003895870500,7.946870361328125,-0.038306057518720626,-0.3307281842730939,-1.1432801733676343
1772526003905853400,7.956853515625,-0.06153846454620361,-0.10859598379731178,-0.9713393331892788
1772526003915837400,7.96683740234375,-0.036269583255052563,0.062112757302820676,-0.7668918424859642
1772526003925820700,7.976820556640625,-0.025379940450191495,0.1268155310988426,-0.4984681021628901
1772526003935803400,7.986803466796875,0.001983867293596268,0.11604396171569824,-0.20790263612587004
1772526003945787400,7.996787353515625,0.1136620350152254,0.08321516656428575,-0.07587112394440919
1772526003955770400,8.006770263671875,0.27560207098722456,0.01374196349605918,-0.06328512555044144
1772526003965753600,8.016753662109375,0.43110067573487754,-0.10985475168675184,-0.05914904865901917
1772526003975736600,8.026736572265625,0.551211740759015,-0.21546163667067883,-0.07086648405753075
1772526003985719600,8.036719482421875,0.6661743369787931,-0.27009061408936974,-0.08832754114195704
1772526003995703600,8.04670361328125,0.7843687547266482,-0.3358057797983289,-0.11903689645398408
1772526004005686500,8.0566865234375,0.8798679410636424,-0.4138477815084159,-0.16194686757158486
1772526004015669500,8.06666943359375,0.9400795409202575,-0.482240203602612,-0.2551050437403843
1772526004025652500,8.076652587890624,0.9614730420827865,-0.5019035199716687,-0.3613289281114936
1772526004035636500,8.086636474609374,0.9991618444859981,-0.4883113402098417,-0.4683810434676707
1772526004045619500,8.096619384765624,1.0539695394724606,-0.48478959582448,-0.46662243629731237
1772526004055602400,8.1066025390625,1.1328653815329075,-0.48193771352469916,-0.393509963411279
1772526004065585700,8.116585693359376,1.1565683286815882,-0.4971754685364663,-0.3222312087584287
1772526004075569400,8.1265693359375,1.1396557723253964,-0.5117876389957964,-0.2858968897040933
1772526004085552400,8.136552490234376,1.1022013631999492,-0.4832812370881438,-0.2357463728737086
1772526004095535600,8.14653564453125,1.061063297125697,-0.4537663887903094,-0.1289607629666105
1772526004105518600,8.1565185546875,1.0408715729683637,-0.41117593195065855,-0.017381050650775432
1772526004115502600,8.166502685546876,1.0800035599172115,-0.38207638645544645,0.09947521382849663
1772526004125485300,8.1764853515625,1.104894840067625,-0.390961265309155,0.23124602924715726
1772526004135468500,8.186468505859375,1.134779690721631,-0.447004639570415,0.3219558624157682
1772526004145452500,8.19645263671875,1.0877800391376018,-0.5031663795143365,0.4183181318555027
1772526004155435500,8.206435546875,1.0241595076203345,-0.5101572613149881,0.5634367968861014
1772526004165418500,8.21641845703125,0.944437151607871,-0.39734234464839097,0.704560912387818
1772526004175401500,8.2264013671875,0.8071668619900941,-0.22814444650262594,0.8779697062268853
1772526004185384400,8.236384521484375,0.6043126318275928,-0.16769859949871896,1.212802622405067
1772526004195368400,8.246368408203125,0.23017770589590072,-0.22093992195129394,1.5841028363674878
1772526004205351700,8.2563515625,-0.3369645944446325,-0.22257088415399193,1.774289162006229
1772526004215334400,8.26633447265625,-1.0358365014106035,-0.12319003407806157,1.7562123841762542
1772526004225317400,8.2763173828125,-1.9111597847819328,-0.15658376963585613,1.6352403184086084
1772526004235301400,8.28630126953125,-2.7406238187760112,-0.2842011186368763,1.4042548032611608
1772526004245284600,8.29628466796875,-3.345757119336724,-0.43903804460540413,1.2604010435998438
1772526004255267300,8.306267333984374,-3.580994446709752,-0.7536015682801603,1.410947871159017
1772526004265250600,8.31625048828125,-3.3642525609701868,-0.9317819604352116,1.3627593020513653
1772526004275234600,8.326234619140624,-2.902232430836558,-0.7658157376870512,0.7721815463919192
1772526004285217500,8.336217529296874,-2.2642349715501067,-0.5947241347491741,0.08736188358073123
1772526004295200500,8.346200439453124,-1.5722499014884233,-0.44121348894834517,-0.28758654155777763
1772526004305183500,8.35618359375,-0.9873252762198448,-0.2198940661601722,-0.45752296484485266
1772526004315167500,8.36616748046875,-0.7017185285687446,-0.025296061559021473,-0.4489660027712583
1772526004325150500,8.376150390625,-0.7904273241132498,0.17597046102061867,-0.36007721101734785
1772526004335133400,8.386133544921876,-1.2009662733346222,0.5506212275199592,-0.2786466445812024
1772526004345116700,8.39611669921875,-1.7329279547005891,1.0410729407593606,-0.14561004701042546
1772526004355100000,8.406099853515625,-2.1374469129800797,1.4575650992967188,0.008257102344185113
1772526004365083000,8.416082763671875,-2.3579279852479695,1.7055905965723097,0.20297089707842095
1772526004375066000,8.426066162109375,-2.345875143882632,1.9527296664021907,0.2967367385504767
1772526004385049000,8.436049072265625,-2.130791546744108,2.2398222686968743,0.28248130910694597
1772526004395032800,8.44603271484375,-1.7894038751602173,2.358213670321554,0.29901553367003797
1772526004405016000,8.45601611328125,-1.3314660459041594,2.2712495264872907,0.36154918326605107
1772526004414999000,8.4659990234375,-0.7766273468196392,2.0851348342016336,0.4325750956689939
1772526004424982000,8.47598193359375,-0.22849895902872083,1.8975373560123145,0.43017983456291253
1772526004434966000,8.485966064453125,0.2441688218474388,1.7090525735944508,0.3812099788844585
1772526004444949000,8.495948974609375,0.6779588827967643,1.578332144011557,0.279832475098595
1772526004454932000,8.505931884765625,1.0494126068204641,1.443932149133086,0.16914397600144146
1772526004464915000,8.5159150390625,1.3426280759096145,1.3108945286490021,0.07965294403806328
1772526004474899000,8.52589892578125,1.5255010097950696,1.165354569466412,0.04460018922686577
1772526004484882200,8.535882080078125,1.5754256089150904,1.0167753887183963,0.03620871991328895
1772526004494865000,8.545864990234374,1.5197738643199203,0.9244865427300334,0.03871807238571345
1772526004504848100,8.55584814453125,1.3957763132512568,0.8879759903259575,0.046970425489544866
1772526004514832100,8.56583203125,1.2383236518263816,0.8903253299310803,0.07459953310601412
1772526004524815000,8.575815185546874,1.068700660136342,0.8453077920749783,0.04269187138751149
1772526004534797800,8.5857978515625,0.9517793310642242,0.7500644801951944,-0.013876695791631937
1772526004544781000,8.595781005859376,0.9064695322632789,0.6474385107181966,-0.09817249719947575
1772526004554765000,8.60576513671875,0.9181839354544877,0.5233049121797084,-0.15127550715990365
1772526004564748000,8.615748046875,0.9340431833654641,0.39195977482721206,-0.1795426204189658
1772526004574731000,8.62573095703125,0.9244061709702014,0.3033269671283662,-0.2062464298840612
1772526004584714000,8.6357138671875,0.8628712135553359,0.2488438279211521,-0.17099997913166878
1772526004594698000,8.645697998046876,0.827197258105874,0.21539806991517543,-0.14116437444686888
1772526004604681000,8.655680908203125,0.829084679287672,0.18514409368783236,-0.11465068072639405
1772526004614664200,8.665664306640625,0.8453156831204891,0.1357597389243543,-0.09511420560739933
1772526004624647000,8.67564697265625,0.8184995723873376,0.042520314212888474,-0.16666443414539098
1772526004634631000,8.685630859375,0.7815507746964693,-0.047293373833596705,-0.28935287537686527
1772526004644614000,8.69561376953125,0.7275947281032801,-0.13772417086511848,-0.3631482524931431
1772526004654597000,8.70559716796875,0.7309177350461482,-0.17933029284253715,-0.3752870916415006
1772526004664580000,8.715580078125,0.7084492981284857,-0.20031784355267881,-0.2568948862992227
1772526004674562800,8.725562744140625,0.647058133098483,-0.22157719694152472,-0.1400358088083565
1772526004684547000,8.735547119140625,0.6564332796871661,-0.21056582745313643,-0.032718393579497934
1772526004694530000,8.745530029296875,0.7806886049091816,-0.19992709066942332,0.04887487087137997
1772526004704513000,8.755512939453125,0.9109335259348154,-0.23524784876704213,0.13468728738725186
1772526004714497000,8.7654970703125,0.9717512749910354,-0.3052339697934687,0.1878597823873162
1772526004724480000,8.77547998046875,0.9741296945601701,-0.3087552757874131,0.11465089992210269
1772526004734463000,8.785462890625,0.9753314715653657,-0.4316897276692092,0.25504618969261644
1772526004744446000,8.795446044921874,0.947766003769636,-0.5049021172657608,0.29869696924015876
1772526004754429200,8.80542919921875,0.9195026168376207,-0.5790314755767584,0.3406958899274468
1772526004764413200,8.8154130859375,0.8713497035652399,-0.6407898664839565,0.3245960381936282
1772526004774396000,8.82539599609375,0.7991600811451673,-0.7691099569268525,0.2795461324378848
1772526004784379000,8.83537890625,0.6272878492236137,-0.8437024027049541,0.33601905722282827
1772526004794362000,8.845362060546876,0.44674423506855965,-0.775239984114468,0.3798934894584119
1772526004804346000,8.85534619140625,0.3664759356111288,-0.6752179135255515,0.4555441390525549
1772526004814328800,8.865328857421876,0.38219898992180823,-0.6143624628074467,0.5602583129804581
1772526004824312000,8.87531201171875,0.4911562082469463,-0.665949003790319,0.6667121701825409
1772526004834295000,8.885294921875,0.5657978999942541,-0.8781009313911199,0.6731900609597563
1772526004844279000,8.895279052734375,0.7014052248358726,-0.9999307830318808,0.6250318139251321
1772526004854262000,8.905261962890625,0.7475006210565567,-0.8763933968208729,0.762268493534252
1772526004864245000,8.915244873046875,0.7060463286399841,-0.9430752156049013,0.7869628628730774
1772526004874228000,8.92522802734375,0.6830822171598673,-1.137655538418889,0.5451251143217086
1772526004884212000,8.9352119140625,0.511257916033268,-1.0284358697652816,0.24287651701457796
1772526004894195200,8.9451953125,0.14588146609663963,-0.6336126683309674,0.24334004287309943
