time,seconds_elapsed,z,y,x
1772525996039019800,0.090019775390625,0.03385407105088234,-0.025631770491600037,-0.2814503312110901
1772525996049002800,0.100002685546875,0.07448352128267288,0.040153633803129196,-0.1452016830444336
1772525996058985700,0.10998583984375,0.12241660058498383,0.08837773650884628,-0.02936531975865364
1772525996068969700,0.1199697265625,0.1758582592010498,0.10413166880607605,0.04712839052081108
1772525996078952700,0.12995263671875,0.23281601071357727,0.07133875787258148,0.08207593113183975
1772525996088935700,0.139935791015625,0.2896939218044281,0.003048377111554146,0.07587768882513046
1772525996098919700,0.149919677734375,0.32339808344841003,-0.0669156014919281,0.0401885099709034
1772525996108902700,0.159902587890625,0.3443169593811035,-0.11834337562322617,-0.009443225339055061
1772525996118885600,0.1698857421875,0.35084086656570435,-0.13720016181468964,-0.06907335668802261
1772525996128870000,0.179869873046875,0.3505175709724426,-0.14299041032791138,-0.12273126095533371
1772525996138852600,0.1898525390625,0.35224252939224243,-0.1555505096912384,-0.17092369496822357
1772525996148835600,0.199835693359375,0.3531503975391388,-0.18832391500473022,-0.20951449871063232
1772525996158819600,0.209819580078125,0.35047727823257446,-0.20513585209846497,-0.23629003763198853
1772525996168802800,0.219802734375,0.3463248610496521,-0.21608036756515503,-0.25689011812210083
1772525996178785800,0.229785888671875,0.3325386941432953,-0.23844879865646362,-0.2620703876018524
1772525996188769800,0.239769775390625,0.3111817240715027,-0.2560637593269348,-0.25826579332351685
1772525996198752800,0.249752685546875,0.275471031665802,-0.26790669560432434,-0.25105544924736023
1772525996208735700,0.25973583984375,0.221481055021286,-0.27775585651397705,-0.24355463683605194
1772525996218719700,0.2697197265625,0.16659997403621674,-0.28010502457618713,-0.2311142086982727
1772525996228702700,0.27970263671875,0.11967185139656067,-0.25108572840690613,-0.2067345380783081
1772525996238685700,0.289685791015625,0.08895853161811829,-0.19652606546878815,-0.17686745524406433
1772525996248669700,0.299669677734375,0.06544867902994156,-0.15133993327617645,-0.1480850726366043
1772525996258652700,0.309652587890625,0.055666424334049225,-0.12187788635492325,-0.12400000542402267
1772525996268635600,0.3196357421875,0.05749309062957764,-0.11585620790719986,-0.09567781537771225
1772525996278619600,0.32961962890625,0.07457317411899567,-0.12151099741458893,-0.05917588248848915
1772525996288602600,0.3396025390625,0.10246046632528305,-0.12923070788383484,-0.01980583742260933
1772525996298585600,0.349585693359375,0.13773255050182343,-0.13065581023693085,0.019075902178883553
1772525996308569600,0.359569580078125,0.1809583157300949,-0.14867982268333435,0.06154852733016014
1772525996318552800,0.369552734375,0.22396914660930634,-0.17671574652194977,0.10227243602275848
1772525996328535800,0.379535888671875,0.26105713844299316,-0.20147356390953064,0.14182916283607483
1772525996338519800,0.389519775390625,0.2911260724067688,-0.1933913230895996,0.18768149614334106
1772525996348502800,0.399502685546875,0.31495630741119385,-0.16609898209571838,0.22705046832561493
1772525996358486000,0.409486083984375,0.31364119052886963,-0.15868616104125977,0.24218542873859406
1772525996368469800,0.4194697265625,0.27901023626327515,-0.14117933809757233,0.2353011518716812
1772525996378452700,0.42945263671875,0.23166479170322418,-0.11378483474254608,0.21464703977108002
1772525996388436000,0.43943603515625,0.17959119379520416,-0.0668756440281868,0.18624629080295563
1772525996398420000,0.449419921875,0.12060103565454483,-0.0238341037184,0.1499050408601761
1772525996408403000,0.45940283203125,0.07027608901262283,0.01901722326874733,0.12399568408727646
1772525996418385700,0.4693857421875,0.03247731178998947,0.08179865777492523,0.1167009025812149
1772525996428369700,0.47936962890625,0.018290387466549873,0.1529063880443573,0.12426400929689407
1772525996438353000,0.489352783203125,0.03413325175642967,0.20953768491744995,0.1463942676782608
1772525996448336000,0.4993359375,0.07157942652702332,0.21198193728923798,0.16561643779277802
1772525996458320000,0.50931982421875,0.1025322824716568,0.19781844317913055,0.18195092678070068
1772525996468302800,0.519302734375,0.12469404190778732,0.15708540380001068,0.1930914670228958
1772525996478285800,0.529285888671875,0.1421564817428589,0.08018277585506439,0.19867153465747833
1772525996488269800,0.539269775390625,0.14338472485542297,-0.0008175335824489594,0.19373536109924316
1772525996498252800,0.549252685546875,0.1253872662782669,-0.0809645727276802,0.17608588933944702
1772525996508236000,0.559236083984375,0.08226297050714493,-0.15842793881893158,0.12987658381462097
1772525996518220000,0.569219970703125,0.03706078976392746,-0.2197859138250351,0.06027800589799881
1772525996528202800,0.57920263671875,-0.021811051294207573,-0.2580603361129761,-0.018926534801721573
1772525996538185700,0.589185791015625,-0.06093120202422142,-0.2652425169944763,-0.0692085549235344
1772525996548169700,0.599169677734375,-0.07837145030498505,-0.22314141690731049,-0.09304091334342957
1772525996558153000,0.609153076171875,-0.08419497311115265,-0.18859687447547913,-0.0837448462843895
1772525996568135700,0.6191357421875,-0.06884478032588959,-0.158945232629776,-0.040111344307661057
1772525996578119700,0.62911962890625,-0.035208526998758316,-0.11200124025344849,0.03956681489944458
1772525996588103000,0.63910302734375,0.028330765664577484,-0.0318443588912487,0.14907759428024292
1772525996598086000,0.6490859375,0.12347553670406342,0.10387658327817917,0.2848111093044281
1772525996608070000,0.65906982421875,0.2500441074371338,0.27027300000190735,0.4226515293121338
1772525996618052600,0.669052490234375,0.3794761896133423,0.40557172894477844,0.5298548936843872
1772525996628035800,0.679035888671875,0.5013442635536194,0.5099772810935974,0.597258448600769
1772525996638019800,0.689019775390625,0.6010622978210449,0.5848831534385681,0.6252029538154602
1772525996648002800,0.6990029296875,0.6818854808807373,0.6234673261642456,0.6063757538795471
1772525996657986000,0.708986083984375,0.749576210975647,0.6554026007652283,0.5496090650558472
1772525996667970000,0.718969970703125,0.7901398539543152,0.6797396540641785,0.44269832968711853
1772525996677952800,0.728952880859375,0.820158064365387,0.7036224603652954,0.3042599856853485
1772525996687935700,0.738935791015625,0.8553102016448975,0.6950052380561829,0.13734504580497742
1772525996697919700,0.748919677734375,0.8850671648979187,0.6388979554176331,-0.05139073729515076
1772525996707903000,0.758903076171875,0.9052102565765381,0.5444875359535217,-0.2351704239845276
1772525996717885700,0.7688857421875,0.9226858615875244,0.4069622755050659,-0.40358230471611023
1772525996727869700,0.77886962890625,0.9220547080039978,0.21086041629314423,-0.5304244160652161
1772525996737853000,0.78885302734375,0.8872991800308228,-0.002391574438661337,-0.6202265620231628
1772525996747836000,0.7988359375,0.8069987893104553,-0.2278236299753189,-0.6540354490280151
1772525996757819000,0.80881884765625,0.6986677050590515,-0.39831796288490295,-0.6481664776802063
1772525996767802600,0.818802734375,0.5659796595573425,-0.4609784185886383,-0.6082292199134827
1772525996777785900,0.828785888671875,0.4255196750164032,-0.44616764783859253,-0.5663439035415649
1772525996787768800,0.838768798828125,0.28026527166366577,-0.3687860369682312,-0.5395690202713013
1772525996797752800,0.8487529296875,0.1498931348323822,-0.22825109958648682,-0.5183376669883728
1772525996807735800,0.85873583984375,0.03700147941708565,-0.011798698455095291,-0.5086067318916321
1772525996817718800,0.86871875,-0.03935854136943817,0.21741896867752075,-0.5153356790542603
1772525996827702800,0.878702880859375,-0.08439366519451141,0.4106701910495758,-0.5328328609466553
1772525996837685800,0.888685791015625,-0.08786669373512268,0.5415986180305481,-0.553058385848999
1772525996847669000,0.8986689453125,-0.06215467303991318,0.6173951029777527,-0.5631035566329956
1772525996857653000,0.908653076171875,-0.012654047459363937,0.6577007174491882,-0.5476805567741394
1772525996867635700,0.9186357421875,0.048487868160009384,0.6662350296974182,-0.4971659779548645
1772525996877618700,0.92861865234375,0.11108147352933884,0.6496902704238892,-0.40969187021255493
1772525996887602700,0.938602783203125,0.16919244825839996,0.6022170186042786,-0.3007459342479706
1772525996897586000,0.9485859375,0.21281172335147858,0.5092193484306335,-0.19592274725437164
1772525996907569000,0.95856884765625,0.23736314475536346,0.37440186738967896,-0.1068463996052742
1772525996917553000,0.968552978515625,0.23480002582073212,0.18562088906764984,-0.0491417720913887
1772525996927535900,0.978535888671875,0.1968204230070114,-0.02002415806055069,-0.0053990865126252174
1772525996937518800,0.988518798828125,0.1347641795873642,-0.18678151071071625,0.02851097658276558
1772525996947502800,0.9985029296875,0.06226973235607147,-0.2808781862258911,0.0293597262352705
1772525996957485800,1.00848583984375,0.0034462688490748405,-0.288801908493042,0.0008870800957083702
1772525996967468800,1.01846875,-0.042036525905132294,-0.21304377913475037,-0.0461249053478241
1772525996977452800,1.028452880859375,-0.07516146451234818,-0.04918087646365166,-0.08658114075660706
1772525996987435800,1.038435791015625,-0.08668256551027298,0.16354550421237946,-0.1166415736079216
1772525996997419000,1.0484189453125,-0.03792142868041992,0.3694259524345398,-0.10985832661390305
1772525997007403000,1.058403076171875,0.054855912923812866,0.5404930114746094,-0.06612389534711838
1772525997017385700,1.0683857421875,0.14314210414886475,0.6291972398757935,-0.007531109265983105
1772525997027368700,1.07836865234375,0.16936998069286346,0.6031317710876465,0.04073948413133621
1772525997037352700,1.088352783203125,0.13798001408576965,0.5010237097740173,0.08778070658445358
1772525997047336000,1.0983359375,0.059099581092596054,0.37433552742004395,0.12878060340881348
1772525997057319000,1.10831884765625,-0.05619907006621361,0.2229442000389099,0.15269041061401367
1772525997067303000,1.118302978515625,-0.19659772515296936,0.06225278973579407,0.1436372697353363
1772525997077286000,1.128285888671875,-0.33903056383132935,-0.0682285726070404,0.11259879916906357
1772525997087268900,1.138268798828125,-0.4683472514152527,-0.13495087623596191,0.06372899562120438
1772525997097252900,1.1482529296875,-0.5697052478790283,-0.1367899775505066,-0.013793166726827621
1772525997107235800,1.15823583984375,-0.6588742733001709,-0.11448866873979568,-0.12965905666351318
1772525997117218800,1.16821875,-0.7499362230300903,-0.065367192029953,-0.2952444851398468
1772525997127202800,1.178202880859375,-0.8491743803024292,0.007382377050817013,-0.49515119194984436
1772525997137185800,1.188185791015625,-0.9398874044418335,0.08799950778484344,-0.7030709981918335
1772525997147168800,1.198168701171875,-1.0006308555603027,0.14556771516799927,-0.8775597214698792
1772525997157152000,1.208152099609375,-1.0169225931167603,0.21638153493404388,-0.9754858016967773
1772525997167135700,1.2181357421875,-0.9808924794197083,0.31458213925361633,-0.9619883894920349
1772525997177118700,1.22811865234375,-0.8923265933990479,0.413156658411026,-0.8531201481819153
1772525997187102000,1.23810205078125,-0.7468045353889465,0.4780275523662567,-0.6571495532989502
1772525997197086000,1.2480859375,-0.5598293542861938,0.4956102967262268,-0.41225743293762207
1772525997207069000,1.25806884765625,-0.3641163110733032,0.454801082611084,-0.14093033969402313
1772525997217051600,1.2680517578125,-0.2054048776626587,0.35202527046203613,0.11289586871862411
1772525997227035600,1.27803564453125,-0.10096874833106995,0.2139643430709839,0.33399495482444763
1772525997237019000,1.288018798828125,-0.035953253507614136,0.07635103166103363,0.5010595321655273
1772525997247001900,1.298001953125,-0.005386290140450001,-0.059003863483667374,0.597239077091217
1772525997256985900,1.30798583984375,-0.005319542717188597,-0.1899997889995575,0.6181159615516663
1772525997266968800,1.31796875,-0.0312198493629694,-0.304612398147583,0.5569093227386475
1772525997276951800,1.327951904296875,-0.07973073422908783,-0.39979785680770874,0.4263734519481659
1772525997286935800,1.337935791015625,-0.1366179883480072,-0.47779223322868347,0.25072652101516724
1772525997296918800,1.347918701171875,-0.20479969680309296,-0.5403968691825867,0.06541867554187775
1772525997306902000,1.357902099609375,-0.28259411454200745,-0.5379962921142578,-0.09594811499118805
1772525997316886000,1.367885986328125,-0.38054507970809937,-0.5161710381507874,-0.21720917522907257
1772525997326868700,1.37786865234375,-0.46379363536834717,-0.5026336908340454,-0.29594260454177856
1772525997336851700,1.387851806640625,-0.5139526128768921,-0.48735103011131287,-0.31195417046546936
1772525997346836000,1.3978359375,-0.5341151356697083,-0.44782838225364685,-0.26241669058799744
1772525997356818400,1.407818359375,-0.5332868099212646,-0.38400065898895264,-0.14644761383533478
1772525997366801400,1.417801513671875,-0.5066400170326233,-0.3076781928539276,0.0174742229282856
1772525997376784600,1.42778466796875,-0.4466959536075592,-0.22355009615421295,0.19669419527053833
1772525997386768400,1.437768310546875,-0.3655070662498474,-0.12868563830852509,0.36392152309417725
1772525997396751400,1.44775146484375,-0.26566624641418457,-0.028846196830272675,0.5039277672767639
1772525997406734600,1.457734619140625,-0.16686856746673584,0.0817096084356308,0.5959609746932983
1772525997416718600,1.467718505859375,-0.06843449920415878,0.17332278192043304,0.6346735954284668
1772525997426701600,1.47770166015625,0.019877783954143524,0.23711533844470978,0.627406895160675
1772525997436684300,1.487684326171875,0.10735756903886795,0.27620264887809753,0.5890503525733948
1772525997446668300,1.497668212890625,0.18588779866695404,0.313527375459671,0.5352851152420044
1772525997456651500,1.507651611328125,0.25692105293273926,0.34729430079460144,0.48717382550239563
1772525997466634500,1.517634521484375,0.31752875447273254,0.3807979226112366,0.4487992823123932
1772525997476618500,1.527618408203125,0.37810108065605164,0.4037996828556061,0.43191513419151306
1772525997486601500,1.5376015625,0.4324447512626648,0.41744014620780945,0.427289217710495
1772525997496584400,1.54758447265625,0.4839993715286255,0.43543028831481934,0.4267670512199402
1772525997506568400,1.557568359375,0.526029646396637,0.4556300938129425,0.4186699688434601
1772525997516551400,1.567551513671875,0.5610153675079346,0.46898752450942993,0.4059889316558838
1772525997526534700,1.57753466796875,0.5905463695526123,0.47173699736595154,0.373540461063385
1772525997536518700,1.5875185546875,0.6190956830978394,0.4365769028663635,0.3233995735645294
1772525997546501400,1.59750146484375,0.6207519173622131,0.37578120827674866,0.25594595074653625
1772525997556484400,1.607484375,0.5883051753044128,0.3225290775299072,0.18035447597503662
1772525997566468400,1.61746826171875,0.5290586352348328,0.27586570382118225,0.11551129817962646
1772525997576451600,1.62745166015625,0.4609657824039459,0.2531416118144989,0.062400996685028076
1772525997586434300,1.637434326171875,0.40687698125839233,0.26161471009254456,0.03142524138092995
1772525997596418300,1.647418212890625,0.37603577971458435,0.30226534605026245,0.015007765032351017
1772525997606401500,1.657401611328125,0.37539955973625183,0.3525058925151825,0.009977852925658226
1772525997616384500,1.667384521484375,0.3980448842048645,0.3960493505001068,0.00099281407892704
1772525997626367500,1.677367431640625,0.4330606460571289,0.38950037956237793,-0.005499706603586674
1772525997636351200,1.687351318359375,0.4868064522743225,0.325874388217926,0.001020289957523346
1772525997646334500,1.69733447265625,0.5667572021484375,0.248460590839386,0.04588469862937927
1772525997656317400,1.7073173828125,0.6839662194252014,0.20737919211387634,0.1392994076013565
1772525997666301400,1.717301513671875,0.834333598613739,0.2046467810869217,0.27155303955078125
1772525997676284700,1.72728466796875,1.0004198551177979,0.2101093828678131,0.42488759756088257
1772525997686267400,1.737267333984375,1.1192958354949951,0.18133339285850525,0.5538280010223389
1772525997696251400,1.74725146484375,1.1594518423080444,0.11653798073530197,0.6377594470977783
1772525997706234400,1.757234375,1.1362369060516357,0.03366440162062645,0.6710066199302673
1772525997716217600,1.767217529296875,1.0807732343673706,-0.07646124809980392,0.6528566479682922
1772525997726201600,1.77720166015625,0.97913658618927,-0.2591905891895294,0.5664434432983398
1772525997736184300,1.787184326171875,0.8420893549919128,-0.4931427538394928,0.42680665850639343
1772525997746167300,1.797167236328125,0.6945246458053589,-0.7394025921821594,0.2642768621444702
1772525997756151600,1.807151611328125,0.5789135694503784,-0.9173921346664429,0.12012992054224014
1772525997766134500,1.817134521484375,0.495528906583786,-0.993458092212677,0.02071971260011196
1772525997776117500,1.827117431640625,0.4143058657646179,-0.9919363260269165,-0.057939253747463226
1772525997786101200,1.837101318359375,0.3635835647583008,-0.9260803461074829,-0.12117042392492294
1772525997796084500,1.84708447265625,0.3401770293712616,-0.8200210332870483,-0.17539739608764648
1772525997806067500,1.8570673828125,0.34305405616760254,-0.6911482214927673,-0.22514870762825012
1772525997816051500,1.867051513671875,0.36898115277290344,-0.5551154017448425,-0.265214204788208
1772525997826034400,1.877034423828125,0.4102633595466614,-0.4066343605518341,-0.28624677658081055
1772525997836017400,1.887017333984375,0.4544529318809509,-0.2444450408220291,-0.2768290936946869
1772525997846000400,1.89700048828125,0.513017475605011,-0.08288624882698059,-0.23183313012123108
1772525997855984400,1.906984375,0.5900472402572632,0.06416738778352737,-0.15150436758995056
1772525997865967600,1.916967529296875,0.6843838691711426,0.188944473862648,-0.049942050129175186
1772525997875950600,1.92695068359375,0.7850617170333862,0.2852906286716461,0.040829405188560486
1772525997885934300,1.936934326171875,0.8832037448883057,0.28340673446655273,0.08807361125946045
1772525997895917300,1.946917236328125,0.9724995493888855,0.18090210855007172,0.07870349287986755
1772525997905900500,1.956900634765625,1.0447190999984741,0.07006588578224182,0.025643471628427505
1772525997915884500,1.966884521484375,1.0861430168151855,-0.027884531766176224,-0.06428796052932739
1772525997925867500,1.976867431640625,1.098594069480896,-0.142121359705925,-0.18034079670906067
1772525997935850500,1.9868505859375,1.0754984617233276,-0.2729661464691162,-0.3054552972316742
1772525997945834500,1.99683447265625,1.0218186378479004,-0.43225035071372986,-0.42437610030174255
1772525997955817500,2.0068173828125,0.9310727715492249,-0.5603533387184143,-0.5125081539154053
1772525997965800400,2.016800537109375,0.8289442658424377,-0.6268202066421509,-0.5637766122817993
1772525997975784400,2.026784423828125,0.7172691226005554,-0.6611436605453491,-0.5809854865074158
1772525997985767400,2.036767333984375,0.611068606376648,-0.6497876644134521,-0.5536779761314392
1772525997995750400,2.04675048828125,0.527371883392334,-0.5642840266227722,-0.4878934621810913
1772525998005733400,2.0567333984375,0.47173872590065,-0.43197551369667053,-0.3983609080314636
1772525998015717600,2.066717529296875,0.44885966181755066,-0.27951809763908386,-0.2902558445930481
1772525998025700600,2.07670068359375,0.46229690313339233,-0.10249511897563934,-0.16319750249385834
1772525998035683300,2.086683349609375,0.5038506984710693,0.08436635136604309,-0.03198275342583656
1772525998045667300,2.096667236328125,0.549606442451477,0.22596901655197144,0.07557513564825058
1772525998055650600,2.106650634765625,0.5643078684806824,0.28981465101242065,0.1447497308254242
1772525998065633500,2.116633544921875,0.5532235503196716,0.3280640244483948,0.18392722308635712
1772525998075617500,2.126617431640625,0.5154730677604675,0.3748950660228729,0.21487170457839966
1772525998085600300,2.136600341796875,0.44973692297935486,0.42513614892959595,0.23815199732780457
1772525998095583500,2.14658349609375,0.36396437883377075,0.48233747482299805,0.25895097851753235
1772525998105567500,2.1565673828125,0.25283414125442505,0.5417051911354065,0.27994653582572937
1772525998115550500,2.166550537109375,0.12417630106210709,0.6068452596664429,0.3001459240913391
1772525998125533400,2.176533447265625,-0.011606302112340927,0.6417878270149231,0.3104504942893982
1772525998135517400,2.186517333984375,-0.12528467178344727,0.6429699659347534,0.3120254874229431
1772525998145500400,2.19650048828125,-0.22454334795475006,0.6012430191040039,0.29139503836631775
1772525998155483400,2.2064833984375,-0.287541925907135,0.536229133605957,0.25945451855659485
1772525998165466600,2.216466552734375,-0.3255111575126648,0.4555515944957733,0.22234764695167542
1772525998175450600,2.22645068359375,-0.3464808762073517,0.37242060899734497,0.17264580726623535
1772525998185433300,2.236433349609375,-0.3439213037490845,0.30239757895469666,0.11930269002914429
1772525998195416600,2.24641650390625,-0.3438073992729187,0.2147873491048813,0.059949085116386414
1772525998205400600,2.256400634765625,-0.3392685651779175,0.1057354211807251,0.00004340801388025284
1772525998215383600,2.266383544921875,-0.3386441171169281,-0.020741233602166176,-0.05328085273504257
1772525998225366300,2.2763662109375,-0.34400105476379395,-0.15103265643119812,-0.09097950160503387
1772525998235350300,2.286350341796875,-0.3401634991168976,-0.2631041407585144,-0.11155875027179718
1772525998245333500,2.29633349609375,-0.3360760807991028,-0.3477087914943695,-0.11626002937555313
1772525998255316500,2.30631640625,-0.3340489864349365,-0.418160080909729,-0.11426863074302673
1772525998265300500,2.316300537109375,-0.35176753997802734,-0.4569636583328247,-0.09921963512897491
1772525998275283500,2.326283447265625,-0.35658103227615356,-0.4515269696712494,-0.06735245883464813
1772525998285266400,2.336266357421875,-0.36107030510902405,-0.416660338640213,-0.024848680943250656
1772525998295250400,2.34625048828125,-0.3470185697078705,-0.37125980854034424,0.030304590240120888
1772525998305233400,2.3562333984375,-0.3173685371875763,-0.31099966168403625,0.08451402932405472
1772525998315216600,2.366216552734375,-0.278591513633728,-0.23810459673404694,0.13918638229370117
1772525998325199400,2.376199462890625,-0.23985794186592102,-0.22600293159484863,0.1636081039905548
1772525998335183400,2.386183349609375,-0.23739133775234222,-0.2807381749153137,0.14862607419490814
1772525998345166300,2.396166259765625,-0.2717517018318176,-0.33267512917518616,0.09823399782180786
1772525998355150300,2.406150390625,-0.3330124616622925,-0.37536367774009705,0.0037495712749660015
1772525998365134300,2.41613427734375,-0.4176754355430603,-0.4364347755908966,-0.1487683355808258
1772525998375117000,2.426116943359375,-0.5276181697845459,-0.5005610585212708,-0.3459935784339905
1772525998385100000,2.43610009765625,-0.6576541662216187,-0.5081132650375366,-0.5571167469024658
1772525998395084000,2.446083984375,-0.7871562838554382,-0.4444535970687866,-0.7371132373809814
1772525998405067300,2.4560673828125,-0.8907500505447388,-0.3148852288722992,-0.849658191204071
1772525998415050000,2.466050048828125,-0.9406558871269226,-0.13705989718437195,-0.8900236487388611
1772525998425034000,2.476033935546875,-0.9368352890014648,0.009222747758030891,-0.8772916197776794
1772525998435017200,2.486017333984375,-0.8741502165794373,0.12042991816997528,-0.8275701403617859
1772525998445000200,2.496000244140625,-0.7723284959793091,0.19131608307361603,-0.755251944065094
1772525998454983200,2.505983154296875,-0.6535288691520691,0.2138296514749527,-0.6763848662376404
1772525998464967000,2.515966796875,-0.5480242967605591,0.19610151648521423,-0.6058558225631714
1772525998474950100,2.5259501953125,-0.4793674051761627,0.15227429568767548,-0.5447596311569214
1772525998484933000,2.53593310546875,-0.44537293910980225,0.11980076134204865,-0.4885788857936859
1772525998494917000,2.545917236328125,-0.4376780688762665,0.11050564795732498,-0.4222858250141144
1772525998504900000,2.555900146484375,-0.425798237323761,0.08977080881595612,-0.3506491780281067
1772525998514883000,2.565883056640625,-0.3990372121334076,0.04146985337138176,-0.27615484595298767
1772525998524867000,2.5758671875,-0.3448203206062317,-0.03704998642206192,-0.20024728775024414
1772525998534850000,2.58585009765625,-0.2894044518470764,-0.10946120321750641,-0.11733786761760712
1772525998544833300,2.595833251953125,-0.22904923558235168,-0.16019921004772186,-0.031568363308906555
1772525998554817300,2.6058173828125,-0.17254148423671722,-0.21999795734882355,0.051004327833652496
1772525998564800000,2.615800048828125,-0.11853496730327606,-0.30281534790992737,0.11666776239871979
1772525998574783000,2.625782958984375,-0.0688011646270752,-0.40189364552497864,0.1830185055732727
1772525998584766200,2.63576611328125,-0.03177550435066223,-0.4753321707248688,0.2509637176990509
1772525998594750200,2.645750244140625,-0.01372806541621685,-0.5481207370758057,0.3070636987686157
1772525998604733200,2.655733154296875,-0.030234869569540024,-0.647999107837677,0.3260326087474823
1772525998614716200,2.665716064453125,-0.08787055313587189,-0.7509663105010986,0.3001808524131775
1772525998624700200,2.6757001953125,-0.1694391816854477,-0.7893081307411194,0.2395516037940979
1772525998634683100,2.68568310546875,-0.24997030198574066,-0.7388880848884583,0.16600392758846283
1772525998644666000,2.695666015625,-0.3237752914428711,-0.612557053565979,0.09355742484331131
1772525998654650000,2.705650146484375,-0.36919838190078735,-0.44630253314971924,0.034564100205898285
1772525998664633000,2.715633056640625,-0.35359516739845276,-0.2468099296092987,0.005923135206103325
1772525998674616000,2.725615966796875,-0.30129921436309814,-0.01968371495604515,0.022763578221201897
1772525998684600000,2.73560009765625,-0.2085823267698288,0.2008475959300995,0.07137105613946915
1772525998694583300,2.745583251953125,-0.07304020971059799,0.4082571268081665,0.15760080516338348
1772525998704566300,2.755566162109375,0.06922665238380432,0.5553714036941528,0.25716760754585266
1772525998714549000,2.765549072265625,0.18523192405700684,0.6288877129554749,0.34803247451782227
1772525998724533000,2.775532958984375,0.26349928975105286,0.6754903793334961,0.42181962728500366
1772525998734516200,2.78551611328125,0.31380903720855713,0.7026210427284241,0.47677677869796753
1772525998744499200,2.795499267578125,0.35589390993118286,0.705470085144043,0.5088379979133606
1772525998754483200,2.805483154296875,0.38477441668510437,0.6853647828102112,0.5142544507980347
1772525998764466000,2.8154658203125,0.4010079801082611,0.6716223359107971,0.49903449416160583
1772525998774449200,2.82544921875,0.407626748085022,0.648016095161438,0.46848219633102417
1772525998784433200,2.83543310546875,0.4013437032699585,0.6174885630607605,0.42225947976112366
1772525998794416000,2.845416015625,0.3884319067001343,0.587070643901825,0.37173938751220703
1772525998804399000,2.855399169921875,0.36956554651260376,0.5396626591682434,0.3205896317958832
1772525998814383000,2.865383056640625,0.3542754352092743,0.48791438341140747,0.2798071503639221
1772525998824366000,2.875365966796875,0.3445655405521393,0.4466567039489746,0.24967853724956512
1772525998834349000,2.88534912109375,0.3352814316749573,0.42443519830703735,0.2212364673614502
1772525998844332300,2.895332275390625,0.328355610370636,0.4065991938114166,0.1926375776529312
1772525998854316300,2.90531640625,0.319863498210907,0.38246989250183105,0.15182501077651978
1772525998864299000,2.915299072265625,0.3122849464416504,0.3615363836288452,0.11195375770330429
1772525998874282200,2.9252822265625,0.2994636297225952,0.3396276533603668,0.07012428343296051
1772525998884266200,2.935266357421875,0.27666881680488586,0.283832848072052,0.02479914203286171
1772525998894249200,2.945249267578125,0.23969899117946625,0.20689362287521362,-0.025632552802562714
1772525998904232000,2.95523193359375,0.20651812851428986,0.15085351467132568,-0.06275621801614761
1772525998914216000,2.9652158203125,0.16822542250156403,0.10950849205255508,-0.10020265728235245
1772525998924199200,2.97519921875,0.12746654450893402,0.06465686857700348,-0.14677736163139343
1772525998934182100,2.98518212890625,0.09164975583553314,0.03730429336428642,-0.20490841567516327
1772525998944166100,2.995166259765625,0.06928985565900803,0.019987620413303375,-0.26639387011528015
1772525998954149000,3.005149169921875,0.0759136974811554,0.014374746941030025,-0.30847588181495667
1772525998964132000,3.015132080078125,0.10317301005125046,-0.028869131579995155,-0.3270426392555237
1772525998974115000,3.025114990234375,0.17089086771011353,-0.10495202243328094,-0.3078188896179199
1772525998984099000,3.03509912109375,0.2580540180206299,-0.22278599441051483,-0.2580569088459015
1772525998994082300,3.045082275390625,0.34875574707984924,-0.3537302613258362,-0.19706647098064423
1772525999004065000,3.05506494140625,0.40856289863586426,-0.5065879821777344,-0.13650192320346832
1772525999014049000,3.065049072265625,0.42433664202690125,-0.6497206687927246,-0.09586447477340698
1772525999024032000,3.075031982421875,0.38459402322769165,-0.7952799797058105,-0.08342085778713226
1772525999034015200,3.08501513671875,0.2990502417087555,-0.891646683216095,-0.0992552861571312
1772525999043999200,3.094999267578125,0.21223199367523193,-0.9071904420852661,-0.10608310252428055
1772525999053982000,3.10498193359375,0.170467346906662,-0.8373188376426697,-0.07620609551668167
1772525999063965200,3.114965087890625,0.18042224645614624,-0.6863287687301636,-0.008015057072043419
1772525999073948200,3.1249482421875,0.25799107551574707,-0.4729031026363373,0.10884132236242294
1772525999083932200,3.13493212890625,0.38939544558525085,-0.25313690304756165,0.23819051682949066
1772525999093915100,3.1449150390625,0.5495747923851013,-0.052343614399433136,0.3599346876144409
1772525999103898000,3.154898193359375,0.7183113694190979,0.0998280793428421,0.463712215423584
1772525999113882000,3.164882080078125,0.8604094982147217,0.18767695128917694,0.5362273454666138
1772525999123865000,3.174864990234375,0.9494597911834717,0.20192086696624756,0.5737824440002441
1772525999133848000,3.18484814453125,0.9934839606285095,0.18507865071296692,0.5912248492240906
1772525999143832300,3.194832275390625,0.9847972393035889,0.17804338037967682,0.5980209708213806
1772525999153815000,3.20481494140625,0.9524224400520325,0.21247537434101105,0.6168917417526245
1772525999163798000,3.214798095703125,0.9296430945396423,0.2890377640724182,0.6469039916992188
1772525999173781200,3.22478125,0.9252932071685791,0.3708685636520386,0.678265392780304
1772525999183765200,3.23476513671875,0.9352459907531738,0.4178009033203125,0.6910237669944763
1772525999193748200,3.244748291015625,0.954315185546875,0.4072405695915222,0.6658802032470703
1772525999203731000,3.25473095703125,0.9712100028991699,0.3517616093158722,0.6090661883354187
1772525999213715200,3.264715087890625,0.9704557657241821,0.25172218680381775,0.5179730653762817
1772525999223698200,3.2746982421875,0.9497491717338562,0.10860335826873779,0.4182051718235016
1772525999233681200,3.28468115234375,0.9103902578353882,-0.07541470229625702,0.32003557682037354
1772525999243665200,3.2946650390625,0.8437398672103882,-0.252776175737381,0.2429375946521759
1772525999253648100,3.304648193359375,0.7551524639129639,-0.3812023997306824,0.18585321307182312
1772525999263631000,3.314631103515625,0.6635924577713013,-0.4358009099960327,0.14750050008296967
1772525999273614000,3.324614013671875,0.5808846354484558,-0.44547271728515625,0.11248142272233963
1772525999283598000,3.33459814453125,0.5059757232666016,-0.41556620597839355,0.07986462116241455
1772525999293581000,3.3445810546875,0.4466398060321808,-0.36388301849365234,0.056020546704530716
1772525999303564000,3.35456396484375,0.38404807448387146,-0.30868953466415405,0.04314495995640755
1772525999313548000,3.364548095703125,0.30806657671928406,-0.2474987804889679,0.0334889218211174
1772525999323531300,3.37453125,0.23541899025440216,-0.14821428060531616,0.042121823877096176
1772525999333514200,3.38451416015625,0.19078929722309113,-0.031337104737758636,0.061853233724832535
1772525999343498200,3.394498291015625,0.18079204857349396,0.0956951454281807,0.09756862372159958
1772525999353481000,3.40448095703125,0.20690947771072388,0.20473569631576538,0.127589151263237
1772525999363464000,3.4144638671875,0.2660537660121918,0.29097631573677063,0.15219995379447937
1772525999373447000,3.424447021484375,0.34389814734458923,0.3677951693534851,0.16960078477859497
1772525999383431000,3.434430908203125,0.41715478897094727,0.4392578899860382,0.16673654317855835
1772525999393414100,3.4444140625,0.4740419387817383,0.4907613694667816,0.14667432010173798
1772525999403396900,3.45439697265625,0.5048235058784485,0.5309106111526489,0.1187974065542221
1772525999413380900,3.464380859375,0.5131630897521973,0.5482227802276611,0.08097702264785767
1772525999423363800,3.47436376953125,0.5003905892372131,0.5518878102302551,0.04452899843454361
1772525999433347000,3.48434716796875,0.4745869040489197,0.5510362386703491,0.001589341089129448
1772525999443331000,3.4943310546875,0.4387814998626709,0.5334388613700867,-0.054154347628355026
1772525999453314000,3.50431396484375,0.3964872360229492,0.5060293078422546,-0.1212439313530922
1772525999463296800,3.514296875,0.350028932094574,0.46277186274528503,-0.1919228881597519
1772525999473280000,3.524280029296875,0.2987562119960785,0.41769731044769287,-0.26532721519470215
1772525999483264000,3.534263916015625,0.2382982075214386,0.38870880007743835,-0.32237717509269714
1772525999493247000,3.5442470703125,0.17379432916641235,0.35165122151374817,-0.36137139797210693
1772525999503230000,3.55422998046875,0.1096574142575264,0.2798422873020172,-0.3813667297363281
1772525999513214000,3.5642138671875,0.0591449961066246,0.1739388108253479,-0.38195765018463135
1772525999523197000,3.574197021484375,0.037908948957920074,0.06977087259292603,-0.35952237248420715
1772525999533180000,3.584179931640625,0.031413473188877106,-0.020619669929146767,-0.3171808421611786
1772525999543164000,3.594163818359375,0.028268812224268913,-0.1024082750082016,-0.25326046347618103
1772525999553147000,3.60414697265625,0.029765447601675987,-0.18637551367282867,-0.16820333898067474
1772525999563129900,3.6141298828125,0.055018339306116104,-0.2611405551433563,-0.0663672536611557
1772525999573113000,3.624113037109375,0.08732529729604721,-0.26979491114616394,0.05660535767674446
1772525999583097000,3.63409716796875,0.13766196370124817,-0.18220648169517517,0.17102381587028503
1772525999593080000,3.644080078125,0.20452889800071716,-0.0440986230969429,0.24943581223487854
1772525999603062800,3.654062744140625,0.251236230134964,0.07849892973899841,0.23842763900756836
1772525999613046800,3.664046875,0.2701985239982605,0.11217949539422989,0.12219683080911636
1772525999623030000,3.674030029296875,0.2276177853345871,0.05737936496734619,-0.06884396076202393
1772525999633013000,3.684012939453125,0.13127785921096802,-0.011992616578936577,-0.2858206629753113
1772525999642997000,3.6939970703125,-0.010063821449875832,-0.07829228043556213,-0.4894792437553406
1772525999652980000,3.70397998046875,-0.17440199851989746,-0.10145606845617294,-0.6514890193939209
1772525999662963000,3.713962890625,-0.3030073940753937,-0.04456402361392975,-0.7429829835891724
1772525999672946000,3.72394580078125,-0.36895400285720825,0.06745609641075134,-0.7631920576095581
1772525999682930000,3.733929931640625,-0.38256382942199707,0.19897231459617615,-0.7242094874382019
1772525999692913200,3.7439130859375,-0.3220873475074768,0.35406267642974854,-0.6414676904678345
1772525999702895900,3.753895751953125,-0.2005358785390854,0.49831438064575195,-0.5284457802772522
1772525999712879900,3.7638798828125,-0.05042795464396477,0.577296257019043,-0.4193853735923767
1772525999722862800,3.77386279296875,0.08061634749174118,0.5821578502655029,-0.33567526936531067
1772525999732846000,3.78384619140625,0.18532875180244446,0.5497105121612549,-0.2687498927116394
1772525999742830000,3.793830078125,0.24898894131183624,0.5034295320510864,-0.20387740433216095
1772525999752812800,3.803812744140625,0.27023980021476746,0.4470822513103485,-0.13941127061843872
1772525999762796000,3.813796142578125,0.2669750452041626,0.3845091760158539,-0.056583236902952194
1772525999772779000,3.823779052734375,0.25556251406669617,0.3330935537815094,0.04539967700839043
1772525999782763000,3.833762939453125,0.25105512142181396,0.28111958503723145,0.1610274761915207
1772525999792746000,3.84374609375,0.2576353847980499,0.22083573043346405,0.278639554977417
1772525999802729000,3.85372900390625,0.25157853960990906,0.17857083678245544,0.36882564425468445
1772525999812713000,3.863712890625,0.23982837796211243,0.08781709522008896,0.4066013693809509
1772525999822696000,3.873696044921875,0.21634383499622345,-0.05419677123427391,0.3949625492095947
1772525999832679000,3.883678955078125,0.16968248784542084,-0.2069898545742035,0.34777089953422546
1772525999842662000,3.893661865234375,0.11517317593097687,-0.28496986627578735,0.31231117248535156
1772525999852646000,3.90364599609375,0.05572938546538353,-0.2694701850414276,0.29866984486579895
1772525999862628900,3.91362890625,-0.006229854188859463,-0.2261861115694046,0.29929566383361816
1772525999872612000,3.923612060546875,-0.06138285994529724,-0.19737455248832703,0.2996319830417633
1772525999882596000,3.93359619140625,-0.10782039910554886,-0.14257656037807465,0.2988884150981903
1772525999892578800,3.943578857421875,-0.15729384124279022,-0.06532257050275803,0.28190046548843384
1772525999902561800,3.953561767578125,-0.20260514318943024,0.025920260697603226,0.23607893288135529
1772525999912545800,3.9635458984375,-0.2377808839082718,0.10885705053806305,0.16841258108615875
1772525999922529000,3.973529052734375,-0.24064324796199799,0.18090061843395233,0.08064118772745132
1772525999932512000,3.983511962890625,-0.20233909785747528,0.22380173206329346,-0.01056862436234951
1772525999942495000,3.993494873046875,-0.12462912499904633,0.23675134778022766,-0.08977502584457397
1772525999952479000,4.00347900390625,-0.02703280933201313,0.26185938715934753,-0.1448674350976944
1772525999962462000,4.0134619140625,0.07585655152797699,0.3048419952392578,-0.16426962614059448
1772525999972445000,4.02344482421875,0.17691819369792938,0.3540075421333313,-0.16469620168209076
1772525999982429000,4.033428955078125,0.25665855407714844,0.4048803150653839,-0.15119265019893646
1772525999992412000,4.043411865234375,0.3206060230731964,0.4497165381908417,-0.12422584742307663
1772526000002395000,4.053394775390625,0.350938081741333,0.4923470914363861,-0.09268496930599213
1772526000012377900,4.0633779296875,0.3604194223880768,0.5115931630134583,-0.07001936435699463
1772526000022362000,4.073362060546875,0.35387948155403137,0.4950927495956421,-0.05570913478732109
1772526000032345000,4.083344970703125,0.33446308970451355,0.46139106154441833,-0.05696238577365875
1772526000042327800,4.093327880859375,0.3123362362384796,0.40324386954307556,-0.07082653790712357
1772526000052311800,4.103311767578125,0.293596088886261,0.3184325098991394,-0.09286370128393173
1772526000062295000,4.113294921875,0.27201488614082336,0.218329057097435,-0.11564810574054718
1772526000072278000,4.123278076171875,0.26516371965408325,0.1106763482093811,-0.14556273818016052
1772526000082260700,4.1332607421875,0.2757585644721985,0.016687005758285522,-0.16709759831428528
1772526000092244700,4.14324462890625,0.30561721324920654,-0.032904770225286484,-0.1810608059167862
1772526000102228000,4.15322802734375,0.342156320810318,-0.06295587867498398,-0.18573972582817078
1772526000112211000,4.1632109375,0.3731192946434021,-0.07368335872888565,-0.1835801601409912
1772526000122195000,4.17319482421875,0.3989729881286621,-0.06814344972372055,-0.16847604513168335
1772526000132178200,4.18317822265625,0.40885379910469055,-0.05667945370078087,-0.15223601460456848
1772526000142161000,4.193160888671875,0.40027788281440735,-0.04386219009757042,-0.12958768010139465
1772526000152145000,4.203144775390625,0.3717339336872101,-0.02595965377986431,-0.09615544229745865
1772526000162128000,4.2131279296875,0.33874747157096863,0.004474684130400419,-0.03995714709162712
1772526000172111000,4.223111083984375,0.300595223903656,0.023182393983006477,0.016814013943076134
1772526000182093800,4.23309375,0.2650361657142639,0.03636211156845093,0.06559380143880844
1772526000192077800,4.243077880859375,0.23915910720825195,0.0533471517264843,0.10203487426042557
1772526000202061000,4.25306103515625,0.21977902948856354,0.07333577424287796,0.11267740279436111
1772526000212044000,4.2630439453125,0.19749405980110168,0.10364768654108047,0.10127232223749161
1772526000222028000,4.273028076171875,0.18638867139816284,0.12119285762310028,0.07423218339681625
1772526000232010800,4.2830107421875,0.18293292820453644,0.11425728350877762,0.03252139315009117
1772526000241994000,4.292993896484375,0.19972069561481476,0.14806824922561646,0.00570629071444273
1772526000251977000,4.30297705078125,0.24048936367034912,0.2603861689567566,-0.014198888093233109
1772526000261961000,4.3129609375,0.27648359537124634,0.33137965202331543,-0.05686033517122269
1772526000271944000,4.32294384765625,0.27010077238082886,0.30986136198043823,-0.1503596305847168
1772526000281927000,4.332927001953125,0.2167174369096756,0.27258962392807007,-0.2607034146785736
1772526000291911000,4.342910888671875,0.12203088402748108,0.20939895510673523,-0.37202224135398865
1772526000301894000,4.352893798828125,-0.012183377519249916,0.10030468553304672,-0.4815375506877899
1772526000311877000,4.362877197265625,-0.17585504055023193,-0.012443607673048973,-0.5626307725906372
1772526000321860000,4.372860107421875,-0.32174381613731384,-0.038633134216070175,-0.6016415357589722
1772526000331843800,4.38284375,-0.4193144738674164,0.00518518453463912,-0.5984533429145813
1772526000341826800,4.392826904296875,-0.46354052424430847,0.04948606714606285,-0.5612468123435974
1772526000351809300,4.402809326171875,-0.44205859303474426,0.11990460753440857,-0.4942319691181183
1772526000361793300,4.412793212890625,-0.36512625217437744,0.21255278587341309,-0.38887491822242737
1772526000371776300,4.4227763671875,-0.2453925758600235,0.2864235043525696,-0.2611484229564667
1772526000381759500,4.432759521484375,-0.10989946126937866,0.32656988501548767,-0.14176449179649353
1772526000391742500,4.442742431640625,0.022181527689099312,0.3172658681869507,-0.033610567450523376
1772526000401726500,4.4527265625,0.13382363319396973,0.2839193642139435,0.06472133100032806
1772526000411709200,4.462709228515625,0.2090846449136734,0.24427960813045502,0.15590664744377136
1772526000421692400,4.4726923828125,0.2478914111852646,0.222781240940094,0.24570657312870026
1772526000431676400,4.482676513671875,0.2813093066215515,0.23967459797859192,0.3280148506164551
1772526000441659400,4.492659423828125,0.32570260763168335,0.30020371079444885,0.4071405529975891
1772526000451642400,4.502642333984375,0.3699999451637268,0.3692384660243988,0.4562596380710602
1772526000461625300,4.512625244140625,0.40855610370635986,0.4101907014846802,0.46429598331451416
1772526000471609300,4.522609375,0.42209795117378235,0.3949141204357147,0.42474064230918884
1772526000481592300,4.53259228515625,0.39738887548446655,0.32192325592041016,0.3345889151096344
1772526000491575600,4.542575439453125,0.34764838218688965,0.21001236140727997,0.21165642142295837
1772526000501559300,4.552559326171875,0.26714369654655457,0.07418236136436462,0.0545421727001667
1772526000511542300,4.562542236328125,0.1786690205335617,-0.06937473267316818,-0.09776507318019867
1772526000521525500,4.572525390625,0.09423083066940308,-0.2045259028673172,-0.22698430716991425
1772526000531508500,4.582508544921875,0.011857233010232449,-0.34377601742744446,-0.32753223180770874
1772526000541492500,4.592492431640625,-0.06794092804193497,-0.4713539481163025,-0.39750492572784424
1772526000551475200,4.60247509765625,-0.13731494545936584,-0.5801618695259094,-0.42870065569877625
1772526000561458400,4.61245849609375,-0.20495390892028809,-0.648766279220581,-0.4153166711330414
1772526000571442400,4.6224423828125,-0.25880861282348633,-0.6777398586273193,-0.35466793179512024
1772526000581425400,4.63242529296875,-0.2857523560523987,-0.6432532072067261,-0.2398097962141037
1772526000591408400,4.642408447265625,-0.2882020175457001,-0.5406474471092224,-0.08143945783376694
1772526000601392400,4.652392333984375,-0.26840940117836,-0.38735321164131165,0.10791635513305664
1772526000611375400,4.662375244140625,-0.20818261802196503,-0.21267257630825043,0.2849194407463074
1772526000621358300,4.6723583984375,-0.12949420511722565,-0.04781544581055641,0.43534278869628906
1772526000631341600,4.682341552734375,-0.036059968173503876,0.08580154180526733,0.5276468992233276
1772526000641325600,4.69232568359375,0.03969071805477142,0.15491217374801636,0.5702252388000488
1772526000651308300,4.702308349609375,0.10430071502923965,0.17834152281284332,0.5749880075454712
1772526000661291300,4.712291259765625,0.1497984230518341,0.18270298838615417,0.5635526776313782
1772526000671275300,4.722275146484375,0.17715315520763397,0.15329159796237946,0.5469488501548767
1772526000681258500,4.732258544921875,0.18620817363262177,0.1170228123664856,0.5440068244934082
1772526000691241200,4.7422412109375,0.18993838131427765,0.09168758988380432,0.5586218237876892
1772526000701224400,4.752224365234375,0.19482341408729553,0.05061951279640198,0.5865355134010315
1772526000711208400,4.76220849609375,0.21212953329086304,0.011036843061447144,0.599678635597229
1772526000721191400,4.77219140625,0.23654645681381226,-0.014438956044614315,0.5916630625724792
1772526000731174400,4.78217431640625,0.27240726351737976,-0.015648502856492996,0.5579401850700378
1772526000741158400,4.792158447265625,0.3159579336643219,0.011086172424256802,0.5095753073692322
1772526000751141400,4.802141357421875,0.3575524091720581,0.06190013140439987,0.45134252309799194
1772526000761124400,4.812124267578125,0.38792017102241516,0.12408121675252914,0.4105977416038513
1772526000771107300,4.822107421875,0.4064164459705353,0.20521432161331177,0.39573484659194946
1772526000781091300,4.83209130859375,0.4114397168159485,0.2678188383579254,0.393976628780365
1772526000791074300,4.84207421875,0.41260525584220886,0.27216991782188416,0.40059709548950195
1772526000801057300,4.852057373046875,0.4169347584247589,0.21132095158100128,0.41500505805015564
1772526000811041300,4.862041259765625,0.4184899628162384,0.1080864667892456,0.42954781651496887
1772526000821024500,4.8720244140625,0.4097747504711151,-0.044048212468624115,0.43859219551086426
1772526000831007500,4.882007568359375,0.3739033341407776,-0.2305702418088913,0.4427480101585388
1772526000840990200,4.891990234375,0.3111336827278137,-0.39464306831359863,0.45500442385673523
1772526000850974200,4.90197412109375,0.2304890900850296,-0.4998779296875,0.4769585430622101
1772526000860957400,4.91195751953125,0.14212113618850708,-0.5220927000045776,0.4944792091846466
1772526000870940400,4.9219404296875,0.06157996878027916,-0.4987174868583679,0.5066893696784973
1772526000880924400,4.93192431640625,0.0028077284805476665,-0.44557252526283264,0.5076792240142822
1772526000890907400,4.941907470703125,-0.028049688786268234,-0.3193977177143097,0.5098983645439148
1772526000900890400,4.951890380859375,-0.043705880641937256,-0.16305632889270782,0.5020290017127991
1772526000910873300,4.961873291015625,-0.07946132123470306,-0.08570313453674316,0.4588828682899475
1772526000920857300,4.971857421875,-0.1656111180782318,-0.07276497036218643,0.3636096119880676
1772526000930840600,4.981840576171875,-0.27111372351646423,-0.038777757436037064,0.24436163902282715
1772526000940823300,4.9918232421875,-0.3659760653972626,-0.022159364074468613,0.11054790765047073
1772526000950807300,5.001807373046875,-0.46610310673713684,-0.05839978903532028,-0.032046712934970856
1772526000960790300,5.011790283203125,-0.5732631087303162,-0.13444635272026062,-0.16012504696846008
1772526000970773500,5.0217734375,-0.6855432987213135,-0.1720801144838333,-0.2744651436805725
1772526000980756200,5.031756103515625,-0.7702419757843018,-0.14215975999832153,-0.3498634994029999
1772526000990740200,5.041740234375,-0.8141139149665833,-0.07265199720859528,-0.4001191556453705
1772526001000723500,5.051723388671875,-0.8247196674346924,-0.015835585072636604,-0.44524189829826355
1772526001010706400,5.06170654296875,-0.8028280735015869,0.008755131624639034,-0.4980642795562744
1772526001020689400,5.071689453125,-0.7605732679367065,0.009601217694580555,-0.5460768342018127
1772526001030673200,5.081673095703125,-0.7040745615959167,-0.0009291504975408316,-0.5807801485061646
1772526001040656400,5.091656494140625,-0.6513718962669373,-0.06564982235431671,-0.6036998629570007
1772526001050639400,5.101639404296875,-0.6115233898162842,-0.1480199098587036,-0.5956331491470337
1772526001060623400,5.111623291015625,-0.5932213664054871,-0.1989922821521759,-0.5551115274429321
1772526001070606600,5.121606689453125,-0.5900737643241882,-0.25477737188339233,-0.5042884349822998
1772526001080589300,5.13158935546875,-0.5941217541694641,-0.30849120020866394,-0.4402239918708801
1772526001090572300,5.141572265625,-0.5821032524108887,-0.3320046067237854,-0.35942018032073975
1772526001100556300,5.151556396484375,-0.5502678155899048,-0.33606353402137756,-0.26905861496925354
1772526001110539500,5.16153955078125,-0.5013086199760437,-0.35539722442626953,-0.1862889528274536
1772526001120522200,5.171522216796875,-0.4447063207626343,-0.38656046986579895,-0.11999010294675827
1772526001130506200,5.18150634765625,-0.39692673087120056,-0.43099841475486755,-0.07820145785808563
1772526001140489200,5.1914892578125,-0.36469343304634094,-0.5027711987495422,-0.06458710879087448
1772526001150472400,5.201472412109375,-0.35046398639678955,-0.5522714853286743,-0.05421658232808113
1772526001160455400,5.211455322265625,-0.3600825071334839,-0.5696067810058594,-0.04974939674139023
1772526001170439400,5.221439453125,-0.37398093938827515,-0.5736273527145386,-0.047639939934015274
1772526001180422400,5.23142236328125,-0.410825252532959,-0.5792207717895508,-0.057512812316417694
1772526001190405400,5.2414052734375,-0.4517059922218323,-0.565244197845459,-0.09245391935110092
1772526001200389400,5.251389404296875,-0.5179156064987183,-0.534680962562561,-0.15159793198108673
1772526001210372400,5.261372314453125,-0.5955291390419006,-0.48635926842689514,-0.2292776256799698
1772526001220355300,5.271355224609375,-0.6852209568023682,-0.4400591552257538,-0.31691956520080566
1772526001230338300,5.28133837890625,-0.775151252746582,-0.390103816986084,-0.40506449341773987
1772526001240322300,5.291322265625,-0.861968457698822,-0.35756585001945496,-0.47805267572402954
1772526001250305500,5.301305419921875,-0.9377426505088806,-0.31171780824661255,-0.5165539979934692
1772526001260288500,5.31128857421875,-1.0010595321655273,-0.2743073105812073,-0.5342329144477844
1772526001270272500,5.3212724609375,-1.0411229133605957,-0.21872437000274658,-0.5069483518600464
1772526001280255200,5.331255126953125,-1.061905860900879,-0.13154153525829315,-0.4472067356109619
1772526001290238500,5.341238525390625,-1.0543253421783447,-0.016220003366470337,-0.3496125340461731
1772526001300221400,5.351221435546875,-1.0132522583007812,0.09096717089414597,-0.22854283452033997
1772526001310205400,5.361205322265625,-0.9432283639907837,0.16104619204998016,-0.09131210297346115
1772526001320188200,5.371188232421875,-0.8433396220207214,0.210019052028656,0.049111850559711456
1772526001330171400,5.38117138671875,-0.7370573878288269,0.23099437355995178,0.17646688222885132
1772526001340154400,5.391154296875,-0.6370493173599243,0.21757343411445618,0.28507712483406067
1772526001350138400,5.401138427734375,-0.5656731128692627,0.19663628935813904,0.3667897880077362
1772526001360122000,5.4111220703125,-0.5082238912582397,0.176874041557312,0.41011595726013184
1772526001370105300,5.421105224609375,-0.45795390009880066,0.1582365781068802,0.42512473464012146
1772526001380089300,5.43108935546875,-0.419748455286026,0.12897509336471558,0.4126984477043152
1772526001390072000,5.441072021484375,-0.3892150819301605,0.10135085880756378,0.3789157271385193
1772526001400055300,5.45105517578125,-0.36495742201805115,0.0682898461818695,0.3289574682712555
1772526001410038300,5.461038330078125,-0.34601426124572754,0.0331009142100811,0.2686638832092285
1772526001420022300,5.471022216796875,-0.3412773013114929,0.014717113226652145,0.2065344601869583
1772526001430005200,5.481005126953125,-0.3442084789276123,0.019808562472462654,0.15500587224960327
1772526001439988200,5.49098828125,-0.3545314073562622,0.05167035758495331,0.10574672371149063
1772526001449972200,5.50097216796875,-0.3742901086807251,0.09148669242858887,0.0598515123128891
1772526001459955200,5.510955078125,-0.39962610602378845,0.13508689403533936,0.018018843606114388
1772526001469938200,5.520938232421875,-0.4245011806488037,0.1658860445022583,-0.028394602239131927
1772526001479921200,5.530921142578125,-0.4450687766075134,0.16757182776927948,-0.06356723606586456
1772526001489905200,5.5409052734375,-0.45469582080841064,0.17790082097053528,-0.08086209744215012
1772526001499888000,5.55088818359375,-0.4498821496963501,0.22374607622623444,-0.06460243463516235
1772526001509871400,5.560871337890625,-0.41809728741645813,0.2924063801765442,-0.01999359205365181
1772526001519854300,5.570854248046875,-0.37297481298446655,0.3405754864215851,0.03820792958140373
1772526001529838300,5.58083837890625,-0.3170755207538605,0.3564435541629791,0.09726373851299286
1772526001539821000,5.590821044921875,-0.2529101073741913,0.36689460277557373,0.150845468044281
1772526001549804300,5.60080419921875,-0.17029879987239838,0.397336483001709,0.20696315169334412
1772526001559788300,5.610788330078125,-0.08537086099386215,0.38565772771835327,0.26354387402534485
1772526001569771300,5.620771240234375,-0.025926116853952408,0.28012585639953613,0.27885815501213074
1772526001579754200,5.630754150390625,0.0052491119131445885,0.11328811943531036,0.2579241096973419
1772526001589737200,5.6407373046875,0.03121957555413246,-0.037067994475364685,0.2215505987405777
1772526001599721200,5.65072119140625,0.04606403410434723,-0.13966546952724457,0.18565277755260468
1772526001609704200,5.6607041015625,0.04051285609602928,-0.21517397463321686,0.1477416753768921
1772526001619687400,5.6706875,0.018149225041270256,-0.25316742062568665,0.11523992568254471
1772526001629670100,5.680670166015625,-0.011870216578245163,-0.26219648122787476,0.07906610518693924
1772526001639654100,5.690654052734375,-0.03614412993192673,-0.21495839953422546,0.04770472273230553
1772526001649637000,5.70063720703125,-0.06563263386487961,-0.15515565872192383,0.013043532148003578
1772526001659620400,5.710620361328125,-0.10440399497747421,-0.10805872082710266,-0.036867305636405945
1772526001669604400,5.720604248046875,-0.14420224726200104,-0.07192376255989075,-0.08504614979028702
1772526001679587000,5.730587158203125,-0.17555297911167145,-0.05208481103181839,-0.1299467831850052
1772526001689570300,5.7405703125,-0.19357237219810486,-0.04314974695444107,-0.1563912183046341
1772526001699553300,5.75055322265625,-0.19938792288303375,-0.05400665104389191,-0.1602027416229248
1772526001709537300,5.760537353515625,-0.189779594540596,-0.05627188831567764,-0.1466819941997528
1772526001719520000,5.77052001953125,-0.1646883636713028,-0.03800872713327408,-0.09842311590909958
1772526001729503200,5.780503173828125,-0.1287488043308258,-0.009382277727127075,-0.030151810497045517
1772526001739486200,5.790486328125,-0.07939296960830688,0.029842622578144073,0.052958253771066666
1772526001749470200,5.80047021484375,-0.022939644753932953,0.08197686076164246,0.15055599808692932
1772526001759453200,5.810453125,0.034809138625860214,0.15176767110824585,0.2512647807598114
1772526001769436200,5.820436279296875,0.09299087524414062,0.23282365500926971,0.33152449131011963
1772526001779420200,5.830420166015625,0.15186351537704468,0.2906768321990967,0.3841235339641571
1772526001789403100,5.840403076171875,0.20970867574214935,0.3177698254585266,0.40023285150527954
1772526001799386400,5.850386474609375,0.25009578466415405,0.31249091029167175,0.39198264479637146
1772526001809369300,5.860369384765625,0.27509069442749023,0.2681812644004822,0.35745397210121155
1772526001819353000,5.87035302734375,0.28456035256385803,0.17664678394794464,0.30869176983833313
1772526001829336000,5.880336181640625,0.28323251008987427,0.06410640478134155,0.24362489581108093
1772526001839319300,5.8903193359375,0.2700916826725006,-0.07093503326177597,0.1704590618610382
1772526001849302300,5.90030224609375,0.23318766057491302,-0.21537236869335175,0.09146760404109955
1772526001859286300,5.910286376953125,0.17667138576507568,-0.36236846446990967,0.01675262302160263
1772526001869269200,5.920269287109375,0.112820565700531,-0.4728078544139862,-0.044020362198352814
1772526001879252200,5.930252197265625,0.06240053102374077,-0.5264855027198792,-0.0850096046924591
1772526001889236200,5.940236328125,0.0243829395622015,-0.5439555048942566,-0.11582059413194656
1772526001899219200,5.95021923828125,-0.011103148572146893,-0.5353732109069824,-0.1317945122718811
1772526001909202200,5.9602021484375,-0.03236031532287598,-0.4862869083881378,-0.13172033429145813
1772526001919185200,5.97018505859375,-0.044205255806446075,-0.41799840331077576,-0.12109751999378204
1772526001929169200,5.980169189453125,-0.046916164457798004,-0.34648311138153076,-0.09471231698989868
1772526001939152100,5.990152099609375,-0.034934334456920624,-0.26601332426071167,-0.06388302892446518
1772526001949135400,6.00013525390625,-0.01316593587398529,-0.17249664664268494,-0.024722188711166382
1772526001959119400,6.010119384765625,0.015381020493805408,-0.09465937316417694,0.013089107349514961
1772526001969102000,6.02010205078125,0.04260953888297081,-0.05125975236296654,0.03249754011631012
1772526001979085300,6.030085205078125,0.05867452174425125,-0.030722254887223244,0.0396001897752285
1772526001989068300,6.040068359375,0.07823830097913742,-0.026381902396678925,0.03599533066153526
1772526001999052300,6.05005224609375,0.08930400013923645,-0.018686164170503616,0.019832873716950417
1772526002009035000,6.060034912109375,0.0970541313290596,-0.003551146248355508,0.00219911802560091
1772526002019018200,6.070018310546875,0.0881650298833847,0.019117681309580803,-0.02315657213330269
1772526002029001200,6.080001220703125,0.07126764953136444,0.04406549781560898,-0.05411307141184807
1772526002038985200,6.089985107421875,0.030069874599575996,0.06797829270362854,-0.08819939941167831
1772526002048968200,6.09996826171875,-0.025328589603304863,0.08691553771495819,-0.11949433386325836
1772526002058951200,6.109951171875,-0.08546756207942963,0.10204415768384933,-0.15354257822036743
1772526002068934100,6.11993408203125,-0.1402130126953125,0.11158210039138794,-0.19439063966274261
1772526002078918100,6.129918212890625,-0.18249522149562836,0.10573193430900574,-0.23360036313533783
1772526002088901400,6.1399013671875,-0.2039308398962021,0.10172988474369049,-0.2626904249191284
1772526002098884000,6.149884033203125,-0.21751669049263,0.09808161854743958,-0.27689653635025024
1772526002108868000,6.1598681640625,-0.22129802405834198,0.08928816765546799,-0.275384783744812
1772526002118851000,6.16985107421875,-0.23245401680469513,0.05163773521780968,-0.26392972469329834
1772526002128834300,6.179834228515625,-0.26019471883773804,0.0006577004678547382,-0.25860509276390076
1772526002138817300,6.1898173828125,-0.29086077213287354,-0.05057113245129585,-0.2543421685695648
1772526002148801300,6.19980126953125,-0.3192305564880371,-0.11289262771606445,-0.23511327803134918
1772526002158784300,6.2097841796875,-0.33619993925094604,-0.1645081490278244,-0.19230376183986664
1772526002168767200,6.219767333984375,-0.35722464323043823,-0.2185789942741394,-0.13990920782089233
1772526002178750200,6.229750244140625,-0.3764153718948364,-0.28292763233184814,-0.08868756890296936
1772526002188734200,6.239734130859375,-0.3927192687988281,-0.3431318700313568,-0.04120082035660744
1772526002198717200,6.24971728515625,-0.40323397517204285,-0.3976038992404938,-0.006563214585185051
1772526002208700200,6.2597001953125,-0.40969863533973694,-0.4302939474582672,0.017817476764321327
1772526002218684200,6.26968408203125,-0.40471160411834717,-0.41651690006256104,0.03678664192557335
1772526002228667100,6.279667236328125,-0.4031825661659241,-0.354078471660614,0.052760735154151917
1772526002238650400,6.289650390625,-0.3840397894382477,-0.20438751578330994,0.0730055496096611
1772526002248633000,6.299633056640625,-0.3241201639175415,-0.08029411733150482,0.08762481808662415
1772526002258617000,6.3096171875,-0.2661237120628357,-0.12422376126050949,0.0504915677011013
1772526002268600300,6.319600341796875,-0.2435123175382614,-0.22920365631580353,-0.025925572961568832
1772526002278583300,6.329583251953125,-0.24630944430828094,-0.2367904782295227,-0.09984693676233292
1772526002288566000,6.33956591796875,-0.2779494822025299,-0.17169076204299927,-0.17178377509117126
1772526002298550000,6.349550048828125,-0.34470534324645996,-0.15121397376060486,-0.2554730772972107
1772526002308533200,6.359533203125,-0.4360513389110565,-0.13102154433727264,-0.3446250557899475
1772526002318516200,6.36951611328125,-0.5310337543487549,-0.02503732033073902,-0.4076008200645447
1772526002328499200,6.379499267578125,-0.611547589302063,0.14749591052532196,-0.4499424695968628
1772526002338483200,6.389483154296875,-0.6558237075805664,0.29853764176368713,-0.4828849732875824
1772526002348466200,6.399466064453125,-0.6556947827339172,0.41938310861587524,-0.507556140422821
1772526002358449200,6.40944921875,-0.6173023581504822,0.5053893327713013,-0.5217230916023254
1772526002368433200,6.41943310546875,-0.5643908381462097,0.5615760684013367,-0.5272269248962402
1772526002378416400,6.42941650390625,-0.5015072226524353,0.5655745267868042,-0.5112623572349548
1772526002388399000,6.439399169921875,-0.4427235424518585,0.542969286441803,-0.450404554605484
1772526002398382000,6.449382080078125,-0.37685662508010864,0.528688907623291,-0.33624735474586487
1772526002408366000,6.459365966796875,-0.3053247630596161,0.5229969620704651,-0.17237378656864166
1772526002418349300,6.469349365234375,-0.22169965505599976,0.5253291130065918,0.030644850805401802
1772526002428332000,6.47933203125,-0.12575285136699677,0.5460213422775269,0.2498638778924942
1772526002438315300,6.489315185546875,-0.033332373946905136,0.5539559721946716,0.43371304869651794
1772526002448299300,6.49929931640625,0.05003351718187332,0.48340708017349243,0.5375917553901672
1772526002458282200,6.5092822265625,0.11993324756622314,0.32649311423301697,0.5667722821235657
1772526002468265200,6.51926513671875,0.19118230044841766,0.11164668947458267,0.5584185719490051
1772526002478249200,6.529249267578125,0.2589475214481354,-0.10944733768701553,0.5508711338043213
1772526002488232200,6.539232177734375,0.3140309154987335,-0.3003122806549072,0.5593775510787964
1772526002498215200,6.549215087890625,0.33188846707344055,-0.4651379883289337,0.5715295672416687
1772526002508198100,6.5591982421875,0.31024369597435,-0.59773188829422,0.5707324147224426
1772526002518182400,6.569182373046875,0.24326999485492706,-0.6665261387825012,0.5612350106239319
1772526002528165000,6.5791650390625,0.1311047524213791,-0.6365499496459961,0.5408385396003723
1772526002538148000,6.589148193359375,-0.009063798002898693,-0.5452746152877808,0.49584606289863586
1772526002548131300,6.59913134765625,-0.1653437465429306,-0.3940935432910919,0.4305066764354706
1772526002558115300,6.609115234375,-0.3002256751060486,-0.2238568365573883,0.34301650524139404
1772526002568098300,6.619098388671875,-0.3987579643726349,-0.07140839844942093,0.24112644791603088
1772526002578081000,6.6290810546875,-0.44634491205215454,0.03868374228477478,0.12434045970439911
1772526002588064300,6.639064208984375,-0.44822201132774353,0.12071751803159714,0.011368000879883766
1772526002598048300,6.64904833984375,-0.4252146780490875,0.18114542961120605,-0.0777490958571434
1772526002608031200,6.65903125,-0.3904578983783722,0.23055344820022583,-0.13623107969760895
1772526002618014200,6.66901416015625,-0.3573577404022217,0.25079748034477234,-0.16476312279701233
1772526002627997200,6.6789970703125,-0.3280688524246216,0.2329002022743225,-0.17285946011543274
1772526002637981200,6.688981201171875,-0.2977871000766754,0.1941661238670349,-0.1599242091178894
1772526002647964200,6.698964111328125,-0.2636679410934448,0.1304071843624115,-0.12970860302448273
1772526002657947400,6.708947509765625,-0.21962112188339233,0.054975539445877075,-0.0858394131064415
1772526002667931400,6.718931396484375,-0.17970290780067444,-0.031176244840025902,-0.04201348125934601
1772526002677914000,6.7289140625,-0.1498478204011917,-0.11098452657461166,-0.004959855228662491
1772526002687897000,6.73889697265625,-0.12612178921699524,-0.19193299114704132,0.007696302607655525
1772526002697880300,6.74888037109375,-0.11303287744522095,-0.2520831525325775,-0.004901780281215906
1772526002707864300,6.7588642578125,-0.08934958279132843,-0.2867678999900818,-0.03745336830615997
1772526002717847000,6.768846923828125,-0.05860311537981033,-0.2827278673648834,-0.08832080662250519
1772526002727830300,6.778830322265625,-0.021963095292448997,-0.26457545161247253,-0.16094590723514557
1772526002737813200,6.788813232421875,0.006407825741916895,-0.2558445632457733,-0.24442428350448608
1772526002747797200,6.79879736328125,0.026844831183552742,-0.2554456293582916,-0.3312987685203552
1772526002757780200,6.8087802734375,0.03416399657726288,-0.2710839807987213,-0.41503092646598816
1772526002767763200,6.81876318359375,0.019139176234602928,-0.29738298058509827,-0.4933023452758789
1772526002777746200,6.82874609375,-0.019464941695332527,-0.30494424700737,-0.5704954266548157
1772526002787730200,6.838730224609375,-0.07578655332326889,-0.2858697772026062,-0.6402515769004822
1772526002797713200,6.848713134765625,-0.14510224759578705,-0.25454115867614746,-0.6821809411048889
1772526002807696100,6.858696044921875,-0.20421633124351501,-0.1731550693511963,-0.6834720969200134
1772526002817679000,6.86867919921875,-0.23454388976097107,-0.056973591446876526,-0.6570652723312378
1772526002827663000,6.8786630859375,-0.23177997767925262,0.06661918759346008,-0.61513352394104
1772526002837646300,6.888646240234375,-0.20880275964736938,0.15228508412837982,-0.5724033713340759
1772526002847629300,6.89862939453125,-0.155745729804039,0.18071185052394867,-0.5229154229164124
1772526002857613300,6.90861328125,-0.07755105942487717,0.22128990292549133,-0.46155887842178345
1772526002867596000,6.918595947265625,0.05852269381284714,0.35301005840301514,-0.3767797350883484
1772526002877579300,6.928579345703125,0.2482345849275589,0.44072580337524414,-0.2820796072483063
1772526002887562200,6.938562255859375,0.4529751241207123,0.33836105465888977,-0.22060848772525787
1772526002897546200,6.948546142578125,0.6041334867477417,0.16310721635818481,-0.18140248954296112
1772526002907529200,6.958529296875,0.6883816719055176,0.01972007565200329,-0.1405218541622162
1772526002917512200,6.96851220703125,0.7063226103782654,-0.1319916844367981,-0.09591762721538544
1772526002927495200,6.9784951171875,0.6287382245063782,-0.2801858186721802,-0.0413946770131588
1772526002937479200,6.988479248046875,0.46879518032073975,-0.3397383689880371,0.02906111627817154
1772526002947462400,6.99846240234375,0.2905437648296356,-0.3029429316520691,0.11645422875881195
1772526002957445000,7.008445068359375,0.15309615433216095,-0.20900046825408936,0.1942416876554489
1772526002967428000,7.018427978515625,0.08627134561538696,-0.12749083340168,0.2341298609972
1772526002977412000,7.028412109375,0.06919675320386887,-0.08324667066335678,0.22472357749938965
1772526002987395300,7.038395263671875,0.05995245650410652,-0.032679758965969086,0.18289905786514282
1772526002997378000,7.0483779296875,0.03667110577225685,0.010453063994646072,0.11148931831121445
1772526003007361300,7.058361328125,0.00011958740651607513,0.02955683320760727,0.03117433190345764
1772526003017345300,7.06834521484375,-0.018612556159496307,0.032851964235305786,-0.027522802352905273
1772526003027328300,7.078328369140625,-0.020345577970147133,0.033923715353012085,-0.03862632066011429
1772526003037311200,7.088311279296875,-0.005164761561900377,0.059499114751815796,0.006633302662521601
1772526003047295000,7.098294921875,0.016588810831308365,0.11810537427663803,0.10503421723842621
1772526003057278200,7.1082783203125,0.05206611007452011,0.2100699245929718,0.2402983158826828
1772526003067261200,7.11826123046875,0.10453011840581894,0.344864159822464,0.3885219395160675
1772526003077244200,7.128244140625,0.16146716475486755,0.4765492379665375,0.5223620533943176
1772526003087228400,7.138228515625,0.21567226946353912,0.5455982089042664,0.613825798034668
1772526003097211100,7.148211181640625,0.2688223123550415,0.5253674983978271,0.6548144817352295
1772526003107194000,7.158194091796875,0.32344579696655273,0.43906906247138977,0.6484087705612183
1772526003117177300,7.16817724609375,0.37433212995529175,0.31188395619392395,0.5998026132583618
1772526003127161300,7.178161376953125,0.423298180103302,0.16325721144676208,0.5156574249267578
1772526003137144000,7.18814404296875,0.44994044303894043,-0.0022979394998401403,0.407056599855423
1772526003147127000,7.198126953125,0.4570244550704956,-0.15774616599082947,0.28750425577163696
1772526003157110300,7.2081103515625,0.4421672224998474,-0.2960832715034485,0.16063553094863892
1772526003167094300,7.21809423828125,0.3948882222175598,-0.4042590856552124,0.04255065321922302
1772526003177077200,7.2280771484375,0.31992289423942566,-0.47371140122413635,-0.059012193232774734
1772526003187060200,7.238060302734375,0.2087300568819046,-0.5067012906074524,-0.14014628529548645
1772526003197043200,7.248043212890625,0.07116366922855377,-0.5082387328147888,-0.198515847325325
1772526003207027200,7.258027099609375,-0.08561088144779205,-0.47628140449523926,-0.2309424877166748
1772526003217010200,7.26801025390625,-0.24456991255283356,-0.42666271328926086,-0.23454467952251434
1772526003226993400,7.277993408203125,-0.38865748047828674,-0.3551855683326721,-0.19838398694992065
1772526003236976000,7.28797607421875,-0.4949759244918823,-0.27132049202919006,-0.13146460056304932
1772526003246960000,7.297960205078125,-0.5633920431137085,-0.16925054788589478,-0.05033556744456291
1772526003256943000,7.307943115234375,-0.5916681289672852,-0.057082198560237885,0.03135077282786369
1772526003266926300,7.31792626953125,-0.5902776718139648,0.05164556950330734,0.0955401062965393
1772526003276910300,7.327910400390625,-0.5675050020217896,0.12624843418598175,0.12976625561714172
1772526003286893000,7.33789306640625,-0.523169994354248,0.18273688852787018,0.15083523094654083
1772526003296876300,7.347876220703125,-0.47414466738700867,0.23220005631446838,0.16156244277954102
1772526003306859300,7.357859375,-0.43377771973609924,0.26382046937942505,0.16561359167099
1772526003316843300,7.36784326171875,-0.3981422483921051,0.2727276682853699,0.15923959016799927
1772526003326826000,7.377825927734375,-0.37668371200561523,0.26025789976119995,0.13805904984474182
1772526003336809200,7.387809326171875,-0.3673487901687622,0.22726291418075562,0.11185061186552048
1772526003346792200,7.397792236328125,-0.3667650520801544,0.19512182474136353,0.08188403397798538
1772526003356775400,7.407775390625,-0.3699411451816559,0.16346456110477448,0.05442391708493233
1772526003366758700,7.417758544921875,-0.3701121211051941,0.13493992388248444,0.022160803899168968
1772526003376741400,7.427741455078125,-0.37271031737327576,0.11334381252527237,-0.015297088772058487
1772526003386724400,7.437724365234375,-0.3603225350379944,0.08461745828390121,-0.06191561743617058
1772526003396708600,7.44770849609375,-0.3475284278392792,0.0423448383808136,-0.12330494076013565
1772526003406691600,7.457691650390625,-0.3389773666858673,-0.02307129092514515,-0.20582462847232819
1772526003416674600,7.467674560546875,-0.33488035202026367,-0.11144216358661652,-0.2854541838169098
1772526003426657500,7.477657470703125,-0.3470129668712616,-0.1998586803674698,-0.3344366252422333
1772526003436641500,7.4876416015625,-0.37756770849227905,-0.26514074206352234,-0.35349342226982117
1772526003446624500,7.49762451171875,-0.40839871764183044,-0.3516058325767517,-0.3450043201446533
1772526003456607500,7.507607421875,-0.43396878242492676,-0.4451805055141449,-0.30830302834510803
1772526003466590500,7.517590576171875,-0.4527013599872589,-0.5111543536186218,-0.25061947107315063
1772526003476574500,7.527574462890625,-0.4934077858924866,-0.5325712561607361,-0.19374896585941315
1772526003486557400,7.537557373046875,-0.5296235084533691,-0.49681705236434937,-0.14385885000228882
1772526003496540700,7.547540771484375,-0.5677493214607239,-0.4359917938709259,-0.09538611769676208
1772526003506523600,7.557523681640625,-0.5986920595169067,-0.3827792704105377,-0.0653146356344223
1772526003516507400,7.56750732421875,-0.6294028162956238,-0.3185789883136749,-0.0424034558236599
1772526003526490400,7.577490478515625,-0.6579250693321228,-0.24046827852725983,-0.02198219858109951
1772526003536473600,7.5874736328125,-0.6662471890449524,-0.1406564563512802,-0.0006340327672660351
1772526003546456600,7.59745654296875,-0.6530954837799072,-0.08025149255990982,-0.003065164666622877
1772526003556440600,7.607440673828125,-0.6555418968200684,-0.15399016439914703,-0.04822678491473198
1772526003566423300,7.61742333984375,-0.6912462711334229,-0.30641576647758484,-0.12663564085960388
1772526003576406500,7.627406494140625,-0.7542524337768555,-0.4355316758155823,-0.20592114329338074
1772526003586389500,7.637389404296875,-0.8330703973770142,-0.5214488506317139,-0.268096387386322
1772526003596373500,7.64737353515625,-0.9177088141441345,-0.5889360308647156,-0.30772101879119873
1772526003606356500,7.6573564453125,-1.0071815252304077,-0.6130243539810181,-0.33509787917137146
1772526003616339500,7.66733935546875,-1.0879237651824951,-0.5647414922714233,-0.33468616008758545
1772526003626322400,7.677322509765625,-1.1387519836425781,-0.4319572448730469,-0.3197549283504486
1772526003636306400,7.687306396484375,-1.143020749092102,-0.2535240948200226,-0.2848696708679199
1772526003646289700,7.69728955078125,-1.0980838537216187,-0.0591425783932209,-0.24923507869243622
1772526003656272400,7.7072724609375,-1.0174849033355713,0.10457658022642136,-0.21229729056358337
1772526003666255400,7.71725537109375,-0.9158912897109985,0.209756538271904,-0.1835692822933197
1772526003676239600,7.727239501953125,-0.8194281458854675,0.23645499348640442,-0.1637580245733261
1772526003686222600,7.73722265625,-0.755115270614624,0.21406275033950806,-0.13849343359470367
1772526003696205600,7.74720556640625,-0.7104735374450684,0.1761031150817871,-0.08352445811033249
1772526003706188500,7.7571884765625,-0.6790652871131897,0.18417015671730042,0.008269548416137695
1772526003716172500,7.767172607421875,-0.6328139305114746,0.22937677800655365,0.11353471875190735
1772526003726155500,7.777155517578125,-0.5754338502883911,0.28128817677497864,0.22049082815647125
1772526003736138500,7.787138427734375,-0.5129321217536926,0.3255096971988678,0.30821746587753296
1772526003746121500,7.79712158203125,-0.4547995924949646,0.3111668825149536,0.3497474491596222
1772526003756105500,7.80710546875,-0.3980441689491272,0.24347971379756927,0.35894468426704407
1772526003766088400,7.81708837890625,-0.35065943002700806,0.1490871161222458,0.3518722653388977
1772526003776071400,7.827071533203125,-0.31381380558013916,0.009332668036222458,0.3460090458393097
1772526003786054700,7.8370546875,-0.27187734842300415,-0.16103564202785492,0.3499724268913269
1772526003796038400,7.847038330078125,-0.24691368639469147,-0.3405335247516632,0.3605845868587494
1772526003806021400,7.857021484375,-0.2554739713668823,-0.5046056509017944,0.3654426336288452
1772526003816004600,7.867004638671875,-0.29923370480537415,-0.6480280756950378,0.3497188091278076
1772526003825988600,7.876988525390625,-0.37650489807128906,-0.7427645325660706,0.3188786506652832
1772526003835971600,7.8869716796875,-0.4694822430610657,-0.7811508178710938,0.28283730149269104
1772526003845954300,7.896954345703125,-0.5753591060638428,-0.7853012681007385,0.2278365194797516
1772526003855937500,7.9069375,-0.7011830806732178,-0.7480596303939819,0.16875216364860535
1772526003865920500,7.91692041015625,-0.83084636926651,-0.6614649295806885,0.10379808396100998
1772526003875904500,7.926904541015625,-0.9324023127555847,-0.5535070300102234,0.036740221083164215
1772526003885887500,7.936887451171875,-0.9932957291603088,-0.4358246326446533,-0.02213268168270588
1772526003895870500,7.946870361328125,-1.018193006515503,-0.30422237515449524,-0.08006788790225983
1772526003905853400,7.956853515625,-1.0031037330627441,-0.16039584577083588,-0.12724921107292175
1772526003915837400,7.96683740234375,-0.9531058669090271,-0.01799636520445347,-0.1478346586227417
1772526003925820700,7.976820556640625,-0.8563098311424255,0.10357124358415604,-0.13846521079540253
1772526003935803400,7.986803466796875,-0.7412958741188049,0.19712010025978088,-0.10315461456775665
1772526003945787400,7.996787353515625,-0.6320273280143738,0.2544369101524353,-0.0489748977124691
1772526003955770400,8.006770263671875,-0.5524121522903442,0.2569120526313782,0.00819065235555172
1772526003965753600,8.016753662109375,-0.5038458704948425,0.2154863178730011,0.07132597267627716
1772526003975736600,8.026736572265625,-0.4615713655948639,0.1552344262599945,0.13556620478630066
1772526003985719600,8.036719482421875,-0.41799286007881165,0.07986830919981003,0.19619323313236237
1772526003995703600,8.04670361328125,-0.3781224191188812,-0.01646941527724266,0.24021048843860626
1772526004005686500,8.0566865234375,-0.3419136703014374,-0.09898107498884201,0.2735336720943451
1772526004015669500,8.06666943359375,-0.32354745268821716,-0.15198490023612976,0.29174062609672546
1772526004025652500,8.076652587890624,-0.31323057413101196,-0.1756390929222107,0.2918206751346588
1772526004035636500,8.086636474609374,-0.309533029794693,-0.17852357029914856,0.2768891155719757
1772526004045619500,8.096619384765624,-0.2976197302341461,-0.17004044353961945,0.2548419237136841
1772526004055602400,8.1066025390625,-0.28625044226646423,-0.17647384107112885,0.21198447048664093
1772526004065585700,8.116585693359376,-0.2761770486831665,-0.17461153864860535,0.1580783724784851
1772526004075569400,8.1265693359375,-0.2746920585632324,-0.14768004417419434,0.10227130353450775
1772526004085552400,8.136552490234376,-0.27305883169174194,-0.09360840916633606,0.04139912873506546
1772526004095535600,8.14653564453125,-0.2601456940174103,0.0037298635579645634,-0.0152236707508564
1772526004105518600,8.1565185546875,-0.24101334810256958,0.10242096334695816,-0.07260879129171371
1772526004115502600,8.166502685546876,-0.20980723202228546,0.1848127692937851,-0.13028566539287567
1772526004125485300,8.1764853515625,-0.18356186151504517,0.25124672055244446,-0.1895546317100525
1772526004135468500,8.186468505859375,-0.15978488326072693,0.2844395637512207,-0.250338613986969
1772526004145452500,8.19645263671875,-0.13922156393527985,0.2877688705921173,-0.2943148612976074
1772526004155435500,8.206435546875,-0.11887048929929733,0.25479787588119507,-0.3337823748588562
1772526004165418500,8.21641845703125,-0.08544553071260452,0.16125893592834473,-0.3704500198364258
1772526004175401500,8.2264013671875,-0.03252212330698967,0.0053601497784256935,-0.3960493803024292
1772526004185384400,8.236384521484375,0.06046384572982788,-0.23764830827713013,-0.3952483832836151
1772526004195368400,8.246368408203125,0.18864232301712036,-0.5505478382110596,-0.34351277351379395
1772526004205351700,8.2563515625,0.323721319437027,-0.8580660223960876,-0.22769294679164886
1772526004215334400,8.26633447265625,0.4277494549751282,-1.1275509595870972,-0.06773629784584045
1772526004225317400,8.2763173828125,0.49617722630500793,-1.2457005977630615,0.13097991049289703
1772526004235301400,8.28630126953125,0.5182612538337708,-1.1630570888519287,0.3397504389286041
1772526004245284600,8.29628466796875,0.5340936183929443,-0.8695200085639954,0.5408787131309509
1772526004255267300,8.306267333984374,0.5790456533432007,-0.4834415316581726,0.692027747631073
1772526004265250600,8.31625048828125,0.6351791024208069,-0.11373912543058395,0.7572588920593262
1772526004275234600,8.326234619140624,0.6487782597541809,0.2493261694908142,0.7127942442893982
1772526004285217500,8.336217529296874,0.6142279505729675,0.5777971148490906,0.5831658840179443
1772526004295200500,8.346200439453124,0.5452025532722473,0.7377878427505493,0.38529571890830994
1772526004305183500,8.35618359375,0.4592097997665405,0.6682241559028625,0.14046694338321686
1772526004315167500,8.36616748046875,0.3478342592716217,0.4788113832473755,-0.11359808593988419
1772526004325150500,8.376150390625,0.22021977603435516,0.29402956366539,-0.32182687520980835
1772526004335133400,8.386133544921876,0.12802407145500183,0.1764720231294632,-0.4281333386898041
1772526004345116700,8.39611669921875,0.0813269317150116,0.12132991850376129,-0.4329225420951843
1772526004355100000,8.406099853515625,0.07350842654705048,0.1470709592103958,-0.3528625965118408
1772526004365083000,8.416082763671875,0.10481622070074081,0.2569218873977661,-0.20915314555168152
1772526004375066000,8.426066162109375,0.1686127781867981,0.37932875752449036,-0.03790789097547531
1772526004385049000,8.436049072265625,0.24998751282691956,0.47953981161117554,0.12614195048809052
1772526004395032800,8.44603271484375,0.3445952534675598,0.5784456133842468,0.2694770097732544
1772526004405016000,8.45601611328125,0.4328800141811371,0.6886106133460999,0.385807603597641
1772526004414999000,8.4659990234375,0.516318678855896,0.7644127011299133,0.4620427191257477
1772526004424982000,8.47598193359375,0.5705219507217407,0.7986693382263184,0.49815231561660767
1772526004434966000,8.485966064453125,0.5990036725997925,0.804002583026886,0.48651349544525146
1772526004444949000,8.495948974609375,0.6136630773544312,0.8030847311019897,0.43779638409614563
1772526004454932000,8.505931884765625,0.6178131103515625,0.7890362739562988,0.35173556208610535
1772526004464915000,8.5159150390625,0.6069570183753967,0.7312514781951904,0.23758848011493683
1772526004474899000,8.52589892578125,0.5819794535636902,0.6420180201530457,0.11038151383399963
1772526004484882200,8.535882080078125,0.5453115701675415,0.5566807985305786,-0.006068016402423382
1772526004494865000,8.545864990234374,0.49427446722984314,0.4681730270385742,-0.10224941372871399
1772526004504848100,8.55584814453125,0.4530017077922821,0.3996315002441406,-0.15617378056049347
1772526004514832100,8.56583203125,0.4212411344051361,0.33185139298439026,-0.17824818193912506
1772526004524815000,8.575815185546874,0.39601439237594604,0.2833015024662018,-0.17805559933185577
1772526004534797800,8.5857978515625,0.37301531434059143,0.25662410259246826,-0.16646872460842133
1772526004544781000,8.595781005859376,0.3487475514411926,0.2380845844745636,-0.14777377247810364
1772526004554765000,8.60576513671875,0.3151853382587433,0.18131370842456818,-0.12798967957496643
1772526004564748000,8.615748046875,0.25964581966400146,0.10685225576162338,-0.11214489489793777
1772526004574731000,8.62573095703125,0.2083248496055603,0.017856335267424583,-0.08531354367733002
1772526004584714000,8.6357138671875,0.1553754210472107,-0.06331803649663925,-0.047736577689647675
1772526004594698000,8.645697998046876,0.11961264163255692,-0.1306946724653244,-0.0006465613842010498
1772526004604681000,8.655680908203125,0.08783180266618729,-0.18131668865680695,0.029749605804681778
1772526004614664200,8.665664306640625,0.05678919702768326,-0.20790168642997742,0.032620493322610855
1772526004624647000,8.67564697265625,0.03278582543134689,-0.1811235398054123,0.009205521084368229
1772526004634631000,8.685630859375,0.008295662701129913,-0.09490956366062164,-0.028268085792660713
1772526004644614000,8.69561376953125,-0.02933787927031517,0.0022349359933286905,-0.07486261427402496
1772526004654597000,8.70559716796875,-0.08150174468755722,0.07830227166414261,-0.11160624772310257
1772526004664580000,8.715580078125,-0.12833140790462494,0.11460879445075989,-0.1276599019765854
1772526004674562800,8.725562744140625,-0.1740586757659912,0.1544765681028366,-0.12029173970222473
1772526004684547000,8.735547119140625,-0.19382332265377045,0.1951029896736145,-0.10116305202245712
1772526004694530000,8.745530029296875,-0.203138530254364,0.20780892670154572,-0.09530383348464966
1772526004704513000,8.755512939453125,-0.19890257716178894,0.1970674842596054,-0.10365553200244904
1772526004714497000,8.7654970703125,-0.18884408473968506,0.1910277009010315,-0.11903315037488937
1772526004724480000,8.77547998046875,-0.18510377407073975,0.18885284662246704,-0.13024988770484924
1772526004734463000,8.785462890625,-0.1704326719045639,0.14393331110477448,-0.1418258547782898
1772526004744446000,8.795446044921874,-0.1564304083585739,0.07809700071811676,-0.1408795565366745
1772526004754429200,8.80542919921875,-0.1544269174337387,0.009606089442968369,-0.132266104221344
1772526004764413200,8.8154130859375,-0.1671828180551529,-0.04104607552289963,-0.14084456861019135
1772526004774396000,8.82539599609375,-0.18413037061691284,-0.03938639536499977,-0.16839709877967834
1772526004784379000,8.83537890625,-0.17686262726783752,0.028937652707099915,-0.193588986992836
1772526004794362000,8.845362060546876,-0.13943561911582947,0.1442546546459198,-0.20515909790992737
1772526004804346000,8.85534619140625,-0.09227947890758514,0.2279730588197708,-0.19145728647708893
1772526004814328800,8.865328857421876,-0.047444898635149,0.2774588465690613,-0.15572112798690796
1772526004824312000,8.87531201171875,-0.05765792354941368,0.24072754383087158,0.008172081783413887
1772526004834295000,8.885294921875,-0.13762065768241882,-0.045249875634908676,0.14818032085895538
1772526004844279000,8.895279052734375,-0.16746841371059418,-0.34169790148735046,0.24147473275661469
1772526004854262000,8.905261962890625,-0.10320287197828293,-0.5992138385772705,0.3305944800376892
1772526004864245000,8.915244873046875,-0.03790704533457756,-0.7402523756027222,0.3623608350753784
1772526004874228000,8.92522802734375,-0.02544504962861538,-0.800483763217926,0.3272872567176819
1772526004884212000,8.9352119140625,0.021424446254968643,-0.747623860836029,0.2569133937358856
1772526004894195200,8.9451953125,0.040455661714076996,-0.6747216582298279,0.2889070212841034
