time,seconds_elapsed,z,y,x
1772525807195021800,0.079021728515625,0.08953238688707352,0.029331892946362494,-0.12744447665214537
1772525807205005800,0.089005859375,0.28186346946954727,0.007323036364465951,0.003904606223106384
1772525807214989000,0.098989013671875,0.3920739027261734,-0.005596212571859359,0.14545242702960967
1772525807224972000,0.108971923828125,0.3782137196779251,0.009955430694669485,0.17765812184661625
1772525807234956000,0.1189560546875,0.2563800686448812,0.01750949933603406,0.17410627458393574
1772525807244938800,0.128938720703125,0.06085340489149093,-0.011927169159054755,0.13855974490642547
1772525807254922000,0.138921875,-0.15653905371129512,-0.0175664902202785,0.08944850799590348
1772525807264906000,0.148906005859375,-0.3370814988225698,0.06834814456105232,0.060364452330768106
1772525807274889000,0.158888916015625,-0.4149462442696094,0.10539733388647436,0.03583762157857418
1772525807284873000,0.168873046875,-0.34809213765859603,0.10896189450025558,0.021688976977765558
1772525807294856000,0.17885595703125,-0.20207447796165942,0.12656550186052917,0.05389087240248918
1772525807304839000,0.1888388671875,-0.052177931004762645,0.11945377015918493,0.09738719204068183
1772525807314823000,0.198822998046875,0.09619827451705933,0.11112784036248921,0.09844313083440065
1772525807324806000,0.208805908203125,0.21353169152140616,0.09879369783774018,0.07582242596447468
1772525807334789000,0.2187890625,0.2712918065726757,0.06724106010198592,0.08452683368474244
1772525807344773000,0.228773193359375,0.2274684469372034,0.03900792217776179,0.05965484275668859
1772525807354755800,0.238755859375,0.170670454916358,0.06168737149760127,0.03439823642522096
1772525807364739800,0.24873974609375,0.151703304117918,0.0920882088497281,0.030215397782623766
1772525807374723000,0.25872314453125,0.17789456095099448,0.10805383974462747,0.0370414444103837
1772525807384706000,0.2687060546875,0.22960487444400787,0.1025548039369285,0.060463821052014824
1772525807394690000,0.27868994140625,0.25441490605175493,0.08388356734514237,0.06403466527611017
1772525807404672800,0.2886728515625,0.26236907992660996,0.05715893428772688,0.04548720119446516
1772525807414656000,0.298656005859375,0.24560148499906062,0.01632204311713576,0.02356850711405277
1772525807424640000,0.308639892578125,0.2049158388674259,-0.040659488777071234,-0.013652385516464709
1772525807434623000,0.318623046875,0.15631927348077296,-0.09261486307233571,-0.06356997037380933
1772525807444607000,0.32860693359375,0.06795359228551387,-0.12833791836053132,-0.10963526371717452
1772525807454590000,0.33858984375,0.0235977332085371,-0.08912555965185165,-0.16001929704248904
1772525807464573000,0.348572998046875,0.025068974804878234,-0.016381956610828637,-0.08729951326847075
1772525807474557000,0.358556884765625,0.0603536386758089,0.027225422186404464,0.00018237082958221434
1772525807484540000,0.368539794921875,0.11546002434790134,0.04074380605965852,0.038921266807615755
1772525807494523100,0.378523193359375,0.11460896047651767,0.04640913834497332,0.0875374136775732
1772525807504507000,0.3885068359375,0.05731295580565929,0.04226765462607145,0.12639818246960638
1772525807514489900,0.39848974609375,-0.06128828917741775,0.04215688772797584,0.08274959487915039
1772525807524473900,0.408473876953125,-0.13983750975728035,0.03975011884719133,-0.0010655834048986434
1772525807534457000,0.41845703125,-0.1563742185384035,-0.0015244330883026121,-0.026223405537009237
1772525807544440000,0.428440185546875,-0.13500292920768261,-0.018679127637296913,-0.013432897546887397
1772525807554424000,0.438424072265625,-0.10945640001893042,-0.04879252635017037,-0.029162673859298226
1772525807564406800,0.44840673828125,-0.12280395736992358,-0.05007292154952883,-0.03180529732257128
1772525807574390000,0.45839013671875,-0.13975333860516548,-0.04371916860863566,-0.041643969769775864
1772525807584374000,0.4683740234375,-0.12733575558066368,-0.011872808623313903,-0.020925006867945194
1772525807594357000,0.47835693359375,-0.08500643389523029,0.03453881393969059,0.048339083494246
1772525807604341000,0.488341064453125,-0.021996727752685546,0.0548942042261362,0.10016717814803124
1772525807614324000,0.498323974609375,0.03396890509724617,0.05262070633620024,0.10578092637658118
1772525807624307000,0.508306884765625,0.09419979417622089,0.040378187617659565,0.07732084782868623
1772525807634291000,0.518291015625,0.058867784032225604,-0.030321780766546725,0.022642039918899536
1772525807644274000,0.52827392578125,-0.03586100245416164,-0.04726882391422987,-0.06968231577426194
1772525807654257000,0.5382568359375,-0.07803542583882808,-0.01280731299445033,-0.12038579031229019
1772525807664241000,0.548240966796875,-0.06024316403865814,-0.016790683542191983,-0.10417582926750182
1772525807674223900,0.558223876953125,0.01595510950088501,-0.010609510689228772,-0.051502808222174644
1772525807684207900,0.568207763671875,0.10800094051361084,0.02418283962011337,-0.004417816442251205
1772525807694191000,0.578191162109375,0.19384148714542387,0.03788695532381534,0.054150400121510026
1772525807704174000,0.588174072265625,0.29221184500455855,0.04945420512929558,0.09142653007060289
1772525807714158000,0.598157958984375,0.30191958454847334,0.05409881606474518,0.073244392170012
1772525807724140800,0.608140869140625,0.2751414677381515,0.007888269031792879,0.01415302851498127
1772525807734124000,0.6181240234375,0.21795886031389236,-0.015770400583744047,-0.07887421475052833
1772525807744108000,0.62810791015625,0.1552893459111452,-0.0037111294776201245,-0.11081015271544456
1772525807754091000,0.638091064453125,0.09279927972853183,-0.007411153039336204,-0.08834317710250615
1772525807764075000,0.648074951171875,0.06423135689198971,-0.001532324133813381,-0.05912818853408098
1772525807774058000,0.65805810546875,0.05559913762509822,0.030456805323064325,-0.013074877889454365
1772525807784041000,0.668041015625,0.05950374384820461,0.04984875740483403,0.053332946258783334
1772525807794025000,0.67802490234375,0.05081891761124134,0.03801613466143608,0.10205898324400187
1772525807804008000,0.688008056640625,0.0527899254232645,0.04287131960764527,0.08860328934341669
1772525807813991000,0.697990966796875,0.05302139609158039,0.050439709035307166,0.04555266764611005
1772525807823975000,0.707974853515625,0.0292009600430727,0.02497194417119026,0.03210311122536659
1772525807833958000,0.7179580078125,-0.026744214540719985,-0.02602539874687791,-0.008730711205303669
1772525807843942000,0.72794189453125,-0.05571662652492523,-0.018057926999032498,-0.06661153002679347
1772525807853924900,0.7379248046875,-0.0797948367267847,-0.005774345617741346,-0.030086802966892718
1772525807863908000,0.747908203125,-0.12720599172115324,-0.019782851095497607,0.027951252242922782
1772525807873891800,0.757891845703125,-0.12230594471991062,0.017698153775930404,0.038407179805636404
1772525807883874800,0.767874755859375,-0.08593933083117007,0.06760214849933982,0.07916501439064741
1772525807893858000,0.777858154296875,-0.03428513143956661,0.05489186613857746,0.14272154076099394
1772525807903842000,0.787842041015625,0.01699906559586525,0.010132102435827255,0.1399959151893854
1772525807913825000,0.797824951171875,0.07583762353360653,-0.005804740756005049,0.07601122653484343
1772525807923809000,0.80780908203125,0.09252806157171725,-0.011476356651633978,0.045347792723774906
1772525807933792000,0.8177919921875,0.08663724996745586,0.013784925854951143,0.01566314081698656
1772525807943775000,0.82777490234375,0.08003975139856338,0.032721681515127415,-0.01660129844993353
1772525807953759000,0.837759033203125,0.05744973392784595,0.03745075586363673,-0.021596037997305393
1772525807963742000,0.847741943359375,0.021098317608237264,0.039814416255056856,-0.020899580165743826
1772525807973725000,0.857724853515625,-0.03816284965574741,0.041066608273237944,-0.023801439087092875
1772525807983709000,0.867708984375,-0.07956336605846881,0.046856151460111135,-0.04309387631714344
1772525807993692000,0.87769189453125,-0.052795770642161365,0.059322395931929346,-0.026937106764316557
1772525808003676000,0.887676025390625,0.025195816054940222,0.04157441166490316,-0.013094751633703708
1772525808013659000,0.897658935546875,0.10983341663777828,0.019783435617387293,-0.018241759133338926
1772525808023641900,0.907641845703125,0.15164777453839778,0.0021855273455381394,-0.02127805808931589
1772525808033625900,0.9176259765625,0.15655951197743415,0.0005428747050464153,-0.04044073145985603
1772525808043608800,0.92760888671875,0.15338205098509788,-0.00041501054167747495,-0.046642800970375535
1772525808053592000,0.937592041015625,0.18642974958419797,0.005872106903791427,-0.04260170888602734
1772525808063576000,0.947576171875,0.21317454864680765,-0.018488573501259088,-0.040240532712638374
1772525808073559000,0.95755908203125,0.16004852313697338,-0.041127983071655036,0.025626024165749547
1772525808083542800,0.967542724609375,0.04989011232852936,-0.04773951016589999,-0.017411445789039134
1772525808093525800,0.97752587890625,-0.06820610574185848,-0.054134179639071224,-0.0316866393789649
1772525808103509000,0.987509033203125,-0.14908873770534992,-0.038764030419290066,-0.008765490257740021
1772525808113493000,0.997492919921875,-0.1758235998958349,-0.026617227160185573,0.03469341997951269
1772525808123476000,1.00747607421875,-0.10484043065607547,-0.015621347501873968,0.03669160805940628
1772525808133459000,1.017458984375,0.014132570248842239,-0.013101765896379947,0.04525076209008693
1772525808143443000,1.02744287109375,0.06472703145444393,-0.032749738565832374,0.07313157944530248
1772525808153426400,1.037426513671875,0.0592559065669775,-0.03357975964918732,0.031954058143496514
1772525808163410400,1.047410400390625,0.030770985838770866,-0.0009014788843691348,-0.02975391775071621
1772525808173393400,1.057393310546875,-0.0039987142473459246,0.001993219643831253,-0.0805292884811759
1772525808183376600,1.067376708984375,-0.01991349173784256,-0.01588598978742957,-0.10302899731993674
1772525808193360600,1.077360595703125,-0.00571077886223793,-0.017727672131359576,-0.09566197568327188
1772525808203343600,1.087343505859375,0.033065818777680396,0.004409048613905907,-0.07841741089373827
1772525808213326300,1.097326416015625,0.06447217991054058,0.005111351664364338,-0.008607669347524643
1772525808223310600,1.107310546875,0.08139233505129814,0.025314327868074176,0.03673018650412559
1772525808233293600,1.11729345703125,0.07226034956872462,0.056729749090224504,0.04660451478660106
1772525808243277600,1.127277587890625,0.0811935976088047,0.07359525143429636,0.03100859398692846
1772525808253260500,1.137260498046875,0.08436287529468536,0.058188715726882216,0.020529285548627374
1772525808263243500,1.147243408203125,0.1101630869835615,0.04353387516960502,-0.011601590466499327
1772525808273227500,1.1572275390625,0.12236498143076896,0.02842003879845142,-0.018892624257504938
1772525808283210500,1.16721044921875,0.07402268306612968,0.014207389050722122,-0.01978840405344963
1772525808293193500,1.177193359375,0.057086161312460894,0.04186272708699107,-0.1113815228626132
1772525808303177500,1.187177490234375,0.03593815934360027,0.025133856734633444,-0.08925473898947238
1772525808313160400,1.197160400390625,0.052016602963209146,-0.05370616348534822,0.04544949953258037
1772525808323144400,1.20714453125,0.08094692937135696,-0.027471213641017674,0.03699614396393299
1772525808333127400,1.21712744140625,0.07026712992489338,-0.0006684007808566093,0.020832944670319556
1772525808343110700,1.227110595703125,0.048698856717348096,0.016292086370289324,0.0720960989177227
1772525808353094700,1.2370947265625,0.04617898285090923,0.021939006216078995,0.10814970133453607
1772525808363077600,1.24707763671875,0.04436871855854988,0.038951369684934616,0.1059086444094777
1772525808373060400,1.257060302734375,0.019935119047760963,0.05036752058193087,0.08643354408890008
1772525808383044600,1.267044677734375,-0.004674421551823616,0.06599778204262256,0.09434183299541472
1772525808393027600,1.277027587890625,-0.02940262009501457,0.07950944391414523,0.09341244319081306
1772525808403011600,1.287011474609375,-0.016004209339618682,0.10256211046054958,0.0778363961353898
1772525808412994600,1.29699462890625,-0.006661211454868316,0.07469765971824527,0.07425853764861821
1772525808422977500,1.3069775390625,-0.03696165717244148,0.034773061086982485,0.06814969937950373
1772525808432961500,1.31696142578125,-0.06173194129168987,0.02855579400733113,0.0412871191561222
1772525808442944500,1.326944580078125,-0.041626141852140426,0.043941725318133826,0.00026800328642129895
1772525808452927500,1.336927490234375,0.01283843878507614,0.047617198960483074,0.02694733589738607
1772525808462911500,1.346911376953125,0.07862637746930122,0.03813011642992496,0.059926937696337695
1772525808472894500,1.35689453125,0.10814122576713561,0.05664455502480268,0.04159983836710453
1772525808482878500,1.36687841796875,0.10006313325166702,0.03354819546714425,0.0059922261521220205
1772525808492861400,1.376861328125,0.058715223819017406,-0.0007154547929763794,-0.004391805218160152
1772525808502844700,1.3868447265625,0.00827624543607235,-0.005917115089297294,-0.02827770771831274
1772525808512828700,1.39682861328125,-0.05324234536588192,-0.02030614431723952,-0.04900310036092996
1772525808522811400,1.406811279296875,-0.06428045673072337,-0.028923458275943992,-0.08097849355340003
1772525808532794400,1.41679443359375,-0.019082886132597923,-0.0068583414621651165,-0.061466276092827316
1772525808542778400,1.4267783203125,0.06306172859072685,-0.019472031580656766,-0.019728490559756756
1772525808552761600,1.43676171875,0.14988134938776493,-0.03880728503912687,-0.006486731670796871
1772525808562745600,1.44674560546875,0.15417816979885102,-0.06570698240250349,-0.017820903372764586
1772525808572728600,1.456728515625,0.12665771018862723,-0.03913929347246885,-0.022018939584493635
1772525808582711600,1.466711669921875,0.09872866977751255,-0.01371902101188898,-0.06964578315615653
1772525808592695600,1.476695556640625,0.05084755918383598,-0.03790887489467859,-0.06799041716456412
1772525808602678500,1.486678466796875,0.019786065965890883,-0.06399462552666664,-0.0733943220347166
1772525808612661500,1.49666162109375,0.004936871880292892,-0.03875131706818938,-0.08933394170552492
1772525808622645500,1.5066455078125,-0.03846972364783287,-0.036606121733039614,-0.07036036116629839
1772525808632628500,1.51662841796875,-0.03572714694142341,-0.018352526031434536,-0.051176352746784684
1772525808642612500,1.526612548828125,0.021938275563716886,0.009336714274436235,-0.033468262098729606
1772525808652595500,1.536595458984375,0.0651771133095026,-0.0018808453105390072,0.016789222237467764
1772525808662578700,1.54657861328125,0.0819341868430376,-0.0029695173300802705,0.020904548601806162
1772525808672562700,1.556562744140625,0.07611994760632515,0.02346080895587802,-0.01638560987263918
1772525808682545400,1.56654541015625,0.08248422194123267,0.018944938966631887,-0.017834931898117065
1772525808692528400,1.5765283203125,0.07120937921106815,0.004175093727558851,0.006203823076188564
1772525808702512400,1.586512451171875,0.043335283857584,-0.006706219640374184,-0.007473989142477512
1772525808712495600,1.59649560546875,0.017922025659680367,0.005975859539210796,-0.01957739165127277
1772525808722478600,1.606478515625,0.00649286915063858,0.0038275954641401764,0.010818038873374462
1772525808732462300,1.61646240234375,-0.01359481011033058,0.015150076728314161,0.033899346992373465
1772525808742445600,1.626445556640625,-0.02144143195748329,0.013531827876716852,0.023543080411851405
1772525808752429600,1.6364296875,-0.008402502164244652,0.02543269355073571,0.007020692417025565
1772525808762412500,1.64641259765625,0.012770634245872497,0.02592281515523791,0.014245090712606906
1772525808772395500,1.6563955078125,0.04341887048780918,0.0311114698395133,0.031685470335185525
1772525808782379500,1.666379638671875,0.06965864263772964,0.02254837028607726,0.04404138630032539
1772525808792362500,1.676362548828125,0.06558510958850383,0.03352525298297405,0.07395575530976056
1772525808802345500,1.686345458984375,0.043154082071781154,0.05844210596606135,0.09195493785887957
1772525808812329500,1.69632958984375,0.02045417448580265,0.072403265170753,0.07123655947893857
1772525808822312700,1.706312744140625,0.04875847795009613,0.0641780192695558,0.04706599481850862
1772525808832296700,1.716296630859375,0.04230594080984592,0.020943273176997897,0.017310323502123356
1772525808842279400,1.726279541015625,0.033787703311443325,0.01337371470555663,-0.0024877251625061033
1772525808852262400,1.736262451171875,0.06309387729465961,0.029990649116039273,-0.04093728280514478
1772525808862246400,1.746246337890625,0.1007002621114254,0.02573109197542071,-0.04744096561074257
1772525808872229600,1.756229736328125,0.11398293753266334,-0.005680822115391493,0.0008846738800406456
1772525808882212600,1.766212646484375,0.12993044824898242,0.012836977480351924,0.00998158804923296
1772525808892196400,1.7761962890625,0.1274690265715122,0.026791706944257018,-0.0025379940450191494
1772525808902179600,1.7861796875,0.09850304432809352,0.021157646580040455,0.0024608371555805207
1772525808912163600,1.79616357421875,0.06961480349600314,0.012943944986164569,0.03475099538564682
1772525808922146600,1.806146484375,0.03936521118283272,0.018031769644469023,0.023702654887735843
1772525808932129500,1.816129638671875,0.03499824814498424,0.03665697513744235,-0.0051095980986952776
1772525808942113500,1.826113525390625,0.056306409111618994,0.009514262798428534,0.002949789716303348
1772525808952096500,1.836096435546875,0.06913198841512203,-0.012501315785199403,0.00213145907074213
1772525808962079500,1.84607958984375,0.043413609790802,-0.030351445252448317,0.006765840873122215
1772525808972063500,1.8560634765625,0.02933715364336967,-0.030297815369069576,-0.00464724128395319
1772525808982046700,1.866046630859375,-0.00977495956122875,-0.05044438521042466,-0.024768238292634484
1772525808992030700,1.87603076171875,-0.020648235753178597,-0.028028847523778676,-0.035517888104915615
1772525809002013400,1.886013427734375,-0.03174772191643715,0.004038753996789455,-0.0015367080479860304
1772525809011996400,1.895996337890625,-0.003855506384372711,0.031007132682204244,0.022571020509302615
1772525809021980400,1.90598046875,0.02241524542570114,0.04657791904062032,0.04981470900475979
1772525809031963600,1.915963623046875,0.038781858336925504,0.03724675772413611,0.09004998102039098
1772525809041946400,1.9259462890625,0.020334932020306586,0.02028817026913166,0.08235241225510835
1772525809051930400,1.935930419921875,0.014963175854086875,0.0028929449625313282,0.03242810539603233
1772525809061913600,1.94591357421875,0.0414268198877573,0.009933949515223502,-0.019608955833315848
1772525809071897600,1.955897705078125,0.054546413701772684,-0.012251432677358388,-0.008555646899342536
1772525809081880600,1.965880615234375,0.06132628310024738,-0.008595248257368803,-0.027406770102679726
1772525809091863600,1.975863525390625,0.05230126512348652,0.02097995192557573,-0.05135287835747003
1772525809101847300,1.985847412109375,0.048346974539756775,0.049412704075127836,-0.028587796580791473
1772525809111830500,1.99583056640625,0.03724748837649822,0.04430938958674669,0.008892039246857166
1772525809121813500,2.0058134765625,0.005908347260951996,0.02742898193448782,0.00803396111279726
1772525809131797500,2.015797607421875,-0.021067922469973563,0.0054912908926606175,0.0022431027516722677
1772525809141780700,2.02578076171875,-0.03647533496022224,-0.013613660941272972,0.027168577432632443
1772525809151765000,2.035764892578125,-0.04014496338367462,-0.024520693272352217,0.0032221769168972966
1772525809161747700,2.045747802734375,-0.004187514817714691,-0.02811009606644511,-0.024738719937205313
1772525809171730700,2.055730712890625,0.030084172618389127,-0.024224925196170807,-0.002781155151128769
1772525809181714700,2.065714599609375,0.08210194462537765,-0.019621669184416532,0.01229863281995058
1772525809191698000,2.075697998046875,0.11943711128532886,-0.0014081132322549819,-0.00352875864803791
1772525809201680600,2.0856806640625,0.11754033775329589,0.000015635960549116133,0.002948620672523975
1772525809211664600,2.09566455078125,0.08887830689251422,-0.017857289860397575,-0.0009071779727935791
1772525809221647600,2.105647705078125,0.0395230320930481,-0.02832417720854282,-0.03208148391544818
1772525809231632000,2.1156318359375,0.028638649985194206,-0.012018500704318284,-0.056474166893959045
1772525809241614800,2.12561474609375,0.04293605540692806,0.007531564548611641,-0.05605798730850219
1772525809251597800,2.135597900390625,0.06902969708442687,-0.00691547847688198,-0.049420448990166184
1772525809261581600,2.14558154296875,0.08400982407331466,0.00042918519750237465,-0.03768734109848738
1772525809271564800,2.155564697265625,0.11188567299246788,0.024707740277051925,-0.03374678677916527
1772525809281547800,2.1655478515625,0.086553078815341,0.03252937381342053,0.0006336217284202575
1772525809291531800,2.17553173828125,0.012836685219407082,0.05373188244849443,0.010177695143222809
1772525809301514800,2.1855146484375,-0.04966097974777221,0.09002265462204813,0.0018240005567669868
1772525809311497700,2.195497802734375,-0.06907353622615336,0.09935162398144602,0.006854980461299419
1772525809321481700,2.205481689453125,-0.04555354442894458,0.09577230418995022,0.040404491102695464
1772525809331464700,2.215464599609375,0.020997779843211172,0.08473404669463634,0.06839198370277881
1772525809341448700,2.22544873046875,0.08546879070997238,0.06904518691450356,0.10074380899220704
1772525809351432000,2.235431884765625,0.1251952364206314,0.0630998686440289,0.1109238422229886
1772525809361414700,2.24541455078125,0.14246318208575248,0.05710881153568625,0.09397299968302249
1772525809371398700,2.255398681640625,0.10680559324920177,0.04601736254841089,0.0688368048608303
1772525809381381600,2.265381591796875,0.044161797809600827,0.037289720083028076,0.06718494600057602
1772525809391364900,2.27536474609375,-0.02054828251004219,0.024568185675889254,0.07491554025262594
1772525809401348900,2.285348876953125,-0.05045242238640785,0.021814795314520595,0.08052548908889293
1772525809411331600,2.29533154296875,-0.035002924320101735,0.015933628321439026,0.07853986822962761
1772525809421315600,2.305315673828125,-0.0015741174489259718,0.006240940216183662,0.07669190227538347
1772525809431298800,2.315298828125,0.0540185904353857,-0.013211509881168603,0.08029840233474969
1772525809441281800,2.32528173828125,0.09937456646561622,-0.04640665412694216,0.03688654610961675
1772525809451265800,2.335265869140625,0.1086298860669136,-0.06834770616963505,-0.01705956361144781
1772525809461248800,2.345248779296875,0.10640753384232521,-0.06484466648474335,-0.06383563557267188
1772525809471231700,2.355231689453125,0.07172200490832328,-0.06687880266085267,-0.08026362328231335
1772525809481215700,2.3652158203125,0.03078209175467491,-0.057797232191264626,-0.08219196099638938
1772525809491198700,2.37519873046875,0.02892681927680969,-0.017071400179713963,-0.09103899205774069
1772525809501182700,2.3851826171875,0.02898819407522678,-0.004208119214326143,-0.08368950607776642
1772525809511166000,2.395166015625,0.05110474881529808,-0.010792319910228252,-0.07648410474359989
1772525809521148700,2.405148681640625,0.09848550867140292,0.002696837868541479,-0.08537731303423643
1772525809531132700,2.415132568359375,0.11861059733331203,-0.037205548930913206,-0.107599666236341
1772525809541115600,2.42511572265625,0.11427402943372726,-0.0959185807928443,-0.12992986372709273
1772525809551099000,2.435098876953125,0.07582710213959216,-0.09131021021455525,-0.14614011703282595
1772525809561083000,2.445082763671875,0.0403723423987627,-0.06847951585575938,-0.15638386314958333
1772525809571065600,2.455065673828125,-0.014340660041570663,-0.07396554605141281,-0.12483750902414321
1772525809581049600,2.465049560546875,-0.044134909802675246,-0.05441241205856204,-0.10122107111513615
1772525809591032800,2.47503271484375,-0.03424246134161949,-0.0266335937730968,-0.06453297018706798
1772525809601015800,2.485015869140625,0.004251227703690528,-0.028134353724867105,-0.012674772655963897
1772525809610999800,2.494999755859375,0.02675707402229309,-0.028289105895161627,0.022876433196663853
1772525809620982800,2.504982666015625,0.04511749109923839,-0.02328691369369626,0.04916092127114534
1772525809630965800,2.5149658203125,0.02866846060156822,-0.0028958675719797607,0.05145575421005487
1772525809640949800,2.52494970703125,0.03570084345638752,0.014826982253789901,0.04150134642869234
1772525809650932700,2.5349326171875,0.02459843468368053,-0.0077088208116590975,0.05943535478711128
1772525809660916700,2.544916748046875,-0.019414310044050215,0.011262421640008687,0.06459025333225726
1772525809670900000,2.55489990234375,-0.02938216182887554,0.038741964717954394,0.05489829587936401
1772525809680882700,2.564882568359375,-0.032360300856828686,0.04638619586080312,0.06143821904212236
1772525809690866700,2.57486669921875,-0.009473930788040161,0.0802336665354669,0.08643822026401758
1772525809700849700,2.584849609375,0.016450199541449547,0.08959142359793186,0.10376403359621762
1772525809710833000,2.5948330078125,0.0439887793302536,0.08526976100653409,0.10190876111835241
1772525809720817000,2.60481689453125,0.0479839864462614,0.05797551136761903,0.08466331954598426
1772525809730799600,2.614799560546875,0.04185761252045631,0.0623100334405899,0.04536620516330003
1772525809740783600,2.62478369140625,0.031662966242432596,0.05431187429353594,0.0010679214924573899
1772525809750766800,2.634766845703125,0.05436988809108734,0.051693946880102155,-0.014904431404173373
1772525809760749800,2.644749755859375,0.08773732016384601,0.05623305161446333,0.000026011224091053008
1772525809770733800,2.65473388671875,0.14055880976915358,0.07147080662623047,0.048454526567459105
1772525809780716500,2.664716552734375,0.14632336464524268,0.06883899681791662,0.09103139327317476
1772525809790699800,2.67469970703125,0.14136486545503138,0.08605345873013139,0.10603636244237423
1772525809800683800,2.684683837890625,0.12327449749112128,0.09237184809669852,0.1063008585974574
1772525809810666800,2.694666748046875,0.07758709754943847,0.05918225680887699,0.08304799330383539
1772525809820650000,2.70464990234375,0.04878887308835983,0.03751154614016414,0.031520927423238754
1772525809830634000,2.714634033203125,0.02297521739602089,0.03208382200300693,-0.011079612419009208
1772525809840616700,2.72461669921875,0.033473230534791946,0.0024440321512520314,-0.0264081144541502
1772525809850600700,2.7346005859375,0.0466553681910038,-0.002847936777025461,-0.03977525328844785
1772525809860583700,2.744583740234375,0.07866027973890304,0.0031130174539983273,-0.041296471506357194
1772525809870567000,2.75456689453125,0.10214344665706157,0.005977466974407434,-0.0016880992174148558
1772525809880551000,2.764551025390625,0.08539104929864406,0.02484948683530092,0.011795651733875274
1772525809890533600,2.77453369140625,0.05813070192933082,0.033438451482355594,0.012736731976270675
1772525809900516900,2.784516845703125,0.008268062129616737,0.029978520286828278,0.015042670831084251
1772525809910500900,2.7945009765625,-0.0019213234513998031,0.018971096321195362,0.00838555102944374
1772525809920483800,2.80448388671875,-0.006470072796940803,-0.00807926155924797,-0.007907704384624958
1772525809930467800,2.8144677734375,-0.004038461735844612,-0.020500497845560312,-0.031147417935729026
1772525809940450600,2.824450439453125,0.026926000848412512,-0.019929858350753782,-0.052993631301820276
1772525809950433800,2.834433837890625,0.05069967514574528,-0.02417728666216135,-0.03881254573613405
1772525809960417800,2.844417724609375,0.0775292298823595,-0.03602466858327388,-0.04272913465797901
1772525809970400800,2.85440087890625,0.07236497898697852,-0.050868748102337116,-0.046185412591695785
1772525809980384000,2.864384033203125,0.023037761238217352,-0.06306450506970286,-0.04973404498398304
1772525809990368000,2.874367919921875,-0.008602993172407149,-0.0765402188450098,-0.04682546406090259
1772525810000350700,2.884350830078125,-0.014326046994328498,-0.05974339782297611,-0.06582359451949596
1772525810010334700,2.894334716796875,0.003940262058377266,-0.06168006497398019,-0.04297580289542675
1772525810020317700,2.904317626953125,0.0407470209300518,-0.07318900872096419,-0.0030327918246388433
1772525810030301000,2.914301025390625,0.040622517767548556,-0.053165042345970866,0.02463730538934469
1772525810040285000,2.924284912109375,0.021793314135074616,-0.043976796631515026,0.01884586250633001
1772525810050267600,2.934267578125,-0.009543488892912864,-0.039674715523421764,-0.013221300622820854
1772525810060251000,2.9442509765625,-0.033901100558042525,-0.04263298080712557,-0.04659574695825577
1772525810070235000,2.95423486328125,-0.0197591779589653,-0.047107788133621216,-0.08400573242008685
1772525810080217900,2.9642177734375,0.01589139661490917,-0.04672054238170385,-0.11267390076071024
1772525810090201900,2.974201904296875,0.0680266575217247,-0.05271875988319516,-0.08966273526847363
1772525810100184600,2.9841845703125,0.10313245769441128,-0.0581217879705131,-0.04363397454321384
1772525810110167800,2.994167724609375,0.1015711997270584,-0.04497969006374478,-0.015526947216689586
1772525810120151800,3.00415185546875,0.07390460964441299,-0.01822963030412793,0.002497369773685932
1772525810130134800,3.014134765625,0.037893385064601895,0.024745149677991865,0.030376725824177265
1772525810140117800,3.02411767578125,0.01816226415634155,0.06698956955894828,0.046319852626323696
1772525810150101800,3.034101806640625,-0.010455927562713623,0.11293912756815552,0.04319821347445249
1772525810160084700,3.044084716796875,0.012706336838006973,0.11441519147008657,0.042426060058176514
1772525810170068700,3.05406884765625,0.05192775563597679,0.0991246833577752,0.06349661287665367
1772525810180051700,3.0640517578125,0.08192717258036136,0.06166413675248623,0.06963233915269375
1772525810190035000,3.074034912109375,0.09461480471789836,0.03401552071794867,0.045456806056201456
1772525810200019000,3.08401904296875,0.088343469363451,0.04069061456769705,0.01070697971433401
1772525810210001700,3.094001708984375,0.047259763824939724,0.018159779938310385,0.0074354106977581975
1772525810219985000,3.10398486328125,0.023032500541210175,0.015910539706796407,0.006334755979478359
1772525810229969000,3.113968994140625,0.030747604963183402,0.05401259908601641,0.02770253817886114
1772525810239952000,3.123951904296875,0.06572247223258018,0.07714563739225268,0.0625888503819704
1772525810249936000,3.133935791015625,0.08909048833847046,0.05883797341585159,0.07841010437011718
1772525810259918800,3.1439189453125,0.1068172836869955,0.03196297210231423,0.0572886981472373
1772525810269901800,3.15390185546875,0.06666939769387245,0.04881999887898564,0.02477583707720041
1772525810279885800,3.1638857421875,0.014767945542931557,0.05383884995430708,0.004166472029685974
1772525810289868800,3.173868896484375,0.006902618995308875,0.04221753187403082,-0.013788579116761684
1772525810299851800,3.183851806640625,0.010156067833304404,0.026859511483460663,0.0023816344395279883
1772525810309836000,3.1938359375,0.019163550153374672,0.014336422257870435,0.03180529732257128
1772525810319818800,3.20381884765625,0.02864975590109825,0.01029226143360138,0.0240945768147707
1772525810329801700,3.2138017578125,0.026836568999290464,0.01901172059252858,0.01735094777345657
1772525810339785700,3.22378564453125,0.023805238479375837,0.003274930017441511,0.01745382362604141
1772525810349769000,3.23376904296875,0.02182838544845581,0.0013026070311665534,0.0020110475614666936
1772525810359753000,3.2437529296875,0.026720249143242836,0.008201572764664888,-0.02887245874106884
1772525810369735700,3.253735595703125,0.0202121824234724,-0.009267594560980797,-0.01649959164112806
1772525810379718700,3.26371875,0.024072949504852295,-0.013987754950672388,-0.01647270363420248
1772525810389703000,3.273702880859375,0.05359305849969387,-0.01624021005257964,0.0062730889201164245
1772525810399686000,3.283685791015625,0.06810849058628082,-0.013843670304864645,0.03453063063323498
1772525810409668900,3.2936689453125,0.05789981578290462,-0.01976809191778302,0.029488252551853656
1772525810419652600,3.303652587890625,0.03958206880390644,-0.023352964667230844,0.009019757279753685
1772525810429635800,3.3136357421875,0.027103695502877233,-0.02061141087412834,-0.03686754914820194
1772525810439619800,3.323619873046875,-0.007075637474656104,-0.035055239029228684,-0.05539864661693573
1772525810449602800,3.333602783203125,-0.04379822519421577,-0.04212999972105026,-0.07646072386801242
1772525810459585800,3.343585693359375,-0.0329611893594265,-0.01783434737622738,-0.0641968701004982
1772525810469570000,3.353570068359375,-0.013544541227817534,-0.0036054771460592746,-0.02146189022362232
1772525810479552800,3.363552734375,0.03729249656200409,0.012037789926677941,0.022142273703217506
1772525810489535700,3.37353564453125,0.07161562192440032,0.023077216465771197,0.05250497100204229
1772525810499519700,3.383519775390625,0.07028174297213553,0.026986498863995075,0.05468786799907684
1772525810509503000,3.3935029296875,0.04805763620436191,0.006343669938296079,0.03775076172351837
1772525810519487000,3.403487060546875,0.002834346643090248,-0.009237053292244671,-0.013242635671794414
1772525810529469700,3.4134697265625,-0.016976853764057158,-0.0023214286848902703,-0.0535918894559145
1772525810539452700,3.42345263671875,-0.014377484920620917,-0.0017015432208776474,-0.0820016991212964
1772525810549437000,3.43343701171875,0.04945113638937473,0.0010427870512008666,-0.07638736637085676
1772525810559420000,3.443419921875,0.12283902868330478,0.012895429669320583,-0.031925708831846714
1772525810569403000,3.45340283203125,0.17905951307713985,0.01775909018293023,0.024931612160801885
1772525810579386600,3.46338671875,0.18400106113255024,0.033544249944388864,0.042972880285978315
1772525810589369900,3.473369873046875,0.14274492163658142,0.049269788473099464,0.033874504812061786
1772525810599353900,3.483353759765625,0.10033610497415066,0.06075111356079578,0.014224632446467876
1772525810609336800,3.4933369140625,0.05203881479501724,0.039053661015629765,-0.019488544324040413
1772525810619319800,3.50331982421875,0.03559387595057487,0.025201076751947403,-0.03985153339505195
1772525810629303800,3.5133037109375,0.012852467310428618,0.013871288964152335,-0.020573416951298714
1772525810639286800,3.523286865234375,0.021405776122212408,0.016924392924457788,0.015055822573602199
1772525810649269800,3.533269775390625,0.05057867911458015,0.03171338125541806,0.048181262584030625
1772525810659253800,3.543253662109375,0.06290916837751866,0.037757775986194606,0.08640402573347092
1772525810669237000,3.553237060546875,0.06236848562955856,0.034045623595267534,0.10403817436248064
1772525810679221000,3.563220947265625,0.05828793831765652,0.03144888510033488,0.07345832718163728
1772525810689203700,3.57320361328125,0.057067456611990926,0.040124943508952855,0.04331541011333465
1772525810699186700,3.583186767578125,0.05465162764191627,0.020508096630126236,0.028871581958234308
1772525810709171000,3.5931708984375,0.045104631617665286,0.008399871815741061,0.0011994389176368714
1772525810719154000,3.60315380859375,0.029881928044557568,0.014563216751068829,-0.02611877611875534
1772525810729136600,3.61313671875,0.021048633247613906,-0.003786971192806959,-0.015832944425940514
1772525810739120600,3.62312060546875,0.0006306991189718247,-0.01967135354503989,-0.005728314518928528
1772525810749103900,3.633103759765625,0.0007604629784822463,-0.017063363003730774,-0.000625146161019802
1772525810759086800,3.6430869140625,-0.003118424281477928,-0.025330986741930246,0.006084872871637344
1772525810769070800,3.65307080078125,0.018370938470959663,-0.0401117917664349,0.009713292501866817
1772525810779053800,3.6630537109375,0.023584873726963995,-0.02320610354244709,0.02035305219888687
1772525810789037800,3.673037841796875,0.010301613783836365,-0.01561433323919773,0.01770750612616539
1772525810799020800,3.683020751953125,0.005318564674258232,-0.003522621168196201,-0.021475334227085113
1772525810809003800,3.693003662109375,0.011444354078173636,0.006061345865577459,-0.04246902241706848
1772525810818987800,3.70298779296875,0.022449147695302964,-0.005162643460184336,-0.058012920768558976
1772525810828971000,3.712970947265625,0.028359833043813704,-0.030477409719675778,-0.06982640042006968
1772525810838953700,3.72295361328125,0.037915596896409984,-0.029145430463552474,-0.08130231868028641
1772525810848937700,3.732937744140625,0.056463060978054994,-0.01592149949222803,-0.09025982437878846
1772525810858920700,3.742920654296875,0.09813654910326003,-0.034802287181466815,-0.06270253988951444
1772525810868904700,3.75290478515625,0.12921323989033698,-0.049217181503027674,-0.05127747503370046
1772525810878888000,3.762887939453125,0.12500643585026264,-0.03699439039826393,-0.04476677796542644
1772525810888870700,3.77287060546875,0.08300386190116404,-0.03039937604740262,-0.03183627698272466
1772525810898854700,3.782854736328125,0.05342822332680225,-0.005184563031047583,-0.02251899806112051
1772525810908838000,3.792837890625,0.012971709775924682,-0.009044453329592942,-0.023743571420013904
1772525810918820900,3.80282080078125,-0.0029892449438571928,-0.022741408640146253,-0.03261778274923563
1772525810928804900,3.812804931640625,0.003267477363348007,-0.017626257583498953,-0.05253332031369209
1772525810938787600,3.82278759765625,-0.00893675517141819,-0.025538053621351718,-0.05737345382124185
1772525810948770800,3.832770751953125,0.0102870007365942,-0.025939327898621557,-0.04783551788628101
1772525810958754800,3.8427548828125,0.06315291400551795,-0.009515139581263064,-0.02034954506754875
1772525810968737800,3.85273779296875,0.09417875138819218,0.0030552959173917767,0.0074205053895711895
1772525810978721800,3.8627216796875,0.10299451052844524,0.029615970584750174,0.05738046808391809
1772525810988705000,3.872705078125,0.037439796078205106,0.050761196074634786,0.10319704736322163
1772525810998687700,3.882687744140625,-0.06000292554199695,0.06503069057613611,0.1021396472647786
1772525811008671700,3.892671630859375,-0.12681143944561482,0.09036299249231815,0.05953443124741316
1772525811018654700,3.90265478515625,-0.13486615108549593,0.10507701589092612,0.06326981838345527
1772525811028638000,3.912637939453125,-0.0982125369489193,0.07770955488532781,0.0707850163191557
1772525811038622000,3.9226220703125,-0.03199205206632614,0.05479278967827558,0.06915098537653684
1772525811048604700,3.932604736328125,0.016602759754657744,0.03964563555940986,0.07212474049031734
1772525811058588700,3.942588623046875,0.04647416640520095,0.046119800009578465,0.08954933802187443
1772525811068572000,3.952572021484375,0.03175707426667213,0.053829789865016936,0.09086012835949658
1772525811078555000,3.962554931640625,0.036626726129651066,0.07937836488038301,0.06528145046681165
1772525811088539000,3.972538818359375,0.037626258561015126,0.06251432384103536,0.04417904120534658
1772525811098521600,3.982521484375,0.03786883514523506,0.041892391572892665,0.01104161849617958
1772525811108504800,3.9925048828125,0.0641442631304264,0.033136692056804896,0.003462415413558483
1772525811118486800,4.00248681640625,0.06222118611335754,0.030200054083019495,0.019419570741057393
1772525811128469800,4.0124697265625,0.04320844260752201,0.0415996922366321,0.06657090575546026
1772525811138453800,4.022453857421875,0.03834112883210182,0.06802388104274869,0.1081222288057208
1772525811148436700,4.032436767578125,0.039217911666631695,0.08123772901147604,0.12658785982280968
1772525811158419200,4.042419189453125,0.031575872480869294,0.06668357234969735,0.09972235698997974
1772525811168403200,4.0524033203125,0.050643561044335365,0.05808160209059715,0.06004588790088892
1772525811178386200,4.06238623046875,0.07034837846755981,0.027827479732781647,0.016491992856562138
1772525811188370200,4.0723701171875,0.12312719797492026,0.0188201435431838,-0.036790976780653
1772525811198353400,4.082353515625,0.1534475174367428,0.01336480074673891,-0.05699877528995275
1772525811208336100,4.092336181640625,0.17747838136553765,-0.01777604131773114,-0.06454261479824781
1772525811218320100,4.102320068359375,0.16494097135365007,-0.03576470247283578,-0.05880056401491165
1772525811228303000,4.11230322265625,0.14472586632072926,-0.025729484540224074,-0.08570932146757841
1772525811238286300,4.122286376953125,0.10801263095140456,-0.03303440072610974,-0.10117606292963027
1772525811248270300,4.132270263671875,0.08344225331842899,-0.03605316402539611,-0.11052052211910486
1772525811258253000,4.142253173828125,0.09346388111710548,-0.045389147647470235,-0.11544570356160401
1772525811268236300,4.152236328125,0.10841536653339862,-0.04741451599523425,-0.10619155300408602
1772525811278220300,4.16222021484375,0.08405892391204833,-0.03685337449237704,-0.0911754779189825
1772525811288203300,4.172203369140625,0.05886252333521843,-0.050772740381956095,-0.05790916813313961
1772525811298187300,4.182187255859375,0.03218026811480522,-0.04518427272513509,-0.06144611008763313
1772525811308170000,4.192169921875,-0.005010521638393402,-0.02124620164632797,-0.04916735101193189
1772525811318153200,4.2021533203125,-0.01714110441505909,-0.02971767739355564,-0.026574995453655718
1772525811328137200,4.21213720703125,-0.024968437039852142,-0.04454992034435272,-0.02820435022115707
1772525811338120200,4.2221201171875,-0.009063596421480179,-0.05831599536836147,-0.035037411111593246
1772525811348103200,4.232103271484375,0.016943536016345025,-0.053327247170358895,-0.045502983285486694
1772525811358087400,4.24208740234375,0.021125790137052534,-0.04898527244329452,-0.04173749327212572
1772525811368070100,4.252070068359375,0.029711832174658774,-0.053256958413124084,-0.03083645229041576
1772525811378054100,4.26205419921875,0.004656301373243332,-0.01870002429485321,-0.011608604729175567
1772525811388037000,4.272037109375,-0.012224690800905227,-0.0022533318847417832,0.004637012150883675
1772525811398020400,4.282020263671875,-0.03019698534309864,0.011744944459944963,0.030060499481856823
1772525811408004400,4.29200439453125,-0.02858078231811523,0.021490531796216964,0.058897010126709934
1772525811417987000,4.301987060546875,-0.007170330020785332,0.016268120972812175,0.05923544830083847
1772525811427970000,4.311969970703125,0.03389291725158691,0.013367138834297656,0.04090776444971561
1772525811437954300,4.321954345703125,0.0887140562415123,-0.001161591125279665,0.01882189710885286
1772525811447937300,4.331937255859375,0.1018371571868658,-0.02415434417799115,-0.0033089784175157544
1772525811457920000,4.341919921875,0.0912801073372364,-0.02749824777841568,-0.03177870157659054
1772525811467904000,4.351904052734375,0.07098609184920787,-0.008450725220143795,-0.03165039902180433
1772525811477887200,4.36188720703125,0.04817629414796829,0.008921411471813917,-0.009162088359892368
1772525811487871200,4.371871337890625,0.02217208431959152,0.04020020070225,-0.003397533483803272
1772525811497856300,4.381856201171875,0.059057753646373744,0.06042188160642981,-0.0056540802389383315
1772525811507839200,4.391839111328125,0.10509820480942726,0.06551584374457597,0.024307050521671772
1772525811517823200,4.4018232421875,0.09679214875698089,0.037197219493985176,0.05127309111952781
1772525811527806200,4.41180615234375,0.06877075388729571,0.026599545373022556,0.015616086804866789
1772525811537789200,4.4217890625,0.03068330755531788,0.0148836808770895,-0.012422551460564136
1772525811547773200,4.431773193359375,-0.003295534414052963,0.01620206999927759,-0.006469488275051116
1772525811557756200,4.441756103515625,0.006665303108096122,0.03474427338391542,0.010154898789525031
1772525811567739100,4.4517392578125,0.036412206596136094,0.062200143325328826,0.030537469343841075
1772525811577723400,4.461723388671875,0.052202480924129484,0.04949292970448732,0.05060322903394699
1772525811587706000,4.4717060546875,0.0973579659461975,0.08021993027105927,0.057174131856858726
1772525811597690000,4.481690185546875,0.10251637162268161,0.07483955240696669,0.06402940457910299
1772525811607673000,4.491673095703125,0.11716507470011711,0.028837387427687645,0.047291328006982804
1772525811617656300,4.50165625,0.09107318658828735,-0.00033610008656978605,0.008529051153361797
1772525811627640300,4.511640380859375,0.06412088225483895,-0.0034480946272611615,-0.010255728815495968
1772525811637623000,4.521623046875,0.041675826212763785,-0.0033829204365611073,-0.002452069327235222
1772525811647606000,4.53160595703125,0.02437280923426151,-0.007829232320934534,0.00905658215880394
1772525811657590300,4.54159033203125,0.02062368583381176,0.006542699641734361,0.02038520090281963
1772525811667573200,4.5515732421875,0.03225041074156761,0.04558423182815313,0.05383855769336223
1772525811677556200,4.56155615234375,0.024859715968370437,0.07321721190214156,0.05881020862609148
1772525811687540200,4.571540283203125,0.013549801924824714,0.08362213992998004,0.05960837326645851
1772525811697523200,4.581523193359375,0.010288169780373573,0.08637859903126954,0.05305968227535486
1772525811707507200,4.591507080078125,-0.003657353463768959,0.07883899730667471,0.052686465048789974
1772525811717490200,4.601490234375,-0.01071136362850666,0.05932502628043294,0.039683775612711907
1772525811727473200,4.61147314453125,-0.017099018839001653,0.03828106920793652,0.02308832238167524
1772525811737457200,4.62145703125,-0.03761047646999359,0.02746916781440377,0.00478664975464344
1772525811747440000,4.631440185546875,-0.05025368494391441,0.019736381605267524,0.007234627428650856
1772525811757423000,4.641423095703125,-0.021216975551843643,0.011714695452153681,0.011099486163258551
1772525811767407000,4.651406982421875,0.03328501448631287,0.0038313948564231396,0.049392976461350914
1772525811777390300,4.661390380859375,0.06716331869065761,-0.01082666057124734,0.08043868758827448
1772525811787373300,4.671373291015625,0.08785714715123176,-0.019466624753177165,0.03661269760429859
1772525811797357000,4.681357177734375,0.07631751600503921,-0.044163259114325046,-0.015160159730911255
1772525811807340000,4.691340087890625,0.0678133070319891,-0.0696495825484395,-0.03490910855680704
1772525811817324300,4.70132421875,0.05934826102554798,-0.08675167012736201,-0.06040244625359773
1772525811827307300,4.711307373046875,0.055228550747036934,-0.09927125222161412,-0.07165244680345058
1772525811837290200,4.721290283203125,0.07913608055710793,-0.0942430487960577,-0.07196867314577102
1772525811847274200,4.731274169921875,0.10623100823163986,-0.0744197195596993,-0.06220861889272928
1772525811857257200,4.74125732421875,0.1094791963726282,-0.056785863191634416,-0.057472238020598886
1772525811867240200,4.751240234375,0.10314707074165344,-0.03656505907028913,-0.059871115855872625
1772525811877224200,4.76122412109375,0.0529337178081274,-0.014604571674764156,-0.06609335137158633
1772525811887207200,4.771207275390625,0.03189209882318973,-0.002436287236213684,-0.08005231861919164
1772525811897191200,4.781191162109375,0.04754091885387897,0.015070727881789207,-0.08316168281137942
1772525811907174100,4.791174072265625,0.08492810796201229,0.010139993481338023,-0.08695318404883146
1772525811917157000,4.8011572265625,0.11034838042259215,0.017654753025621174,-0.08623948282152413
1772525811927141000,4.81114111328125,0.137098440182209,0.02748392699211836,-0.08660890065580606
1772525811937124400,4.821124267578125,0.10610592054724692,0.01142258063778281,-0.06782499746978282
1772525811947107000,4.831107177734375,0.056035190954804415,0.010115297431498766,-0.05242839863449335
1772525811957091000,4.841091064453125,-0.012376666492223739,0.02137567324489355,-0.03861380829364061
1772525811967074000,4.851073974609375,-0.03571078032851219,0.03583265314251184,-0.035171266624331475
1772525811977057300,4.861057373046875,-0.009683189624547959,0.009196721281856298,0.0012996844217181204
1772525811987041300,4.871041259765625,0.03442658573687076,-0.013338058870285748,0.049587037728726864
1772525811997024300,4.881024169921875,0.04251344608068466,-0.01674976700991392,0.06048515610098838
1772525812007008000,4.891008056640625,0.015935235756635666,-0.006593699176609516,0.07571721202433108
1772525812016991200,4.9009912109375,-0.03808803085386753,0.00819821176379919,0.07328618548512458
1772525812026974200,4.91097412109375,-0.09126198715865612,0.007785831570625305,0.06132277596890926
1772525812036958200,4.920958251953125,-0.09642156187891959,0.026371581836044787,0.03672930972129106
1772525812046941200,4.930941162109375,-0.08184826212525367,0.026547669055312872,0.029829321074485778
1772525812056924200,4.940924072265625,-0.03569908989071846,-0.00832958305850625,0.019499357978999612
1772525812066908200,4.950908203125,0.024293314257264137,-0.011412059243768454,-0.005086509484052658
1772525812076891100,4.96089111328125,0.0610205781519413,-0.006429156264662742,0.021580548167228698
1772525812086875100,4.970875244140625,0.059603697091341015,-0.004871989950537681,0.04341185622513294
1772525812096858400,4.9808583984375,0.024574469286203382,0.0003299626067280769,0.04841477907896041
1772525812106841000,4.990841064453125,-0.020046178206801414,0.019375147077441215,0.03408464043140411
1772525812116825000,5.0008251953125,-0.032364392510056496,0.033023879332095385,0.007105155830085277
1772525812126808000,5.01080810546875,-0.0255932909399271,0.015713994221389294,-0.02063186914026737
1772525812136791300,5.020791259765625,0.021687515673041342,0.00042041736915707586,-0.03906418240964413
1772525812146775300,5.030775390625,0.07167582767903805,-0.024078210201859473,-0.05945142913907766
1772525812156758500,5.040758544921875,0.12999533017873763,-0.04299903764054179,-0.06718465373963117
1772525812166741500,5.050741455078125,0.18223463598191736,-0.03093655166402459,-0.07194704583585262
1772525812176725500,5.0607255859375,0.20163024132549762,-0.040116029550135136,-0.05462357059121131
1772525812186708500,5.07070849609375,0.18359423389732837,-0.037912820417433976,-0.05045242238640785
1772525812196692500,5.0806923828125,0.1662128909856081,-0.012545301057398319,-0.06515899313092231
1772525812206675500,5.090675537109375,0.13729191692769527,-0.008639525790512562,-0.034847441497445106
1772525812216658700,5.10065869140625,0.0753507167994976,-0.0046373044118285175,-0.006400514692068099
1772525812226642700,5.110642578125,0.005775076270103454,0.0029760932013392447,-0.022531273020803926
1772525812236625400,5.12062548828125,-0.06716507225632667,0.020753157432377337,-0.0071373045340180396
1772525812246608400,5.1306083984375,-0.12782850753366948,0.013524375222623347,0.004019757035374641
1772525812256592600,5.140592529296875,-0.1330547177493572,0.01217179156988859,-0.016180150428414343
1772525812266575600,5.15057568359375,-0.08028057441711425,0.008393003683537244,-0.027030922527611256
1772525812276559600,5.1605595703125,-0.029530630388855932,0.0029084347926080227,0.01242021337300539
1772525812286542300,5.170542236328125,0.03694645960330963,0.01880129271224141,0.03718260644674301
1772525812296525600,5.180525634765625,0.11373860738277435,0.05246610029637813,0.0687760145843029
1772525812306509600,5.190509521484375,0.15540215863585471,0.06694660720005631,0.1195858721062541
1772525812316492500,5.200492431640625,0.11473229459524154,0.07001257064193486,0.13167963000386954
1772525812326475500,5.2104755859375,0.021964579048752784,0.10059110264852643,0.07002952177673578
1772525812336459500,5.22045947265625,-0.0791021782875061,0.11744272259771824,0.020742051516473292
1772525812346442500,5.2304423828125,-0.1378039581030607,0.0967604384444654,-0.0003828618377447128
1772525812356425500,5.240425537109375,-0.1274614277869463,0.05939020047113299,-0.024922844332456586
1772525812366409500,5.250409423828125,-0.05899637884795665,0.05610387227684259,-0.039030572400987146
1772525812376392700,5.260392822265625,0.038242344632744785,0.05624897983595729,-0.007254793433845043
1772525812386376700,5.270376708984375,0.1113882448643446,0.03516089136078954,0.00670592737942934
1772525812396359400,5.280359375,0.1668313151448965,0.010318564918637274,0.004580313527584075
1772525812406342400,5.29034228515625,0.1702127742767334,0.005020458510518073,-0.009002221623063087
1772525812416326400,5.300326416015625,0.14999883828759192,-0.004717530041188001,-0.01600947003662586
1772525812426309600,5.3103095703125,0.09474690666496753,-0.004821867198497057,-0.029841011512279508
1772525812436292400,5.320292236328125,0.07270400168299675,0.008717267201840876,-0.04454553643018007
1772525812446276400,5.3302763671875,0.07781915273964404,0.009257657688856124,-0.030140578980743883
1772525812456259600,5.340259521484375,0.09187573514282703,-0.014450257895886897,0.007503215236961841
1772525812466242600,5.35024267578125,0.1093400801628828,-0.036376258499920364,0.03631488370150327
1772525812476226600,5.3602265625,0.11389233663976192,-0.044063159740716215,0.03719663497209549
1772525812486209500,5.37020947265625,0.09603110125660896,-0.045257045700401066,0.03837415431886911
1772525812496193500,5.380193603515625,0.08972177197933197,-0.04661459778919816,0.016137480330467222
1772525812506176500,5.390176513671875,0.05746551601886749,-0.03258329595774412,0.014213234269618987
1772525812516159500,5.400159423828125,0.024601357293128966,-0.024723522368073462,0.033444881223142146
1772525812526143500,5.4101435546875,-0.025299860951304435,-0.016625263847410678,0.028114626111090182
1772525812536126700,5.420126708984375,-0.05699497589766979,0.002875701566785574,0.008624035960435867
1772525812546109400,5.430109375,-0.059924015086889264,0.010831336746364831,-0.011528232969343662
1772525812556093400,5.440093505859375,-0.05654489404261112,0.03212240044772625,-0.046210547032952305
1772525812566076400,5.450076416015625,-0.030009353816509245,0.036382980501651764,-0.057574529351294035
1772525812576060400,5.460060302734375,0.008687748846411705,0.03886223009675741,-0.035472295397520066
1772525812586043600,5.470043701171875,0.03465980997085571,0.023940993688255547,-0.03780746034681797
1772525812596026400,5.4800263671875,0.040484570601582524,0.04843173021376133,-0.042347734124958514
1772525812606010400,5.49001025390625,0.012744915282726288,0.06561959637999534,-0.0133586632668972
1772525812615993600,5.49999365234375,-0.03709726625084877,0.073567048253119,0.01740238569974899
1772525812625976600,5.5099765625,-0.04540624491274357,0.08916428422704338,0.02830693381279707
1772525812635960600,5.519960693359375,-0.08457154960930346,0.07041530622392893,0.03667319561988115
1772525812645943600,5.529943603515625,-0.10185060119032859,0.04900222357809543,0.01710837118923664
1772525812655926500,5.539926513671875,-0.086827219581604,0.047006227455288166,-0.018627543580532074
1772525812665910500,5.54991064453125,-0.07951835787296295,0.02202726902142167,-0.02166793418973684
1772525812675893500,5.5598935546875,-0.049909986072778696,-0.007932984956353903,-0.0313531696408987
1772525812685877500,5.56987744140625,-0.02772036609649658,-0.036072453247755765,-0.0453808182105422
1772525812695860700,5.57986083984375,-0.0011129296779632568,-0.03313990692719817,-0.026471827340126035
1772525812705843500,5.589843505859375,0.02108721169233322,-0.01798983019888401,0.014545827224850654
1772525812715827500,5.599827392578125,0.04166939647197723,0.01512698811367154,0.045156069543957705
1772525812725810400,5.609810546875,0.054041386789083476,0.03226151665747166,0.06746376294195651
1772525812735793700,5.619793701171875,0.07573708576858043,0.03266659032702446,0.09683248076736926
1772525812745777700,5.629777587890625,0.06400105526745319,0.03930544381961226,0.0894067146807909
1772525812755760400,5.639760498046875,0.07235036593973636,0.02666208921521902,0.07196136662214994
1772525812765743600,5.64974365234375,0.11356675794720648,0.002379296351969242,0.03599398118406534
1772525812775727600,5.6597275390625,0.1824029782861471,0.0011572072111070155,0.0009112696260213852
1772525812785710600,5.669710693359375,0.23780571655631064,-0.005429769963771105,-0.010823591831326484
1772525812795694600,5.679694580078125,0.2793400884717703,-0.009682751233130693,-0.03605038754642009
1772525812805677300,5.68967724609375,0.32606501476764677,0.0017601415403187275,-0.03686228845119476
1772525812815660500,5.69966064453125,0.3390875779479742,0.007254793433845043,-0.026032266879081726
1772525812825644500,5.70964453125,0.3042594256728887,0.03563639991804957,0.04171060526520014
1772525812835627500,5.71962744140625,0.26191665998399255,0.05786445220857858,-0.04403700238615274
1772525812845610500,5.729610595703125,0.25231822603344917,0.006866232507675886,-0.01466799229979515
1772525812855594800,5.7395947265625,0.23725977311134336,-0.010532207669317721,-0.036924540032446385
1772525812865577500,5.749577392578125,0.19772212797105312,-0.038434652334451674,-0.079661857996881
1772525812875560400,5.759560546875,0.15185294172167776,-0.028998423208296296,-0.0871709184527397
1772525812885544400,5.76954443359375,0.11782266182601452,-0.04281023707017302,-0.08664484875202179
1772525812895527700,5.779527587890625,0.1077361520975828,-0.056711775042116636,-0.05753945803791284
1772525812905511700,5.78951171875,0.08268120581805706,-0.04819251463040709,-0.02361117721199989
1772525812915494400,5.799494384765625,0.025265374159812927,-0.03970584131404757,-0.01714285798072815
1772525812925477600,5.8094775390625,-0.053879474225640295,-0.028376930309087035,-0.026978607818484306
1772525812935461600,5.819461669921875,-0.12349077059030532,-0.0285549172244966,-0.045069852565228934
1772525812945444600,5.829444580078125,-0.1755149723380804,-0.05846548684164881,-0.05561608875989914
1772525812955427300,5.83942724609375,-0.2052946090519428,-0.07820815205723047,-0.051963995993137356
1772525812965411300,5.849411376953125,-0.21959727517068384,-0.08789967111870646,-0.030358021123707293
1772525812975394600,5.85939453125,-0.22197744830548763,-0.07562047365158796,-0.006234510475397109
1772525812985377500,5.86937744140625,-0.18465689469277857,-0.04151289073601365,0.01475508606135845
1772525812995361500,5.879361572265625,-0.14675240371227263,-0.012577888152748346,0.02322480824291706
1772525813005344500,5.889344482421875,-0.10718027178049087,-0.009656447748094796,0.02329582765251398
1772525813015328500,5.89932861328125,-0.08806231433451175,-0.015308336029946802,-0.004800678279995918
1772525813025311500,5.9093115234375,-0.058197337424755094,-0.01877732731476426,-0.06150047062337398
1772525813035294500,5.91929443359375,-0.023290859216451642,-0.025616671815514563,-0.09145750973075628
1772525813045278500,5.929278564453125,0.020582769301533698,-0.040904987970739604,-0.10323562580794095
1772525813055261700,5.93926171875,0.08668167363107204,-0.033563977558165786,-0.0896112973421812
1772525813065244400,5.949244384765625,0.14126257412433624,-0.013488134865462778,-0.06658698010742664
1772525813075228400,5.959228515625,0.13891747230291365,0.017869857081025838,-0.04980886378586292
1772525813085211400,5.96921142578125,0.11656126358807087,0.04178469341471791,-0.028411270970106123
1772525813095194600,5.979194580078125,0.11571078423857688,0.07007204574421048,-0.030627193453907964
1772525813105178600,5.9891787109375,0.12094050158560275,0.06397314434722065,-0.0008025485545396804
1772525813115161300,5.999161376953125,0.1383271051943302,0.04268149612396955,0.03049889089912176
1772525813125145300,6.009145263671875,0.1604138493180275,0.04086670178696513,0.03853489783853292
1772525813135128600,6.019128662109375,0.22375673293769358,0.03332417745292186,0.04609451943784952
1772525813145111600,6.029111572265625,0.30391923393309117,0.020824322972446678,0.06283025792241097
1772525813155095300,6.03909521484375,0.33008243371546264,-0.0021643384270370004,0.05603986712992191
1772525813165078300,6.049078369140625,0.3255085499286651,-0.022066870379447937,0.053069619147479534
1772525813175061200,6.059061279296875,0.290806654381752,-0.02357303715869784,0.03930529768913984
1772525813185045200,6.069045166015625,0.23062428061962126,-0.041436172237992286,0.04357464557141065
1772525813195028200,6.0790283203125,0.12630875062048436,-0.036155747617036105,0.07197714871317147
1772525813205011500,6.089011474609375,-0.004435936620831489,0.01783288607150316,0.10207593437880277
1772525813214995500,6.098995361328125,-0.09365209716558456,0.08422361295446754,0.09527999062836169
1772525813224978200,6.108978271484375,-0.13015081300139428,0.12382643228545784,0.08831950396597385
1772525813234962200,6.118962158203125,-0.12262567819356918,0.11913681316450238,0.08156739935725926
1772525813244945400,6.1289453125,-0.11682605200409889,0.11133037719726561,0.06444295381605625
1772525813254928400,6.138928466796875,-0.11236556546390056,0.11896949377357958,0.03137771956026554
1772525813264912400,6.148912353515625,-0.1282715751260519,0.11084873116016387,-0.01870002429485321
1772525813274895000,6.15889501953125,-0.11529869630634784,0.11160320278927684,-0.05861205570548773
1772525813284878300,6.16887841796875,-0.09463760107159613,0.1173379470489919,-0.07502280001938343
1772525813294862300,6.1788623046875,-0.038439913031458856,0.10193930238708854,-0.07750058830976486
1772525813304845300,6.18884521484375,0.029919921967387197,0.06864522781148552,-0.06904635595828294
1772525813314828000,6.198828125,0.05816285063326358,0.052647740473598235,-0.022349778974056243
1772525813324812300,6.208812255859375,0.04589548973441124,0.03686652623489499,0.003085398794710636
1772525813334795300,6.218795166015625,0.02848725881576538,0.01115077795907855,0.020794950747489927
1772525813344779300,6.228779296875,0.011496961048245428,-0.021062077251076696,0.03228957370817661
1772525813354762200,6.23876220703125,0.021120529440045357,-0.05630480167642236,0.03831044143289328
1772525813364745500,6.248745361328125,0.061255555951595306,-0.09116583330780267,0.05348492195010185
1772525813374729200,6.258729248046875,0.10073241081535815,-0.12160583362653851,0.04091390192955732
1772525813384712200,6.268712158203125,0.13995558317899703,-0.15357655064389109,0.006762918263673782
1772525813394695200,6.278695068359375,0.22113573678433893,-0.1516938056372106,-0.01845510962307453
1772525813404679400,6.288679443359375,0.28422493790388104,-0.16623349538221954,-0.024476854130625725
1772525813414662400,6.298662353515625,0.2946235823214054,-0.15398001687824725,-0.012460545383393765
1772525813424645000,6.30864501953125,0.2553442958563566,-0.10843860127851367,-0.0020920038431882855
1772525813434629000,6.318629150390625,0.17480536276400088,-0.05404416326805949,0.019378946469724177
1772525813444612400,6.3286123046875,0.029868484041094778,0.009917875163257121,0.03958411463052034
1772525813454596400,6.338596435546875,-0.11405308015942572,0.05203808414265513,0.02184884371459484
1772525813464579300,6.348579345703125,-0.19447393983006475,0.06638751201257109,0.014686404739320277
1772525813474562000,6.35856201171875,-0.1975660606265068,0.07202975568324327,0.042587680360674854
1772525813484546300,6.36854638671875,-0.20343290683329104,0.08624941969364881,0.05286328292042017
1772525813494529300,6.378529296875,-0.21351590943038462,0.09641863926947117,0.04638970299214124
1772525813504512300,6.38851220703125,-0.21699264563024043,0.12432181458696723,0.013859014004468918
1772525813514496300,6.398496337890625,-0.20911562864482403,0.1590874230198562,-0.0352943084821105
1772525813524479500,6.4084794921875,-0.21798574832081793,0.14082199074998497,-0.09061053751260041
1772525813534462200,6.418462158203125,-0.15965864703655241,0.11710209246650337,-0.12711977474242447
1772525813544446200,6.4284462890625,-0.0662707537651062,0.0869561066582799,-0.10709317801892757
1772525813554429200,6.43842919921875,0.04279752371907234,0.06337737041115761,-0.07649462613761425
1772525813564412400,6.448412353515625,0.1254343058735132,0.03791413559168577,-0.049726738460361956
1772525813574396400,6.458396484375,0.13310498663187026,0.0029348844081163407,-0.034712416940927505
1772525813584379100,6.468379150390625,0.12824001094400883,-0.00918269275650382,-0.03363338953256607
1772525813594363100,6.478363037109375,0.11142740783095359,-0.0276334184654057,-0.02887245874106884
1772525813604346400,6.488346435546875,0.09093640846610068,-0.04785407645627856,0.007709843724966049
1772525813614329300,6.498329345703125,0.0863438199788332,-0.0428634285621345,0.04166355125308036
1772525813624313300,6.508313232421875,0.0745183576285839,-0.03369710241854191,0.05445639733076095
1772525813634296000,6.518296142578125,0.08560498431026935,-0.034557372509688135,0.05818535472601652
1772525813644279300,6.528279296875,0.12020283496081828,-0.0320579569093883,0.03959025211036205
1772525813654263300,6.53826318359375,0.13938392077088355,-0.04076689467430115,0.012735270671546459
1772525813664246300,6.548246337890625,0.1604869145542383,-0.05891892969757318,-0.026989421473443506
1772525813674229500,6.5582294921875,0.1411684661000967,-0.08155512439757585,-0.0592687660485506
1772525813684213200,6.568213134765625,0.1000812534302473,-0.09379252854958176,-0.08452946403324603
1772525813694196200,6.5781962890625,0.025714286971092223,-0.08697349618449807,-0.09072510380297899
1772525813704180200,6.58818017578125,-0.03501286119222641,-0.03805266727954149,-0.06843757641017437
1772525813714163200,6.5981630859375,-0.06360591847002506,0.010847411098331212,-0.002873217348754406
1772525813724146400,6.608146484375,-0.07206453473567963,0.03422214920595288,0.08342734801024199
1772525813734130400,6.61813037109375,-0.07195113748908043,0.06217398597076535,0.16478198139965533
1772525813744113200,6.628113037109375,-0.03265022371411323,0.08540800043344497,0.1681356757417321
1772525813754096400,6.638096435546875,-0.0006938274830579757,0.052553194057941434,0.1162760169059038
1772525813764080400,6.648080322265625,0.008838555493950843,0.014420593409985303,0.04945990421772003
1772525813774063400,6.6580634765625,0.04659574695825577,-0.006777239049971104,-0.03275894478559494
1772525813784046000,6.668046142578125,0.03568739945292473,-0.031834669547528026,-0.1045949314624071
1772525813794030000,6.678030029296875,0.03309855200350285,-0.03463789039999247,-0.12833821062147616
1772525813804013300,6.688013427734375,0.034355858588218685,-0.006428571742773056,-0.13490794440060852
1772525813813996300,6.697996337890625,0.07167816576659679,0.0051531449794769285,-0.10911328566968441
1772525813823980300,6.707980224609375,0.13116554300189018,0.0167016900844872,-0.0600181231111288
1772525813833963300,6.71796337890625,0.158277421811223,0.060596215260028834,-0.0060530164286494255
1772525813843947300,6.727947265625,0.1505138020724058,0.08437047407925129,0.013298457512259483
1772525813853930200,6.73793017578125,0.11447393592000008,0.08352262507826089,-0.011473580172657967
1772525813863913200,6.747913330078125,0.07893617407083511,0.07773863484933972,-0.04322100982815027
1772525813873897200,6.757897216796875,0.054850949606299396,0.06014394144788384,-0.05607435392141342
1772525813883880400,6.76788037109375,0.06156885968446731,0.03429243796318769,-0.04203501491397619
1772525813893863200,6.77786328125,0.10473346315026283,0.02582052382454276,-0.01006868181079626
1772525813903847200,6.78784716796875,0.12361994992792606,0.014917875407636165,0.03409720765203237
1772525813913830400,6.797830322265625,0.14564122759997844,0.0343248789280653,0.06687865653038025
1772525813923813400,6.8078134765625,0.14222177454531193,0.034034371548891065,0.0662228229701519
1772525813933797400,6.81779736328125,0.1379571028381586,0.027844284737110137,0.06553191809654235
1772525813943780000,6.827780029296875,0.10376841751039027,0.00025455928295850755,0.061219315594434734
1772525813953764000,6.83776416015625,0.07173077273666859,-0.008825403751432896,0.0728629916369915
1772525813963747300,6.847747314453125,0.03451601758599281,-0.019250790045410394,0.06842530145049094
1772525813973730300,6.857730224609375,-0.029812369939684866,-0.02096358531266451,0.04150134642869234
1772525813983714300,6.86771435546875,-0.10090776738226413,-0.029656740986555814,0.0173301972463727
1772525813993697300,6.877697265625,-0.09651917703449725,-0.0325426716864109,-0.004877835169434547
1772525814003680300,6.88768017578125,-0.05014379482865333,-0.014457418289035557,0.009253858296573162
1772525814013664300,6.897664306640625,-0.0251923089236021,-0.02610708568096161,0.006476502537727356
1772525814023647200,6.907647216796875,0.014019757524132728,-0.020165274541825054,-0.006872223857045173
1772525814033630500,6.91763037109375,0.04616203171610832,0.008875088112056255,-0.003717559218406677
1772525814043614500,6.927614501953125,0.05964636718928813,0.02694543620124459,0.0009922259077429771
1772525814053597200,6.93759716796875,0.04611234735548496,0.026523411396890878,-0.014960253244638443
1772525814063580200,6.947580078125,0.04846504796147346,0.030119536192715166,-0.01764993072003126
1772525814073564400,6.957564453125,0.04733516714870929,0.033954292050004005,-0.03463613683432341
1772525814083547400,6.96754736328125,0.08019055804610252,0.033211218597739935,-0.03436725676506758
1772525814093531400,6.977531494140625,0.12445698527395725,0.009494535184651612,-0.016011515863239765
1772525814103514000,6.98751416015625,0.15674071376323698,0.003676642686128616,-0.024245091201364994
1772525814113497300,6.997497314453125,0.16509820774197578,0.004121025452762842,-0.036061201201379296
1772525814123481300,7.0074814453125,0.16402444103062153,-0.00503872481957078,-0.028482582640647885
1772525814133464300,7.01746435546875,0.12240297535359859,-0.017057956176251172,-0.0329632351860404
1772525814143447000,7.027447021484375,0.0626280133485794,-0.012680617874860764,-0.04905892220139503
1772525814153431300,7.037431396484375,-0.012778817552328108,-0.002131166809797287,-0.05812894836366176
1772525814163414500,7.04741455078125,-0.05701543416380882,0.0032519875332713125,-0.06734598178118467
1772525814173397500,7.0573974609375,-0.0605932926505804,-0.004898439566045999,-0.013107026593387127
1772525814183381500,7.067381591796875,-0.02061667157113552,0.021459844397008418,0.03452449315339327
1772525814193364700,7.07736474609375,0.02991758387982845,0.011609481512010097,0.046699791854619976
1772525814203347500,7.087347412109375,0.07034487133622169,0.05018631879612803,0.1570478800162673
1772525814213331500,7.09733154296875,0.08308744853138923,0.06967763959914446,0.09800415489524603
1772525814223314400,7.107314453125,0.07645254056155681,0.01717486055418849,0.06881576207280159
1772525814233298400,7.11729833984375,0.06288344941437245,0.015819646552950144,0.05912906531691551
1772525814243281700,7.12728173828125,0.042756607186794277,0.015785890413820742,0.018378244994580746
1772525814253264400,7.137264404296875,0.01254091714322567,0.011682108356803654,-0.01473462779521942
1772525814263248400,7.147248291015625,-0.00761047500371933,0.017136282109469176,-0.041486148859560486
1772525814273231600,7.157231689453125,0.006945873615145683,0.01636252125799656,-0.025683307310938833
1772525814283214600,7.167214599609375,0.015359481695294379,0.02158770856037736,0.031216976040601727
1772525814293198600,7.177198486328125,0.04730944818556308,0.02201762441024184,0.04840864159911871
1772525814303181300,7.187181396484375,0.06535363892018795,0.012005056700855493,0.04193769201934337
1772525814313164500,7.19716455078125,0.0838771376043558,0.0023104688994586464,0.01877455083578825
1772525814323148500,7.2071484375,0.07124503504633903,-0.03140285400152206,-0.04049509199559689
1772525814333131500,7.217131591796875,0.04428162479698658,-0.05930310670956969,-0.10907909113913773
1772525814343114500,7.227114501953125,0.015115151545405388,-0.06916618294566869,-0.11037000773251056
1772525814353098800,7.2370986328125,-0.012677110743522643,-0.05437661009281873,-0.06996376306414603
1772525814363081500,7.24708154296875,-0.013889993664622307,-0.013571721495687961,-0.0343903453797102
1772525814373065500,7.2570654296875,0.0034510172367095944,0.0009938333429396152,-0.014305880989134311
1772525814383048400,7.26704833984375,-0.0036298809349536894,-0.015485007771104573,0.035192893934249875
1772525814393031700,7.27703173828125,-0.02354454171657562,-0.022144027268886566,0.025300153212249276
1772525814403015700,7.287015625,-0.04829729017913341,-0.0008677227452397346,-0.008883271418511867
1772525814412998400,7.296998291015625,-0.04752630580663681,0.011287994472682476,-0.05000087922662496
1772525814422981400,7.3069814453125,-0.0016840075641870497,-0.001714110441505909,-0.045998073326051235
1772525814432965600,7.316965576171875,0.03132569711208343,-0.013764613719284533,-0.012663082218170165
1772525814442948600,7.326948486328125,0.0315016382008791,-0.000990180081129074,-0.0009700140759348869
1772525814452931300,7.336931396484375,0.016892098090052602,0.02489201080277562,-0.010938450382649898
1772525814462915300,7.346915283203125,0.031041034951806067,0.030210137085616588,-0.01918108581006527
1772525814472898600,7.356898681640625,0.045642391756176945,0.0328957229077816,-0.0042658407509326935
1772525814482881500,7.366881591796875,0.057551440736651416,0.04093757506608963,0.0007543254986405372
1772525814492865500,7.376865478515625,0.07418576467335224,0.04313026280477643,-0.016285948890447616
1772525814502848500,7.3868486328125,0.10290858581066131,0.04632233684435486,-0.012694646400213241
1772525814512832800,7.396832763671875,0.1275391691982746,0.043721360565721984,0.025006430962681767
1772525814522815500,7.4068154296875,0.12261574132144451,0.03676394264325499,0.019729367342591283
1772525814532798500,7.416798583984375,0.1248030222326517,0.026628479206562042,-0.018316285674273968
1772525814542782500,7.426782470703125,0.11148001480102539,0.012004910570383071,-0.013163140694797038
1772525814552765700,7.436765625,0.06285539236366748,0.015014321519434451,0.008956921176612377
1772525814562748400,7.44674853515625,0.03474105851352215,0.052784518595784896,0.017015432208776472
1772525814572732400,7.456732421875,0.0362941331744194,0.07896583855673671,0.05102846870869398
1772525814582715400,7.46671533203125,0.037409400939941405,0.06617489217519759,0.09121844027787447
1772525814592698600,7.47669873046875,0.037871173232793806,0.05942994795963168,0.1113376837208867
1772525814602682600,7.4866826171875,0.04457797739505768,0.04419628460109234,0.08858049298971891
1772525814612665300,7.496665283203125,0.072144029712677,0.026118045466393233,0.042868835389614106
1772525814622648600,7.506648681640625,0.0803571467846632,-0.0022299510091543196,0.030428163750469684
1772525814632632600,7.516632568359375,0.07272445994913578,-0.008515461019426584,0.02832037781625986
1772525814642615600,7.526615478515625,0.023360417321324347,-0.019425854351371525,0.02273205628991127
1772525814652599600,7.536599609375,-0.051175475963950154,-0.01942629274278879,0.03386778281033039
1772525814662582500,7.54658251953125,-0.07388941207528114,0.027167700649797916,0.012673603612184524
1772525814672565500,7.5565654296875,-0.06518412757217884,0.028206688308715817,0.0009776128605008124
1772525814682549500,7.566549560546875,-0.015476970595121382,-0.008893500551581382,0.017000819161534307
1772525814692532500,7.576532470703125,0.05406301409900188,-0.032929040655493735,0.0017079729616641998
1772525814702515700,7.586515625,0.12613748570680616,-0.0507956828661263,-0.03755085523724556
1772525814712499700,7.596499755859375,0.13936287798285482,-0.06932941068336367,-0.0775143245741725
1772525814722482400,7.606482421875,0.09176993668079375,-0.08285510108023882,-0.09943915613442658
1772525814732465400,7.61646533203125,0.07089666000008582,-0.06667743486985564,-0.12592735008746384
1772525814742449400,7.626449462890625,0.045211014601588245,-0.04482084624022245,-0.1514811857998371
1772525814752432600,7.6364326171875,0.044918753656744956,-0.032873218815028665,-0.13564122711122034
1772525814762415400,7.646415283203125,0.05646364549994468,-0.02160831295698881,-0.06352730027586222
1772525814772399400,7.6563994140625,0.07642857516407967,-0.017501900551468132,-0.053418286454677576
1772525814782382600,7.666382568359375,0.09845394448935985,-0.014726006097346544,-0.03545183713138103
1772525814792365600,7.676365478515625,0.0961293009340763,-0.013773381547629832,-0.0216109433054924
1772525814802349600,7.686349609375,0.06497896038889885,-0.025461481253802775,-0.04423077139258384
1772525814812332500,7.69633251953125,0.038545126971602436,-0.03792670281231403,-0.049592590686678886
1772525814822316300,7.70631640625,0.01391162097454071,-0.0264385095924139,-0.045474633973836893
1772525814832299500,7.716299560546875,0.016892098090052602,-0.023416239161789417,-0.023869828148186206
1772525814842282500,7.726282470703125,0.023723405414819716,-0.0006302607275545597,-0.006714987468719482
1772525814852266500,7.7362666015625,0.04555003729760647,0.03141206022128463,0.01691401766091585
1772525814862249700,7.746249755859375,0.04133563447296619,0.029991525898873803,0.036246786901354786
1772525814872232400,7.756232421875,0.051477673780918116,0.04899301735833287,0.060473465663194656
1772525814882216400,7.766216552734375,0.0492214192867279,0.03643807168975472,0.06328297012597323
1772525814892199400,7.776199462890625,0.02931727989912033,0.03203925220891833,0.0651116468578577
1772525814902182700,7.7861826171875,-0.021204116070270538,0.050894759326428174,0.05962620118409395
1772525814912166700,7.796166748046875,-0.04810848960876465,0.0839034410893917,0.0699479809731245
1772525814922149400,7.8061494140625,-0.05642506705522537,0.08708996217101812,0.0881605140119791
1772525814932132600,7.816132568359375,-0.0056266077101230615,0.051695700445771216,0.09208177910894155
1772525814942116600,7.82611669921875,0.049753334206342696,0.022349778974056243,0.060791153310239314
1772525814952099600,7.836099609375,0.07807751141488552,-0.009387129287421702,0.003473521329462528
1772525814962082600,7.84608251953125,0.10456804345548153,-0.05020049345195293,-0.08084902195483445
1772525814972066600,7.856066650390625,0.11849544652104377,-0.08029796394333243,-0.13697539832442998
1772525814982049500,7.866049560546875,0.1007826796978712,-0.07410144739076495,-0.15271628055274486
1772525814992033500,7.876033447265625,0.0921469532996416,-0.0585835602633655,-0.13233312547653914
1772525815002016500,7.8860166015625,0.06560732142031192,-0.037584319115430115,-0.08344254557937383
1772525815011999500,7.89599951171875,-0.010196399843692779,-0.025209260058403012,-0.027491818037629127
1772525815021983700,7.905983642578125,-0.05929682309925556,0.006859948897361755,0.01553892991542816
1772525815031966500,7.915966552734375,-0.050232642155885694,0.044866585078090424,0.03256312995254993
1772525815041949400,7.925949462890625,-0.01345803198814392,0.01712707588970661,0.05493833562880754
1772525815051933400,7.935933349609375,0.053151744472980496,0.00517988685593009,0.04276303692758083
1772525815061916700,7.945916748046875,0.09215221399664879,-0.0010484861396253108,0.012473112604022025
1772525815071899400,7.9558994140625,0.10491291137039661,-0.019823475366830826,-0.04652005137354135
1772525815081883400,7.96588330078125,0.11393792934715748,-0.023707477193325756,-0.09445990641713142
1772525815091866400,7.975866455078125,0.04536006768345833,-0.034234716426581144,-0.09027063803374767
1772525815101849600,7.985849609375,-0.029064766442775725,-0.03468801315203309,-0.07193214052766561
1772525815111831600,7.99583154296875,-0.08131342459619045,0.00694558135420084,-0.04098141420781612
1772525815121814500,8.005814453125,-0.09009118981361389,0.02765826064571738,0.010533668974041939
1772525815131798500,8.015798583984376,-0.07953121735453605,0.054236324839293956,0.07629413512945175
1772525815141781500,8.025781494140626,-0.010260112729668617,0.0676547554694116,0.1528407837152481
1772525815151764700,8.0357646484375,0.012719196319580078,0.06714446785971522,0.1569777373895049
1772525815161748700,8.045748779296876,0.031547230908274645,0.06773717305585741,0.13167641513347625
1772525815171731700,8.055731689453125,0.016075521010160444,0.06350275035649537,0.1197378477975726
1772525815181714700,8.065714599609375,0.006073182433843612,0.06783201173245906,0.0736953508079052
1772525815191698700,8.07569873046875,0.011985621348023414,0.05111994638442993,0.00203559748083353
1772525815201681700,8.085681640625,0.05804536173343658,0.0066645724557340144,-0.04860591773688793
1772525815211664600,8.09566455078125,0.1306330435603857,-0.01953720577135682,-0.10279255821555852
1772525815221648600,8.105648681640625,0.19594167429506779,-0.03355506359934807,-0.12999591470062732
1772525815231632000,8.1156318359375,0.2752209627151489,-0.03095233375504613,-0.11115151349902153
1772525815241616000,8.125615966796875,0.32012334975898266,-0.02735387087166309,-0.08768237510621547
1772525815251598600,8.1355986328125,0.29601065276563165,-0.011929799507558346,-0.06386866105943918
1772525815261581600,8.14558154296875,0.18977847549021243,-0.0007382511466741561,-0.05004851776063442
1772525815271565600,8.155565673828125,0.05116261648237705,0.017010171511769295,-0.021885084071755406
1772525815281548800,8.165548828125,-0.056928340402245516,0.04660363800376653,0.010976444305479525
1772525815291531800,8.17553173828125,-0.07505728681087494,0.07753302927464246,0.02542027246057987
1772525815301515500,8.185515625,-0.021291794353723525,0.06777472858726978,0.0330807240858674
1772525815311498800,8.195498779296875,0.09972294151186943,0.036185265972465276,0.013388473883271216
1772525815321481700,8.205481689453125,0.19493337403535843,-0.0034175533585250376,0.025829145522415636
1772525815331465700,8.2154658203125,0.205320328015089,-0.03542772560343146,0.0034381577551364896
1772525815341448700,8.22544873046875,0.17964754209816455,-0.034780075349658726,-0.03550882801562547
1772525815351431700,8.235431640625,0.08525076404511928,-0.01521393574476242,-0.029547581523656843
1772525815361415700,8.245415771484375,-0.006125789403915405,0.015075404056906699,0.0025818331867456436
1772525815371398700,8.255398681640624,-0.07351297997832298,0.04422098065093159,0.05267009843587875
1772525815381381600,8.265381591796874,-0.11806465388834476,0.06913622619882226,0.0674596712887287
1772525815391366000,8.275365966796874,-0.13324527188539503,0.06399974009320139,0.09678191962391137
1772525815401348600,8.2853486328125,-0.12319266442656517,0.06158259594887495,0.14338468084484338
1772525815411332600,8.29533251953125,-0.09236205735504627,0.06938216378390788,0.16648177105486392
1772525815421315600,8.305315673828124,-0.06816869634091853,0.056562283568829294,0.17561667914688586
1772525815431298800,8.315298828125,-0.049400282984972,0.04692307921648025,0.14355477671474218
1772525815441282800,8.32528271484375,-0.047239305558800695,0.04638181194663048,0.06833060890436173
1772525815451265500,8.335265625,-0.015174188256263732,0.032277883270382876,0.0041948213413357735
1772525815461248500,8.34524853515625,-0.015566986966133118,0.012892068668454885,-0.02342822186052799
1772525815471232800,8.355232666015626,-0.07218611528873443,0.0011944704815745352,-0.06002133798152208
1772525815481215700,8.3652158203125,-0.13616554324626923,0.006408113476634025,-0.06940466787666082
1772525815491200800,8.37520068359375,-0.16126432866752147,0.01668313151448965,0.014026479525864123
1772525815501184800,8.385184814453124,-0.15538871463239193,0.06782061355561017,0.0247676537707448
1772525815511167700,8.395167724609376,-0.11058920344114304,0.052123862729966636,0.02521335171163082
1772525815521150500,8.405150390625,0.009014496582746506,0.0059459027923643585,0.07875497228503227
1772525815531134700,8.415134765625,0.04968845227658748,-0.03100742494314909,0.0616916092813015
1772525815541117700,8.42511767578125,0.0406903223067522,0.007702391070872545,0.009324585445225238
1772525815551100700,8.4351005859375,0.061816112443804735,0.04284779260158539,-0.03620060967206955
1772525815561084700,8.445084716796876,0.07761983077526093,0.04339680478647351,-0.07039718604534864
1772525815571067600,8.455067626953126,0.10413783534467219,0.01572699983343482,-0.09606588030904531
1772525815581050600,8.465050537109375,0.14937223082184792,0.002991583031415939,-0.10143705195337534
1772525815591034600,8.47503466796875,0.2003454622119665,-0.011395400369912385,-0.0975362451225519
1772525815601017600,8.485017578125,0.19877952806949614,-0.044241585047543046,-0.10688976440131663
1772525815611000800,8.495000732421875,0.20124913305342196,-0.03976283219829201,-0.10448007291108369
1772525815620984800,8.50498486328125,0.21849954306185243,-0.025694851618260142,-0.09072481154203414
1772525815630967600,8.514967529296875,0.2445516836851835,-0.03548194000869989,-0.08670622355043887
1772525815640950800,8.52495068359375,0.2180260803312063,-0.08006108644753694,-0.08398819676339626
1772525815650934800,8.534934814453125,0.17963935879170895,-0.08163169676512479,-0.11395341917723417
1772525815660917800,8.544917724609375,0.1532329979032278,-0.06019011867716908,-0.11964929273128509
1772525815670901800,8.55490185546875,0.1172217733234167,-0.021480887185037136,-0.08746844009459018
1772525815680884500,8.564884521484375,0.07012392206192017,0.0006752689130604267,0.008402794425189495
1772525815690867700,8.57486767578125,0.07249474284648895,0.04717354684621095,0.03840104232579469
1772525815700851700,8.584851806640625,0.04314297615587711,0.046950990136712785,0.05838379990756511
1772525815710834700,8.594834716796875,0.03668985449373722,0.053981765556335444,0.08012099994122981
1772525815720818000,8.60481787109375,0.0761959354519844,0.056413961139321324,0.10626637180596589
1772525815730801700,8.6148017578125,0.1295394031047821,0.06321311976015567,0.1008048915296793
1772525815740784600,8.62478466796875,0.14434534257054327,0.04245367871746421,0.054264674150943756
1772525815750767600,8.634767578125,0.17485913877785206,0.01690071978792548,-0.009501987838745117
1772525815760751600,8.644751708984375,0.20298750115334988,-0.014711246919631956,-0.06529372542649507
1772525815770734800,8.65473486328125,0.19921499687731264,-0.05454962857216596,-0.09272416866570711
1772525815780717600,8.664717529296874,0.16109890897274015,-0.12608736295476555,-0.15309709656387566
1772525815790701600,8.67470166015625,0.1368283910691738,-0.13065014082565904,-0.3260354964122176
