time,seconds_elapsed,z,y,x
1772525807195021800,0.079021728515625,-0.08426789194345474,0.11434365808963776,0.08178660273551941
1772525807205005800,0.089005859375,-0.07447464019060135,0.06558551639318466,0.025670284405350685
1772525807214989000,0.098989013671875,-0.0666891559958458,0.019140521064400673,-0.0191190242767334
1772525807224972000,0.108971923828125,-0.06899233162403107,-0.020961333066225052,-0.044303048402071
1772525807234956000,0.1189560546875,-0.06896330416202545,-0.049246497452259064,-0.06442749500274658
1772525807244938800,0.128938720703125,-0.05277734994888306,-0.02998768910765648,-0.06918853521347046
1772525807254922000,0.138921875,-0.03244970738887787,-0.007015526760369539,-0.042207248508930206
1772525807264906000,0.148906005859375,-0.02901482582092285,0.011172901839017868,0.011557555757462978
1772525807274889000,0.158888916015625,-0.03357149288058281,0.02851460687816143,0.06583544611930847
1772525807284873000,0.168873046875,-0.024168211966753006,0.02972966805100441,0.10465984791517258
1772525807294856000,0.17885595703125,-0.014372041448950768,0.00626428984105587,0.13252556324005127
1772525807304839000,0.1888388671875,-0.009664218872785568,-0.018848758190870285,0.13585573434829712
1772525807314823000,0.198822998046875,-0.011774773709475994,-0.036592334508895874,0.11811456084251404
1772525807324806000,0.208805908203125,-0.0107484832406044,-0.03517976030707359,0.07940775901079178
1772525807334789000,0.2187890625,-0.002832770114764571,-0.010584401898086071,0.03791171312332153
1772525807344773000,0.228773193359375,0.0031055756844580173,0.01783142238855362,0.012237932533025742
1772525807354755800,0.238755859375,0.0021135485731065273,0.03811459243297577,0.003096099942922592
1772525807364739800,0.24873974609375,0.008848697878420353,0.044286634773015976,0.0005049528554081917
1772525807374723000,0.25872314453125,0.019476041197776794,0.03365449607372284,0.003616057336330414
1772525807384706000,0.2687060546875,0.030274877324700356,0.0007199014071375132,0.010899861343204975
1772525807394690000,0.27868994140625,0.03341447934508324,-0.04090370610356331,0.024514207616448402
1772525807404672800,0.2886728515625,0.026268403977155685,-0.07933170348405838,0.038832053542137146
1772525807414656000,0.298656005859375,0.011419950053095818,-0.10032060742378235,0.04204915091395378
1772525807424640000,0.308639892578125,0.0018519945442676544,-0.08483636379241943,0.028463993221521378
1772525807434623000,0.318623046875,0.0011622360907495022,-0.05201715975999832,0.0030113644897937775
1772525807444607000,0.32860693359375,-0.007676059380173683,-0.0053061796352267265,-0.014922628179192543
1772525807454590000,0.33858984375,-0.010587959550321102,0.0035903763491660357,-0.013850439339876175
1772525807464573000,0.348572998046875,-0.024405628442764282,-0.014175265096127987,0.0030599399469792843
1772525807474557000,0.358556884765625,-0.02186603844165802,-0.03215692937374115,0.008631006814539433
1772525807484540000,0.368539794921875,-0.011515788733959198,-0.051230620592832565,-0.0036490941420197487
1772525807494523100,0.378523193359375,0.005747086834162474,-0.052183765918016434,-0.016999254003167152
1772525807504507000,0.3885068359375,0.009690054692327976,-0.047731369733810425,-0.021592363715171814
1772525807514489900,0.39848974609375,0.006539533846080303,-0.030985679477453232,-0.015087592415511608
1772525807524473900,0.408473876953125,0.008441171608865261,-0.005401093512773514,-0.0073886532336473465
1772525807534457000,0.41845703125,0.006352188065648079,-0.006613098084926605,-0.0005896035581827164
1772525807544440000,0.428440185546875,0.0030064121820032597,-0.013977698050439358,0.004352000541985035
1772525807554424000,0.438424072265625,-0.002828839933499694,-0.014227769337594509,0.011498326435685158
1772525807564406800,0.44840673828125,-0.012300968170166016,-0.009081900119781494,0.01941201090812683
1772525807574390000,0.45839013671875,-0.017718102782964706,0.006558578461408615,0.022638697177171707
1772525807584374000,0.4683740234375,-0.012035747990012169,0.018307389691472054,0.02253931388258934
1772525807594357000,0.47835693359375,-0.004112045280635357,0.021498922258615494,0.021950755268335342
1772525807604341000,0.488341064453125,0.00718209333717823,0.01508889440447092,0.016318701207637787
1772525807614324000,0.498323974609375,0.016161739826202393,0.013416162692010403,0.004261772148311138
1772525807624307000,0.508306884765625,0.018126463517546654,0.0024226882960647345,-0.0068741836585104465
1772525807634291000,0.518291015625,0.013014791533350945,0.012138432823121548,-0.004510893952101469
1772525807644274000,0.52827392578125,0.00548521988093853,0.02854963019490242,0.010693089105188847
1772525807654257000,0.5382568359375,-0.014833101071417332,0.0346892811357975,0.027247831225395203
1772525807664241000,0.548240966796875,-0.01910221017897129,0.03540969267487526,0.03751607611775398
1772525807674223900,0.558223876953125,-0.015588434413075447,0.03073025308549404,0.04122452810406685
1772525807684207900,0.568207763671875,-0.010604079812765121,0.012716631405055523,0.040721192955970764
1772525807694191000,0.578191162109375,-0.004374946001917124,-0.0094150360673666,0.03154606744647026
1772525807704174000,0.588174072265625,0.005207608919590712,-0.02881854958832264,0.01890292763710022
1772525807714158000,0.598157958984375,0.006030259188264608,-0.03273366019129753,-0.002565613482147455
1772525807724140800,0.608140869140625,0.0025952672585844994,-0.016729382798075676,-0.03213474527001381
1772525807734124000,0.6181240234375,-0.0012961439788341522,0.0012807773891836405,-0.04494801536202431
1772525807744108000,0.62810791015625,-0.015055897645652294,0.010921686887741089,-0.04563271254301071
1772525807754091000,0.638091064453125,-0.02654372528195381,0.008066165260970592,-0.0438091903924942
1772525807764075000,0.648074951171875,-0.02855621464550495,0.0068206703290343285,-0.04040993005037308
1772525807774058000,0.65805810546875,-0.017629796639084816,-0.0011954440269619226,-0.03405110165476799
1772525807784041000,0.668041015625,-0.013189725577831268,-0.014782104641199112,-0.02530709281563759
1772525807794025000,0.67802490234375,-0.0029227067716419697,-0.018817592412233353,-0.025278862565755844
1772525807804008000,0.688008056640625,0.0060876901261508465,-0.01489409152418375,-0.021966688334941864
1772525807813991000,0.697990966796875,0.007327124942094088,-0.01618066430091858,-0.021375199779868126
1772525807823975000,0.707974853515625,-0.0031003719195723534,-0.02219456247985363,-0.022087544202804565
1772525807833958000,0.7179580078125,-0.011583872139453888,-0.010399420745670795,-0.025568295270204544
1772525807843942000,0.72794189453125,-0.015098336152732372,-0.004528255667537451,-0.021076450124382973
1772525807853924900,0.7379248046875,-0.023223642259836197,-0.0043032183311879635,-0.01449711062014103
1772525807863908000,0.747908203125,-0.02622203156352043,0.01236992608755827,-0.013565640896558762
1772525807873891800,0.757891845703125,-0.013413025066256523,0.03598630428314209,-0.014074305072426796
1772525807883874800,0.767874755859375,0.0053780823945999146,0.0418739840388298,-0.013424869626760483
1772525807893858000,0.777858154296875,0.012493781745433807,0.03862466290593147,-0.01990220881998539
1772525807903842000,0.787842041015625,0.014354893006384373,0.03157728537917137,-0.017778391018509865
1772525807913825000,0.797824951171875,0.019885212182998657,0.014958093874156475,-0.019113698974251747
1772525807923809000,0.80780908203125,0.015046516433358192,-0.004885466303676367,-0.013931099325418472
1772525807933792000,0.8177919921875,0.015565034002065659,-0.013962052762508392,-0.009495604783296585
1772525807943775000,0.82777490234375,0.0178640466183424,-0.017090799286961555,-0.0031032562255859375
1772525807953759000,0.837759033203125,0.01485813595354557,-0.026407601311802864,0.0025405152700841427
1772525807963742000,0.847741943359375,0.018436284735798836,-0.0225397739559412,0.013258727267384529
1772525807973725000,0.857724853515625,0.01695396937429905,-0.009545143693685532,0.029839303344488144
1772525807983709000,0.867708984375,0.020531954243779182,0.0008249231614172459,0.04350456967949867
1772525807993692000,0.87769189453125,0.02009626105427742,0.003917385824024677,0.04727160930633545
1772525808003676000,0.887676025390625,0.019712092354893684,-0.005349213723093271,0.049580033868551254
1772525808013659000,0.897658935546875,0.014044620096683502,-0.021502617746591568,0.042620398104190826
1772525808023641900,0.907641845703125,0.0071662855334579945,-0.01952924206852913,0.026856718584895134
1772525808033625900,0.9176259765625,0.006472265813499689,-0.004181975964456797,0.008577845059335232
1772525808043608800,0.92760888671875,0.0013037133030593395,0.01461635623127222,-0.014315268024802208
1772525808053592000,0.937592041015625,-0.004198909737169743,0.019318701699376106,-0.04177458956837654
1772525808063576000,0.947576171875,0.0027844151481986046,0.019180839881300926,-0.06189354881644249
1772525808073559000,0.95755908203125,-0.0007581217214465141,0.004489246755838394,-0.07134030759334564
1772525808083542800,0.967542724609375,-0.007886745035648346,0.011226474307477474,-0.061521343886852264
1772525808093525800,0.97752587890625,-0.002448570216074586,0.014999373815953732,-0.03555499017238617
1772525808103509000,0.987509033203125,-0.006501258350908756,0.01010320894420147,0.0028771371580660343
1772525808113493000,0.997492919921875,-0.003828776068985462,0.005868249572813511,0.03135405108332634
1772525808123476000,1.00747607421875,0.00046757375821471214,-0.013574481941759586,0.04495955631136894
1772525808133459000,1.017458984375,0.005639699287712574,-0.041569095104932785,0.04638807475566864
1772525808143443000,1.02744287109375,0.0018346523866057396,-0.05092134699225426,0.0391896590590477
1772525808153426400,1.037426513671875,-0.0033009874168783426,-0.03733283281326294,0.021717192605137825
1772525808163410400,1.047410400390625,-0.0011550122871994972,-0.004938142374157906,0.002373587805777788
1772525808173393400,1.057393310546875,-0.004933238960802555,0.031103216111660004,-0.016919683665037155
1772525808183376600,1.067376708984375,-0.012023216113448143,0.05931030213832855,-0.031377773731946945
1772525808193360600,1.077360595703125,-0.01777990534901619,0.07144632190465927,-0.035716861486434937
1772525808203343600,1.087343505859375,-0.02226482331752777,0.054464731365442276,-0.03090926632285118
1772525808213326300,1.097326416015625,-0.0162386242300272,0.024961167946457863,-0.020237181335687637
1772525808223310600,1.107310546875,-0.008689455687999725,-0.005393422674387693,-0.002164119854569435
1772525808233293600,1.11729345703125,-0.005282473284751177,-0.02441451884806156,0.01916700229048729
1772525808243277600,1.127277587890625,-0.0034538055770099163,-0.035178616642951965,0.028473421931266785
1772525808253260500,1.137260498046875,-0.0020417976193130016,-0.032523445785045624,0.024317825213074684
1772525808263243500,1.147243408203125,0.0013073156587779522,-0.025492141023278236,0.014786532148718834
1772525808273227500,1.1572275390625,-0.004068274982273579,-0.009797601029276848,0.002167409285902977
1772525808283210500,1.16721044921875,-0.009723026305437088,0.017658192664384842,-0.01078301016241312
1772525808293193500,1.177193359375,-0.017055241391062737,0.04106871038675308,-0.01616312935948372
1772525808303177500,1.187177490234375,-0.017597712576389313,0.02956988662481308,-0.012679342180490494
1772525808313160400,1.197160400390625,-0.020449690520763397,0.005113013554364443,-0.008120542392134666
1772525808323144400,1.20714453125,-0.024955887347459793,-0.003742845728993416,-0.008226062171161175
1772525808333127400,1.21712744140625,-0.027487222105264664,-0.006277642212808132,-0.005244920961558819
1772525808343110700,1.227110595703125,-0.017217695713043213,-0.004613824188709259,-0.004773854278028011
1772525808353094700,1.2370947265625,-0.013116693124175072,0.0024145247880369425,-0.012943101115524769
1772525808363077600,1.24707763671875,-0.0007913014851510525,0.010163964703679085,-0.019348695874214172
1772525808373060400,1.257060302734375,0.007347319275140762,0.00923372246325016,-0.015522267669439316
1772525808383044600,1.267044677734375,0.013419109396636486,0.0050698621198534966,-0.006046957802027464
1772525808393027600,1.277027587890625,0.011705099605023861,-0.003798197954893112,0.00446267519146204
1772525808403011600,1.287011474609375,0.013122116215527058,-0.01094674039632082,0.006086993962526321
1772525808412994600,1.29699462890625,0.0158742256462574,-0.004006808623671532,0.004120782017707825
1772525808422977500,1.3069775390625,0.016635451465845108,0.014649312943220139,-0.0011355513706803322
1772525808432961500,1.31696142578125,0.01153603196144104,0.04259093478322029,-0.0029297228902578354
1772525808442944500,1.326944580078125,0.01304718665778637,0.05009196698665619,-0.007755265571177006
1772525808452927500,1.336927490234375,0.01829068548977375,0.04450971633195877,-0.011486353352665901
1772525808462911500,1.346911376953125,0.021523715928196907,0.02893458865582943,-0.014421314001083374
1772525808472894500,1.35689453125,0.025497153401374817,0.008176845498383045,-0.012030327692627907
1772525808482878500,1.36687841796875,0.021969512104988098,-0.011041763238608837,-0.008717464283108711
1772525808492861400,1.376861328125,0.02018546313047409,-0.017808590084314346,-0.0014923070557415485
1772525808502844700,1.3868447265625,0.01907840371131897,-0.007580447010695934,0.010259419679641724
1772525808512828700,1.39682861328125,0.014553960412740707,0.013146935030817986,0.016279494389891624
1772525808522811400,1.406811279296875,0.01645326055586338,0.02504843845963478,0.026556478813290596
1772525808532794400,1.41679443359375,0.012652929872274399,0.016061333939433098,0.028309904038906097
1772525808542778400,1.4267783203125,0.008750286884605885,0.0037226558197289705,0.02488529123365879
1772525808552761600,1.43676171875,0.007113774307072163,-0.007703636772930622,0.009481300599873066
1772525808562745600,1.44674560546875,0.009935425594449043,-0.010129430331289768,-0.006017815787345171
1772525808572728600,1.456728515625,0.012567427009344101,-0.0061181774362921715,-0.01676233857870102
1772525808582711600,1.466711669921875,0.0020939819514751434,0.007357337512075901,-0.0198369063436985
1772525808592695600,1.476695556640625,-0.004914126358926296,0.015724724158644676,-0.025466829538345337
1772525808602678500,1.486678466796875,-0.005927829537540674,0.02554900571703911,-0.024515828117728233
1772525808612661500,1.49666162109375,-0.0058455378748476505,0.021744946017861366,-0.013391537591814995
1772525808622645500,1.5066455078125,-0.01609155349433422,0.0138974878937006,0.003967120312154293
1772525808632628500,1.51662841796875,-0.01879599504172802,0.0068784612230956554,0.016992907971143723
1772525808642612500,1.526612548828125,-0.012869175523519516,-0.009860463440418243,0.02372761443257332
1772525808652595500,1.536595458984375,-0.009606003761291504,-0.021800745278596878,0.023244250565767288
1772525808662578700,1.54657861328125,-0.010583855211734772,-0.014154301956295967,0.013933409936726093
1772525808672562700,1.556562744140625,-0.009015520103275776,-0.009655957110226154,0.006517837755382061
1772525808682545400,1.56654541015625,-0.00948934257030487,-0.0016237599775195122,-0.006956581491976976
1772525808692528400,1.5765283203125,-0.01146966964006424,0.012469688430428505,-0.02055494859814644
1772525808702512400,1.586512451171875,-0.01834220439195633,0.023662427440285683,-0.026270894333720207
1772525808712495600,1.59649560546875,-0.015967197716236115,0.02328106202185154,-0.026914579793810844
1772525808722478600,1.606478515625,-0.01439794059842825,0.018888214603066444,-0.012622087262570858
1772525808732462300,1.61646240234375,-0.011011465452611446,0.016127848997712135,-0.005783888511359692
1772525808742445600,1.626445556640625,-0.013375584036111832,0.005947926081717014,0.00693585304543376
1772525808752429600,1.6364296875,-0.013871464878320694,-0.0015035986434668303,0.014911487698554993
1772525808762412500,1.64641259765625,-0.01087185274809599,-0.002871251432225108,0.01808059588074684
1772525808772395500,1.6563955078125,-0.014846621081233025,-0.0052694277837872505,0.011679155752062798
1772525808782379500,1.666379638671875,-0.007941091433167458,-0.0040997532196342945,0.007247866131365299
1772525808792362500,1.676362548828125,-0.004967938177287579,-0.002654189243912697,0.00544623751193285
1772525808802345500,1.686345458984375,0.003696782048791647,0.003926706966012716,0.00997750274837017
1772525808812329500,1.69632958984375,0.013052733615040779,0.01209009438753128,0.009286412037909031
1772525808822312700,1.706312744140625,0.013055507093667984,0.009368130937218666,0.011828185990452766
1772525808832296700,1.716296630859375,0.008400301449000835,0.0038567190058529377,0.017222952097654343
1772525808842279400,1.726279541015625,-0.0033882595598697662,-0.0001646270975470543,0.020395468920469284
1772525808852262400,1.736262451171875,-0.0075593022629618645,0.002648203633725643,0.014608952216804028
1772525808862246400,1.746246337890625,-0.00582719873636961,-0.0009895816911011934,0.006706714630126953
1772525808872229600,1.756229736328125,-0.006140653043985367,0.0017942204140126705,-0.006332921329885721
1772525808882212600,1.766212646484375,-0.004201306961476803,0.0029570376500487328,-0.00987205095589161
1772525808892196400,1.7761962890625,-0.005905996076762676,0.008679105900228024,-0.019541988149285316
1772525808902179600,1.7861796875,0.0012462660670280457,0.005932202562689781,-0.021356988698244095
1772525808912163600,1.79616357421875,0.005925173871219158,0.006520761176943779,-0.0190885066986084
1772525808922146600,1.806146484375,0.00798332691192627,0.006528642028570175,-0.010219218209385872
1772525808932129500,1.816129638671875,0.005488478112965822,-0.0024520696606487036,-0.005471867974847555
1772525808942113500,1.826113525390625,0.006071146577596664,-0.017483828589320183,-0.007661999668926001
1772525808952096500,1.836096435546875,0.005583255551755428,-0.018805023282766342,-0.0017404607497155666
1772525808962079500,1.84607958984375,0.0013124695979058743,-0.01872037537395954,0.0009510908275842667
1772525808972063500,1.8560634765625,-0.007836554199457169,-0.01245102845132351,-0.0030015730299055576
1772525808982046700,1.866046630859375,-0.007194137200713158,0.005230297800153494,-0.009466929361224174
1772525808992030700,1.87603076171875,-0.007389080710709095,0.021302208304405212,-0.014005754142999649
1772525809002013400,1.886013427734375,-0.011019187048077583,0.025667648762464523,-0.010613634251058102
1772525809011996400,1.895996337890625,-0.002600668929517269,0.022853219881653786,-0.007190939038991928
1772525809021980400,1.90598046875,0.008160337805747986,0.0068761371076107025,-0.0009687887504696846
1772525809031963600,1.915963623046875,0.00945223681628704,-0.008415733464062214,0.011773638427257538
1772525809041946400,1.9259462890625,0.007106003817170858,-0.012712759897112846,0.015211831778287888
1772525809051930400,1.935930419921875,0.005142988171428442,-0.012999050319194794,0.015730082988739014
1772525809061913600,1.94591357421875,0.006068138871341944,-0.01511678472161293,0.012871399521827698
1772525809071897600,1.955897705078125,-0.004932048264890909,-0.011044812388718128,0.005639319308102131
1772525809081880600,1.965880615234375,-0.007983717136085033,0.0005435626953840256,-0.003981993533670902
1772525809091863600,1.975863525390625,-0.005449453368782997,0.014670034870505333,-0.011803166009485722
1772525809101847300,1.985847412109375,-0.0023078627418726683,0.012155435048043728,-0.020580248907208443
1772525809111830500,1.99583056640625,-0.001967244315892458,0.014195417053997517,-0.01840471290051937
1772525809121813500,2.0058134765625,0.0012986836954951286,0.011467420496046543,-0.013238232582807541
1772525809131797500,2.015797607421875,0.005191426258534193,0.005349074490368366,-0.004535820335149765
1772525809141780700,2.02578076171875,0.004296353552490473,0.002013904508203268,0.0067358496598899364
1772525809151765000,2.035764892578125,0.002628681715577841,0.009592462331056595,0.012149257585406303
1772525809161747700,2.045747802734375,0.0007250574417412281,0.015144719742238522,0.01744963228702545
1772525809171730700,2.055730712890625,0.0036827637813985348,0.010705763474106789,0.015737753361463547
1772525809181714700,2.065714599609375,0.0028830766677856445,0.005574884358793497,0.009336158633232117
1772525809191698000,2.075697998046875,0.007363845594227314,-0.001738422317430377,0.008051449432969093
1772525809201680600,2.0856806640625,0.007353960536420345,-0.019924337044358253,0.010351569391787052
1772525809211664600,2.09566455078125,0.0050527239218354225,-0.02291559986770153,0.014902113005518913
1772525809221647600,2.105647705078125,-0.001471975352615118,-0.017434122040867805,0.014968585222959518
1772525809231632000,2.1156318359375,-0.004119690041989088,-0.008386565372347832,0.013345921412110329
1772525809241614800,2.12561474609375,-0.007630925625562668,-0.0021157513838261366,0.00646298099309206
1772525809251597800,2.135597900390625,-0.01173725351691246,0.004365317523479462,0.00018937280401587486
1772525809261581600,2.14558154296875,-0.015705302357673645,-0.00670014088973403,-0.011024300009012222
1772525809271564800,2.155564697265625,-0.017615322023630142,-0.017630020156502724,-0.017545582726597786
1772525809281547800,2.1655478515625,-0.016271114349365234,-0.01483968272805214,-0.017595428973436356
1772525809291531800,2.17553173828125,-0.010479536838829517,-0.0016021744813770056,-0.011539135128259659
1772525809301514800,2.1855146484375,-0.009062235243618488,0.012022921815514565,-0.0001704818569123745
1772525809311497700,2.195497802734375,-0.0022610542364418507,0.01632898673415184,0.011322656646370888
1772525809321481700,2.205481689453125,-0.0004765475168824196,0.006108155474066734,0.026482760906219482
1772525809331464700,2.215464599609375,0.0028697140514850616,-0.013585655018687248,0.03133876994252205
1772525809341448700,2.22544873046875,0.009682722389698029,-0.03321496397256851,0.030826697126030922
1772525809351432000,2.235431884765625,0.010315490886569023,-0.050325773656368256,0.02701518125832081
1772525809361414700,2.24541455078125,0.012102784588932991,-0.0434274896979332,0.012068083509802818
1772525809371398700,2.255398681640625,0.01215737871825695,-0.025592302903532982,-0.000550772063434124
1772525809381381600,2.265381591796875,0.01227402500808239,0.0019711474888026714,-0.01379760168492794
1772525809391364900,2.27536474609375,0.015597384423017502,0.030874701216816902,-0.025928035378456116
1772525809401348900,2.285348876953125,0.020576994866132736,0.055463217198848724,-0.029801122844219208
1772525809411331600,2.29533154296875,0.03467550128698349,0.06411556154489517,-0.022511785849928856
1772525809421315600,2.305315673828125,0.04153523966670036,0.04988434538245201,-0.015043161809444427
1772525809431298800,2.315298828125,0.03638628497719765,0.025295112282037735,-0.0036237938329577446
1772525809441281800,2.32528173828125,0.030830053612589836,0.0005903253331780434,0.005303281359374523
1772525809451265800,2.335265869140625,0.023720214143395424,-0.021808722987771034,0.013059738092124462
1772525809461248800,2.345248779296875,0.018919803202152252,-0.027503160759806633,0.012819254770874977
1772525809471231700,2.355231689453125,0.011402231641113758,-0.02201997861266136,0.013856555335223675
1772525809481215700,2.3652158203125,0.011100156232714653,-0.007141830399632454,0.011056547984480858
1772525809491198700,2.37519873046875,0.009500928223133087,0.008394785225391388,0.006220779847353697
1772525809501182700,2.3851826171875,0.012315493077039719,0.021920116618275642,-0.0023019076324999332
1772525809511166000,2.395166015625,0.016485203057527542,0.02636786177754402,-0.010473551228642464
1772525809521148700,2.405148681640625,0.009814659133553505,0.017565716058015823,-0.01791788637638092
1772525809531132700,2.415132568359375,0.0026803179644048214,0.007731993682682514,-0.026738274842500687
1772525809541115600,2.42511572265625,-0.007629265543073416,0.0038742958568036556,-0.02948969230055809
1772525809551099000,2.435098876953125,-0.020645998418331146,0.003534210380166769,-0.028737083077430725
1772525809561083000,2.445082763671875,-0.023820532485842705,0.004056831356137991,-0.025003492832183838
1772525809571065600,2.455065673828125,-0.02512388303875923,0.010845761746168137,-0.013535654172301292
1772525809581049600,2.465049560546875,-0.02594888024032116,0.009539740160107613,0.002240424510091543
1772525809591032800,2.47503271484375,-0.02720695734024048,0.004444580525159836,0.010563069023191929
1772525809601015800,2.485015869140625,-0.023156872019171715,-0.005654918495565653,0.015531150624155998
1772525809610999800,2.494999755859375,-0.018817784264683723,-0.015092095360159874,0.020308595150709152
1772525809620982800,2.504982666015625,-0.017592167481780052,-0.017438888549804688,0.020168300718069077
1772525809630965800,2.5149658203125,-0.018752506002783775,-0.010307209566235542,0.0151935163885355
1772525809640949800,2.52494970703125,-0.020572777837514877,-0.01032425370067358,0.003904110286384821
1772525809650932700,2.5349326171875,-0.01830558106303215,-0.009822526015341282,-0.0012866049073636532
1772525809660916700,2.544916748046875,-0.023092597723007202,0.007198347710072994,-0.007128302473574877
1772525809670900000,2.55489990234375,-0.016557732596993446,0.023434309288859367,-0.010169897228479385
1772525809680882700,2.564882568359375,-0.013833820819854736,0.0287050511687994,-0.009916150942444801
1772525809690866700,2.57486669921875,-0.0024381540715694427,0.018868133425712585,-0.0038068597204983234
1772525809700849700,2.584849609375,0.001500775571912527,0.003906650003045797,0.0047202520072460175
1772525809710833000,2.5948330078125,0.0032110577449202538,-0.011909596621990204,0.011422096751630306
1772525809720817000,2.60481689453125,0.0046220943331718445,-0.01603415235877037,0.015776576474308968
1772525809730799600,2.614799560546875,0.002002076245844364,-0.014305495657026768,0.019927378743886948
1772525809740783600,2.62478369140625,-0.0015968927182257175,0.0010784030891954899,0.020817045122385025
1772525809750766800,2.634766845703125,-0.005664338823407888,0.014348668977618217,0.011721551418304443
1772525809760749800,2.644749755859375,-0.0035349675454199314,0.012960044667124748,0.004503265954554081
1772525809770733800,2.65473388671875,0.0031961719505488873,0.0029785174410790205,-0.002381271217018366
1772525809780716500,2.664716552734375,0.012704690918326378,-0.005127427168190479,-0.005334396380931139
1772525809790699800,2.67469970703125,0.025604242458939552,-0.018368398770689964,-0.0067810253240168095
1772525809800683800,2.684683837890625,0.029233800247311592,-0.029576469212770462,-0.0023630019277334213
1772525809810666800,2.694666748046875,0.026533091440796852,-0.025930337607860565,-0.00039279554039239883
1772525809820650000,2.70464990234375,0.023913761600852013,-0.01327078603208065,0.002079094760119915
1772525809830634000,2.714634033203125,0.024780087172985077,-0.009188160300254822,0.004785931669175625
1772525809840616700,2.72461669921875,0.015610608272254467,0.0011045066639780998,0.0016255048103630543
1772525809850600700,2.7346005859375,0.006766782142221928,0.0023532630875706673,0.0018846304155886173
1772525809860583700,2.744583740234375,0.006074422504752874,-0.0025697932578623295,-0.00604918971657753
1772525809870567000,2.75456689453125,0.013852450996637344,-0.0041309380903840065,-0.014751601032912731
1772525809880551000,2.764551025390625,0.015603696927428246,-0.002418780466541648,-0.016080569475889206
1772525809890533600,2.77453369140625,0.018267657607793808,-0.0032299791928380728,-0.016207335516810417
1772525809900516900,2.784516845703125,0.0226633008569479,-0.0024294520262628794,-0.007734124548733234
1772525809910500900,2.7945009765625,0.0248313806951046,-0.001466985559090972,0.003129708580672741
1772525809920483800,2.80448388671875,0.01617719978094101,-0.006436290219426155,0.010729735717177391
1772525809930467800,2.8144677734375,0.016031259670853615,-0.011956756934523582,0.01030362956225872
1772525809940450600,2.824450439453125,0.013459727168083191,-0.012697914615273476,0.009930788539350033
1772525809950433800,2.834433837890625,0.009147271513938904,-0.015624461695551872,0.0010574017651379108
1772525809960417800,2.844417724609375,0.008251775056123734,-0.011410145089030266,-0.012545755133032799
1772525809970400800,2.85440087890625,0.005979032721370459,0.00022334186360239983,-0.026108702644705772
1772525809980384000,2.864384033203125,0.0029314537532627583,0.015269272029399872,-0.02964058890938759
1772525809990368000,2.874367919921875,-0.00275173201225698,0.030871400609612465,-0.030514370650053024
1772525810000350700,2.884350830078125,-0.006110026501119137,0.03224560245871544,-0.02700730785727501
1772525810010334700,2.894334716796875,-0.004900418687611818,0.01932208053767681,-0.021095355972647667
1772525810020317700,2.904317626953125,-0.005505552049726248,-0.010000279173254967,-0.008114206604659557
1772525810030301000,2.914301025390625,-0.0026668887585401535,-0.030633384361863136,0.006574458442628384
1772525810040285000,2.924284912109375,0.0017678570002317429,-0.03394707292318344,0.01424244325608015
1772525810050267600,2.934267578125,0.004722900688648224,-0.02670966647565365,0.01806541159749031
1772525810060251000,2.9442509765625,-0.001767100766301155,-0.007170283701270819,0.017530221492052078
1772525810070235000,2.95423486328125,-0.007861744612455368,0.01988929696381092,0.013224689289927483
1772525810080217900,2.9642177734375,-0.014167889952659607,0.027222948148846626,0.0016006352379918098
1772525810090201900,2.974201904296875,-0.020820733159780502,0.022900637239217758,-0.003435934893786907
1772525810100184600,2.9841845703125,-0.02779173105955124,0.008269377052783966,-0.004763307049870491
1772525810110167800,2.994167724609375,-0.0329689159989357,-0.01120125874876976,-0.0004101041704416275
1772525810120151800,3.00415185546875,-0.029945820569992065,-0.022565992549061775,-0.0014616837725043297
1772525810130134800,3.014134765625,-0.02184128761291504,-0.020235726609826088,0.0006299633532762527
1772525810140117800,3.02411767578125,-0.0136959757655859,-0.0034949197433888912,0.004854375962167978
1772525810150101800,3.034101806640625,-0.006676948629319668,0.01205101702362299,0.002539290115237236
1772525810160084700,3.044084716796875,-0.0012209173291921616,0.020472807809710503,-0.0010834578424692154
1772525810170068700,3.05406884765625,-0.00157245434820652,0.012217007577419281,0.00041883159428834915
1772525810180051700,3.0640517578125,0.0013936343602836132,0.006308212876319885,-0.003193587064743042
1772525810190035000,3.074034912109375,-0.002006157301366329,0.0004796185530722141,-0.005370454862713814
1772525810200019000,3.08401904296875,-0.003616602858528495,-0.007607949897646904,-0.001246762927621603
1772525810210001700,3.094001708984375,-0.010832970961928368,-0.006663059815764427,0.00498583260923624
1772525810219985000,3.10398486328125,-0.008011318743228912,-0.0031553299631923437,0.009536055848002434
1772525810229969000,3.113968994140625,-0.004167312290519476,-0.006834752857685089,0.01201439369469881
1772525810239952000,3.123951904296875,-0.00022227782756090164,-0.014865103177726269,0.008272066712379456
1772525810249936000,3.133935791015625,0.0040265293791890144,-0.021867085248231888,-0.001838624943047762
1772525810259918800,3.1439189453125,0.0065094404853880405,-0.01414615660905838,-0.013040783815085888
1772525810269901800,3.15390185546875,0.010481011122465134,0.002302324865013361,-0.018720507621765137
1772525810279885800,3.1638857421875,0.006173992063850164,0.018938079476356506,-0.017182214185595512
1772525810289868800,3.173868896484375,0.005057595204561949,0.023983173072338104,-0.013898802921175957
1772525810299851800,3.183851806640625,0.006345233414322138,0.012479914352297783,-0.0071559445932507515
1772525810309836000,3.1938359375,0.007472958415746689,0.004916141740977764,0.0012790821492671967
1772525810319818800,3.20381884765625,0.00883420743048191,-0.005912581458687782,0.006120339501649141
1772525810329801700,3.2138017578125,0.012538399547338486,-0.012825082056224346,0.00877417903393507
1772525810339785700,3.22378564453125,0.01332735363394022,-0.011239209212362766,0.008794312365353107
1772525810349769000,3.23376904296875,0.01097897719591856,-0.0054992977529764175,0.003306336235255003
1772525810359753000,3.2437529296875,0.009229155257344246,-0.002319710562005639,0.0034337425604462624
1772525810369735700,3.253735595703125,0.006039753090590239,0.005132612772285938,0.0071568419225513935
1772525810379718700,3.26371875,0.003604418598115444,0.006640455685555935,0.007372184190899134
1772525810389703000,3.273702880859375,0.0077512264251708984,-0.000969793414697051,0.0069207786582410336
1772525810399686000,3.283685791015625,0.010243725031614304,-0.013356795534491539,0.00815691240131855
1772525810409668900,3.2936689453125,0.004143488127738237,-0.021593419834971428,0.008417902514338493
1772525810419652600,3.303652587890625,0.006632838863879442,-0.012749449349939823,0.00004833238199353218
1772525810429635800,3.3136357421875,0.007045628968626261,-0.007275853306055069,-0.0100887231528759
1772525810439619800,3.323619873046875,0.000484321266412735,0.005640504416078329,-0.011280861683189869
1772525810449602800,3.333602783203125,-0.003199097001925111,0.020319582894444466,-0.007088513113558292
1772525810459585800,3.343585693359375,-0.006817613262683153,0.02043217048048973,-0.0003400682471692562
1772525810469570000,3.353570068359375,-0.003628477919846773,0.010143846273422241,0.00573007483035326
1772525810479552800,3.363552734375,0.002749998588114977,-0.006057735066860914,0.013300007209181786
1772525810489535700,3.37353564453125,0.00985531322658062,-0.019022801890969276,0.016104847192764282
1772525810499519700,3.383519775390625,0.013208058662712574,-0.02572273090481758,0.018192553892731667
1772525810509503000,3.3935029296875,0.009858333505690098,-0.017578251659870148,0.01508730836212635
1772525810519487000,3.403487060546875,0.010529058054089546,0.0015524323098361492,0.018251411616802216
1772525810529469700,3.4134697265625,0.005201139021664858,0.018381480127573013,0.021259984001517296
1772525810539452700,3.42345263671875,-0.003919200971722603,0.028334179893136024,0.023665081709623337
1772525810549437000,3.43343701171875,-0.010078294202685356,0.020877595990896225,0.015699299052357674
1772525810559420000,3.443419921875,-0.007363650947809219,-0.0025641797110438347,0.012577696703374386
1772525810569403000,3.45340283203125,-0.006069620605558157,-0.013792866840958595,0.0010105227120220661
1772525810579386600,3.46338671875,-0.0025497565511614084,-0.02377670630812645,-0.004247453063726425
1772525810589369900,3.473369873046875,0.0009222067892551422,-0.019763855263590813,-0.010700824670493603
1772525810599353900,3.483353759765625,-0.0023867241106927395,-0.006171984598040581,-0.01609783247113228
1772525810609336800,3.4933369140625,-0.0006452831439673901,0.010598206892609596,-0.02284441515803337
1772525810619319800,3.50331982421875,-0.0035516677889972925,0.017991261556744576,-0.020636867731809616
1772525810629303800,3.5133037109375,-0.005254226736724377,0.016678322106599808,-0.015530789270997047
1772525810639286800,3.523286865234375,-0.001380236353725195,0.009927954524755478,-0.008257215842604637
1772525810649269800,3.533269775390625,0.0026810849085450172,-0.007619081065058708,-0.0009052925743162632
1772525810659253800,3.543253662109375,0.007432648912072182,-0.015550495125353336,0.00946047529578209
1772525810669237000,3.553237060546875,0.013278554193675518,-0.024488061666488647,0.01349543035030365
1772525810679221000,3.563220947265625,0.018981169909238815,-0.024244889616966248,0.014408559538424015
1772525810689203700,3.57320361328125,0.01817316748201847,-0.023499734699726105,0.009134169667959213
1772525810699186700,3.583186767578125,0.01892402395606041,-0.015897683799266815,0.0028893700800836086
1772525810709171000,3.5931708984375,0.012998491525650024,-0.006286069750785828,-0.0022721020504832268
1772525810719154000,3.60315380859375,0.008723828941583633,0.0004967176355421543,-0.00918937660753727
1772525810729136600,3.61313671875,0.0035535679198801517,0.007072328589856625,-0.016247818246483803
1772525810739120600,3.62312060546875,0.006223449483513832,0.013246665708720684,-0.01966838166117668
1772525810749103900,3.633103759765625,0.001894214190542698,0.019536519423127174,-0.0167602077126503
1772525810759086800,3.6430869140625,0.005049902945756912,0.02054821513593197,-0.016849268227815628
1772525810769070800,3.65307080078125,0.008035838603973389,0.009902761317789555,-0.009521045722067356
1772525810779053800,3.6630537109375,0.01025965716689825,-0.0005748465191572905,-0.0013573910109698772
1772525810789037800,3.673037841796875,0.011603488586843014,-0.004462528973817825,0.007512798998504877
1772525810799020800,3.683020751953125,0.01309999730437994,-0.007303084246814251,0.01343710720539093
1772525810809003800,3.693003662109375,0.010005936957895756,-0.003594898385927081,0.01945212297141552
1772525810818987800,3.70298779296875,0.0046572149731218815,-0.004342961590737104,0.021936528384685516
1772525810828971000,3.712970947265625,0.0037794369272887707,-0.0002683249767869711,0.015666913241147995
1772525810838953700,3.72295361328125,0.0002264808863401413,0.010569592006504536,0.010881003923714161
1772525810848937700,3.732937744140625,-0.003394086379557848,0.009501131251454353,0.004989825654774904
1772525810858920700,3.742920654296875,-0.008886904455721378,0.005344213917851448,-0.004269769880920649
1772525810868904700,3.75290478515625,-0.01203103270381689,-0.0023062487598508596,-0.014269940555095673
1772525810878888000,3.762887939453125,-0.010935105383396149,-0.0031042115297168493,-0.01744726486504078
1772525810888870700,3.77287060546875,-0.008812032639980316,-0.005353516899049282,-0.01660464145243168
1772525810898854700,3.782854736328125,-0.006951004266738892,-0.0052256169728934765,-0.010342258960008621
1772525810908838000,3.792837890625,-0.007320917211472988,0.0003720817621797323,-0.0026097712107002735
1772525810918820900,3.80282080078125,-0.009984580799937248,-0.0016434143763035536,0.0040372684597969055
1772525810928804900,3.812804931640625,-0.017689639702439308,-0.0038200158160179853,0.012231282889842987
1772525810938787600,3.82278759765625,-0.023272907361388206,0.0007731262594461441,0.013553326949477196
1772525810948770800,3.832770751953125,-0.022023353725671768,0.0012924426700919867,0.014006596989929676
1772525810958754800,3.8427548828125,-0.02522614784538746,-0.010412389412522316,0.007173617836087942
1772525810968737800,3.85273779296875,-0.02409297414124012,-0.015302753075957298,-0.006715300027281046
1772525810978721800,3.8627216796875,-0.017763908952474594,-0.02194434404373169,-0.01568455994129181
1772525810988705000,3.872705078125,-0.010071102529764175,-0.01882604882121086,-0.012931116856634617
1772525810998687700,3.882687744140625,-0.0037835990078747272,0.0014452934265136719,-0.0023105358704924583
1772525811008671700,3.892671630859375,-0.0002834065817296505,0.010657167062163353,0.00872160866856575
1772525811018654700,3.90265478515625,0.005724721122533083,0.013567918911576271,0.023324351757764816
1772525811028638000,3.912637939453125,0.009160464629530907,0.007366748061031103,0.03423718363046646
1772525811038622000,3.9226220703125,0.009046539664268494,-0.007037527393549681,0.037560395896434784
1772525811048604700,3.932604736328125,0.0070092217065393925,-0.023578952997922897,0.03718142583966255
1772525811058588700,3.942588623046875,0.010518845170736313,-0.025790387764573097,0.041126154363155365
1772525811068572000,3.952572021484375,0.017136001959443092,-0.022697659209370613,0.036072004586458206
1772525811078555000,3.962554931640625,0.017850831151008606,-0.009560099802911282,0.029935909435153008
1772525811088539000,3.972538818359375,0.015739478170871735,0.013185959309339523,0.016728227958083153
1772525811098521600,3.982521484375,0.008558385074138641,0.02226639725267887,0.0020592804066836834
1772525811108504800,3.9925048828125,0.005319448187947273,0.02695462666451931,-0.009344642981886864
1772525811118486800,4.00248681640625,0.005680807400494814,0.021319027990102768,-0.008432985283434391
1772525811128469800,4.0124697265625,0.013759240508079529,0.01495140977203846,-0.00016493536531925201
1772525811138453800,4.022453857421875,0.024444278329610825,0.003009289037436247,0.010263096541166306
1772525811148436700,4.032436767578125,0.03729376569390297,-0.008495566435158253,0.026163766160607338
1772525811158419200,4.042419189453125,0.040346659719944,-0.005678592249751091,0.034484490752220154
1772525811168403200,4.0524033203125,0.039708834141492844,-0.002888664836063981,0.03440486639738083
1772525811178386200,4.06238623046875,0.04438595101237297,0.006371384486556053,0.031041134148836136
1772525811188370200,4.0723701171875,0.04106658697128296,0.008660105057060719,0.024475643411278725
1772525811198353400,4.082353515625,0.03293105214834213,-0.004803652875125408,0.020088668912649155
1772525811208336100,4.092336181640625,0.027533624321222305,-0.010045019909739494,0.007977411150932312
1772525811218320100,4.102320068359375,0.023717086762189865,-0.013824294321238995,0.0010017766617238522
1772525811228303000,4.11230322265625,0.01940915733575821,-0.005702718161046505,-0.002720789983868599
1772525811238286300,4.122286376953125,0.012586290016770363,-0.0020189317874610424,-0.007551958318799734
1772525811248270300,4.132270263671875,0.008412051014602184,0.0050810556858778,-0.013788016512989998
1772525811258253000,4.142253173828125,0.004831414669752121,0.0030901688151061535,-0.01797088235616684
1772525811268236300,4.152236328125,0.0028729261830449104,0.0025932230055332184,-0.02163698896765709
1772525811278220300,4.16222021484375,-0.002118683885782957,-0.00895005464553833,-0.021767977625131607
1772525811288203300,4.172203369140625,-0.008035961538553238,-0.009204385802149773,-0.017775632441043854
1772525811298187300,4.182187255859375,-0.005315479356795549,-0.006056017242372036,-0.016411762684583664
1772525811308170000,4.192169921875,-0.0038486102130264044,-0.0021888413466513157,-0.009926166385412216
1772525811318153200,4.2021533203125,-0.0042458269745111465,0.0052477335557341576,-0.008939042687416077
1772525811328137200,4.21213720703125,-0.0043030851520597935,0.00784591306000948,-0.0045882356353104115
1772525811338120200,4.2221201171875,-0.009438334964215755,0.0007457879837602377,-0.0015330538153648376
1772525811348103200,4.232103271484375,-0.013035200536251068,-0.009412040933966637,0.0039059205446392298
1772525811358087400,4.24208740234375,-0.017449278384447098,-0.017801476642489433,0.003922483883798122
1772525811368070100,4.252070068359375,-0.01932494342327118,-0.016666172072291374,-0.0004224628210067749
1772525811378054100,4.26205419921875,-0.018965478986501694,-0.004365359432995319,-0.005729879252612591
1772525811388037000,4.272037109375,-0.01070142351090908,0.011572593823075294,-0.008122197352349758
1772525811398020400,4.282020263671875,-0.006038371007889509,0.015241227112710476,-0.0013508391566574574
1772525811408004400,4.29200439453125,-0.0029429791029542685,0.016851108521223068,0.006153682246804237
1772525811417987000,4.301987060546875,0.0029808166436851025,0.012922907248139381,0.010616765357553959
1772525811427970000,4.311969970703125,0.0056101554073393345,0.0039059771224856377,0.017008883878588676
1772525811437954300,4.321954345703125,0.0015012258663773537,-0.02007625624537468,0.017537791281938553
1772525811447937300,4.331937255859375,-0.0077175721526145935,-0.029210632666945457,0.01909094676375389
1772525811457920000,4.341919921875,-0.012780725955963135,-0.03416278958320618,0.019826559349894524
1772525811467904000,4.351904052734375,-0.015309929847717285,-0.02262065000832081,0.01432926207780838
1772525811477887200,4.36188720703125,-0.01869366317987442,0.005176332779228687,0.005559048615396023
1772525811487871200,4.371871337890625,-0.0167708620429039,0.030952535569667816,-0.005752462428063154
1772525811497856300,4.381856201171875,-0.008728270418941975,0.03796602785587311,-0.021112194284796715
1772525811507839200,4.391839111328125,-0.002718315226957202,0.027489418163895607,-0.02849101461470127
1772525811517823200,4.4018232421875,-0.0023431412409991026,0.011634121648967266,-0.02657688781619072
1772525811527806200,4.41180615234375,-0.007105405908077955,-0.001156507758423686,-0.018377546221017838
1772525811537789200,4.4217890625,-0.00901468750089407,-0.008673079311847687,-0.0014656768180429935
1772525811547773200,4.431773193359375,-0.013108499348163605,-0.005888477433472872,0.00835339818149805
1772525811557756200,4.441756103515625,-0.012727387249469757,-0.006546200253069401,0.013836795464158058
1772525811567739100,4.4517392578125,-0.0064620343036949635,-0.00886048749089241,0.011890023946762085
1772525811577723400,4.461723388671875,-0.0003608851693570614,-0.0037380103021860123,0.008476325310766697
1772525811587706000,4.4717060546875,0.007479460909962654,-0.0018405080772936344,0.0013712779618799686
1772525811597690000,4.481690185546875,0.013491030782461166,-0.0005300573538988829,-0.007408261764794588
1772525811607673000,4.491673095703125,0.007413165178149939,-0.0036938926205039024,-0.014485079795122147
1772525811617656300,4.50165625,0.0020524379797279835,-0.0033189125824719667,-0.01721486635506153
1772525811627640300,4.511640380859375,-0.0028102274518460035,-0.0015021043363958597,-0.01871848665177822
1772525811637623000,4.521623046875,-0.009570898488163948,0.0049480558373034,-0.012945761904120445
1772525811647606000,4.53160595703125,-0.007173254620283842,0.009004049934446812,-0.016215858981013298
1772525811657590300,4.54159033203125,-0.005609281826764345,0.014257821254432201,-0.017499525099992752
1772525811667573200,4.5515732421875,0.0008486174046993256,0.013167256489396095,-0.015208672732114792
1772525811677556200,4.56155615234375,0.005756220314651728,0.011603174731135368,-0.014246238395571709
1772525811687540200,4.571540283203125,0.01008891686797142,0.00586752500385046,-0.00919848307967186
1772525811697523200,4.581523193359375,0.017704932019114494,-0.0033394352067261934,-0.003425228875130415
1772525811707507200,4.591507080078125,0.017238611355423927,-0.011594169773161411,-0.0018443767912685871
1772525811717490200,4.601490234375,0.01901652291417122,-0.011241641826927662,-0.003961274400353432
1772525811727473200,4.61147314453125,0.0201646126806736,0.004825475625693798,-0.005875554867088795
1772525811737457200,4.62145703125,0.018206343054771423,0.02070431597530842,-0.0020307982340455055
1772525811747440000,4.631440185546875,0.018502220511436462,0.03508511930704117,-0.0038766348734498024
1772525811757423000,4.641423095703125,0.025720888748764992,0.03510414808988571,-0.00027758581563830376
1772525811767407000,4.651406982421875,0.03280249983072281,0.019116925075650215,0.0029453719034790993
1772525811777390300,4.661390380859375,0.03333621472120285,0.0036049848422408104,0.004856295883655548
1772525811787373300,4.671373291015625,0.0321686826646328,-0.015718378126621246,0.012496106326580048
1772525811797357000,4.681357177734375,0.02495535835623741,-0.023683039471507072,0.0135702108964324
1772525811807340000,4.691340087890625,0.02060321904718876,-0.01608877070248127,0.01053686998784542
1772525811817324300,4.70132421875,0.014437844976782799,-0.010064910165965557,0.007454045582562685
1772525811827307300,4.711307373046875,0.006870473735034466,0.0017717755399644375,-0.002992203924804926
1772525811837290200,4.721290283203125,0.0037131854332983494,0.009659470058977604,-0.012886697426438332
1772525811847274200,4.731274169921875,0.003073760773986578,0.011372148990631104,-0.017587441951036453
1772525811857257200,4.74125732421875,0.0017989506013691425,0.009109152480959892,-0.02156284637749195
1772525811867240200,4.751240234375,-0.0022690275218337774,0.00004268623888492584,-0.019310612231492996
1772525811877224200,4.76122412109375,-0.0013533392921090126,0.0002661817707121372,-0.005395813379436731
1772525811887207200,4.771207275390625,-0.0010609244927763939,-0.0016044226940721273,0.00011879438534379005
1772525811897191200,4.781191162109375,-0.0029878923669457436,-0.009284742176532745,0.00492484588176012
1772525811907174100,4.791174072265625,-0.003120784182101488,-0.019745372235774994,0.007549657486379147
1772525811917157000,4.8011572265625,-0.008075546473264694,-0.027784666046500206,0.003021267708390951
1772525811927141000,4.81114111328125,-0.012722229585051537,-0.028782818466424942,-0.004739716649055481
1772525811937124400,4.821124267578125,-0.017045527696609497,-0.028097350150346756,-0.014195693656802177
1772525811947107000,4.831107177734375,-0.01348754484206438,-0.015197262167930603,-0.016717974096536636
1772525811957091000,4.841091064453125,-0.012878840789198875,0.002684385050088167,-0.011901326477527618
1772525811967074000,4.851073974609375,-0.014988064765930176,0.005187756381928921,-0.0064522335305809975
1772525811977057300,4.861057373046875,-0.01487790234386921,-0.007641902659088373,-0.004039356019347906
1772525811987041300,4.871041259765625,-0.01681242324411869,-0.02428346313536167,-0.002462764736264944
1772525811997024300,4.881024169921875,-0.011076413094997406,-0.03515247255563736,0.003380423877388239
1772525812007008000,4.891008056640625,-0.010696379467844963,-0.037364762276411057,0.005035844631493092
1772525812016991200,4.9009912109375,-0.007130611687898636,-0.02315140888094902,0.009808763861656189
1772525812026974200,4.91097412109375,-0.002398440847173333,0.0016053367871791124,0.008409539237618446
1772525812036958200,4.920958251953125,0.0027787485159933567,0.022398870438337326,0.008242972195148468
1772525812046941200,4.930941162109375,-0.0037358759436756372,0.024545645341277122,0.007846960797905922
1772525812056924200,4.940924072265625,-0.006595770828425884,0.029962381348013878,-0.0003481595776975155
1772525812066908200,4.950908203125,-0.006596836261451244,0.025559643283486366,-0.009873488917946815
1772525812076891100,4.96089111328125,-0.002304382622241974,0.013309122063219547,-0.010904455557465553
1772525812086875100,4.970875244140625,-0.005298042204231024,0.0025488859973847866,-0.008184568956494331
1772525812096858400,4.9808583984375,0.00235925056040287,-0.0009796831291168928,0.0021493486128747463
1772525812106841000,4.990841064453125,0.00789543054997921,0.004376999102532864,0.009161718189716339
1772525812116825000,5.0008251953125,0.008457401767373085,0.010336152277886868,0.022557687014341354
1772525812126808000,5.01080810546875,0.0103221470490098,0.014373237267136574,0.02277952805161476
1772525812136791300,5.020791259765625,0.006497803144156933,0.013872765935957432,0.027123408392071724
1772525812146775300,5.030775390625,-0.00046583032235503197,0.010454865172505379,0.022932125255465508
1772525812156758500,5.040758544921875,-0.005163821391761303,0.009458624757826328,0.01171441562473774
1772525812166741500,5.050741455078125,-0.008701032027602196,0.004832980688661337,-0.0025702472776174545
1772525812176725500,5.0607255859375,-0.015898626297712326,0.003706793999299407,-0.014566682279109955
1772525812186708500,5.07070849609375,-0.02123027667403221,0.009253625757992268,-0.023282675072550774
1772525812196692500,5.0806923828125,-0.02002226561307907,0.009666948579251766,-0.033999498933553696
1772525812206675500,5.090675537109375,-0.018359031528234482,0.0038457619957625866,-0.035998035222291946
1772525812216658700,5.10065869140625,-0.017914151772856712,0.0057415650226175785,-0.033035874366760254
1772525812226642700,5.110642578125,-0.014375077560544014,-0.0016646857839077711,-0.020542452111840248
1772525812236625400,5.12062548828125,-0.013740179128944874,-0.004235967993736267,0.001192403957247734
1772525812246608400,5.1306083984375,-0.015775367617607117,0.000940684461966157,0.020831353962421417
1772525812256592600,5.140592529296875,-0.01800552010536194,0.006389760412275791,0.023700397461652756
1772525812266575600,5.15057568359375,-0.017456641420722008,0.01255631074309349,0.022197840735316277
1772525812276559600,5.1605595703125,-0.02157706394791603,0.03152868524193764,0.011669280007481575
1772525812286542300,5.170542236328125,-0.020199144259095192,0.0408332385122776,-0.004443110898137093
1772525812296525600,5.180525634765625,-0.014432884752750397,0.03265289589762688,-0.020955877378582954
1772525812306509600,5.190509521484375,-0.004871337208896875,0.010629886761307716,-0.03210120275616646
1772525812316492500,5.200492431640625,-0.0007570362649857998,0.002128899795934558,-0.0311774592846632
1772525812326475500,5.2104755859375,-0.002220975700765848,0.006164920516312122,-0.01980203203856945
1772525812336459500,5.22045947265625,0.0028439462184906006,0.01690717227756977,-0.002981763333082199
1772525812346442500,5.2304423828125,0.0025776298716664314,0.029266634956002235,0.008395260199904442
1772525812356425500,5.240425537109375,-0.00010488927364349365,0.039218153804540634,0.015481383539736271
1772525812366409500,5.250409423828125,0.003967083524912596,0.03750281035900116,0.018590092658996582
1772525812376392700,5.260392822265625,0.0035247276537120342,0.0312887467443943,0.012917948886752129
1772525812386376700,5.270376708984375,0.004294913727790117,0.02069096267223358,0.002872771117836237
1772525812396359400,5.280359375,0.004756690468639135,0.016715221107006073,-0.009158696047961712
1772525812406342400,5.29034228515625,0.0062427339144051075,0.013464299961924553,-0.013334798626601696
1772525812416326400,5.300326416015625,0.005278813187032938,0.010718189179897308,-0.013368362560868263
1772525812426309600,5.3103095703125,0.0010963189415633678,0.01813056506216526,-0.00872034765779972
1772525812436292400,5.320292236328125,-0.0014247405342757702,0.01912866160273552,-0.004472388420253992
1772525812446276400,5.3302763671875,-0.004700162447988987,0.01642821729183197,-0.005759227555245161
1772525812456259600,5.340259521484375,-0.0014495565555989742,0.016535283997654915,-0.007430143654346466
1772525812466242600,5.35024267578125,0.002297244966030121,0.012977567501366138,-0.013727987185120583
1772525812476226600,5.3602265625,0.0009043384343385696,0.003745319787412882,-0.017445987090468407
1772525812486209500,5.37020947265625,-0.003056048648431897,0.007072140462696552,-0.021404510363936424
1772525812496193500,5.380193603515625,-0.002678052056580782,0.005622729659080505,-0.026002515107393265
1772525812506176500,5.390176513671875,-0.0019957502372562885,0.0019656771328300238,-0.018831949681043625
1772525812516159500,5.400159423828125,0.004835369531065226,0.000015502329915761948,-0.016553569585084915
1772525812526143500,5.4101435546875,0.00621675094589591,0.0007614537607878447,-0.0034601381048560143
1772525812536126700,5.420126708984375,0.009627031162381172,0.00021135760471224785,0.00982905738055706
1772525812546109400,5.430109375,0.00822913832962513,0.0023826328106224537,0.022269748151302338
1772525812556093400,5.440093505859375,0.0038702795282006264,-0.0041949087753891945,0.02908903732895851
1772525812566076400,5.450076416015625,0.0016028648242354393,-0.012817159295082092,0.029394235461950302
1772525812576060400,5.460060302734375,-0.0027596387080848217,-0.015015851706266403,0.0244122464209795
1772525812586043600,5.470043701171875,-0.0059684813022613525,-0.009188055992126465,0.016123689711093903
1772525812596026400,5.4800263671875,-0.00865032896399498,-0.008438259363174438,0.005923078861087561
1772525812606010400,5.49001025390625,-0.006434845272451639,0.00801235344260931,-0.0004282942973077297
1772525812615993600,5.49999365234375,-0.000876312144100666,0.0192232858389616,-0.0018313489854335785
1772525812625976600,5.5099765625,0.010228803381323814,0.023957321420311928,-0.0021314872428774834
1772525812635960600,5.519960693359375,0.013553960248827934,0.022804532200098038,0.007197154685854912
1772525812645943600,5.529943603515625,0.01875431463122368,0.015343951992690563,0.018351538106799126
1772525812655926500,5.539926513671875,0.015629921108484268,0.0030981851741671562,0.03370259329676628
1772525812665910500,5.54991064453125,0.0133238909766078,-0.0019317271653562784,0.04261352866888046
1772525812675893500,5.5598935546875,0.0034252037294209003,-0.0027576652355492115,0.0457545667886734
1772525812685877500,5.56987744140625,-0.0026276286225765944,0.003530058078467846,0.04001438990235329
1772525812695860700,5.57986083984375,-0.0055229016579687595,0.022334005683660507,0.03178807348012924
1772525812705843500,5.589843505859375,-0.0029899689834564924,0.038991812616586685,0.022235050797462463
1772525812715827500,5.599827392578125,0.000735066831111908,0.04765839874744415,0.008615612052381039
1772525812725810400,5.609810546875,0.010903814807534218,0.04753030091524124,0.008156749419867992
1772525812735793700,5.619793701171875,0.021071264520287514,0.03944715857505798,0.013774629682302475
1772525812745777700,5.629777587890625,0.02495974488556385,0.02895456925034523,0.02584673836827278
1772525812755760400,5.639760498046875,0.02621440589427948,0.01934763602912426,0.03769610449671745
1772525812765743600,5.64974365234375,0.024904130026698112,0.01278880424797535,0.041204288601875305
1772525812775727600,5.6597275390625,0.019385777413845062,0.01314149796962738,0.03754633292555809
1772525812785710600,5.669710693359375,0.012825879268348217,0.012166248634457588,0.025778355076909065
1772525812795694600,5.679694580078125,0.009245403110980988,0.018919898197054863,0.008327720686793327
1772525812805677300,5.68967724609375,0.007040305994451046,0.02166934497654438,-0.005437892396003008
1772525812815660500,5.69966064453125,0.009553104639053345,0.001615429762750864,-0.01676441729068756
1772525812825644500,5.70964453125,0.01663285307586193,0.007015255279839039,-0.02289314940571785
1772525812835627500,5.71962744140625,0.01821724884212017,0.0030125987250357866,-0.0251480545848608
1772525812845610500,5.729610595703125,0.01327841728925705,-0.01255996897816658,-0.029640009626746178
1772525812855594800,5.7395947265625,0.010213982313871384,-0.017817942425608635,-0.03249317407608032
1772525812865577500,5.749577392578125,0.004205892328172922,-0.020764729008078575,-0.03662107512354851
1772525812875560400,5.759560546875,-0.00397598696872592,-0.02361980453133583,-0.035934705287218094
1772525812885544400,5.76954443359375,-0.0056788120418787,-0.014923784881830215,-0.0411347933113575
1772525812895527700,5.779527587890625,-0.007622038014233112,-0.020934194326400757,-0.052272941917181015
1772525812905511700,5.78951171875,-0.006703247781842947,-0.02636171691119671,-0.0562455840408802
1772525812915494400,5.799494384765625,-0.0045891692861914635,-0.021930420771241188,-0.05445246770977974
1772525812925477600,5.8094775390625,-0.005607562139630318,-0.01664058491587639,-0.053590934723615646
1772525812935461600,5.819461669921875,-0.0045769186690449715,-0.009655645117163658,-0.04242696613073349
1772525812945444600,5.829444580078125,-0.00935090146958828,-0.006816182751208544,-0.02924937754869461
1772525812955427300,5.83942724609375,-0.018123947083950043,-0.005091315135359764,-0.015502145513892174
1772525812965411300,5.849411376953125,-0.01883341372013092,-0.00032665347680449486,-0.004717941861599684
1772525812975394600,5.85939453125,-0.020613504573702812,0.01139063760638237,0.006011194549500942
1772525812985377500,5.86937744140625,-0.016300247982144356,0.01361464336514473,0.012272818014025688
1772525812995361500,5.879361572265625,-0.008300328627228737,0.013573359698057175,0.019464995712041855
1772525813005344500,5.889344482421875,-0.000599266029894352,0.011461206711828709,0.023261597380042076
1772525813015328500,5.89932861328125,-0.0038140283431857824,0.014293419197201729,0.029068078845739365
1772525813025311500,5.9093115234375,-0.012306848540902138,0.011343700811266899,0.029910704120993614
1772525813035294500,5.91929443359375,-0.021157242357730865,0.011850803159177303,0.0282612144947052
1772525813045278500,5.929278564453125,-0.031868476420640945,0.007433417718857527,0.027917932718992233
1772525813055261700,5.93926171875,-0.037908460944890976,0.0043190233409404755,0.015386042185127735
1772525813065244400,5.949244384765625,-0.03836652263998985,0.006370988674461842,0.0040391115471720695
1772525813075228400,5.959228515625,-0.035254187881946564,0.01598198525607586,-0.005393252242356539
1772525813085211400,5.96921142578125,-0.03144054114818573,0.03125494718551636,-0.010063370689749718
1772525813095194600,5.979194580078125,-0.0221141017973423,0.03763117641210556,-0.008513472974300385
1772525813105178600,5.9891787109375,-0.01608417183160782,0.025550810620188713,0.0010893521830439568
1772525813115161300,5.999161376953125,-0.012564642354846,0.013301124796271324,0.01629023253917694
1772525813125145300,6.009145263671875,-0.011796853505074978,-0.00935438647866249,0.02633434534072876
1772525813135128600,6.019128662109375,-0.007811421994119883,-0.028649190440773964,0.026527388021349907
1772525813145111600,6.029111572265625,-0.00923088751733303,-0.04719943925738335,0.01704200729727745
1772525813155095300,6.03909521484375,-0.012379526160657406,-0.05157936364412308,0.000263929832726717
1772525813165078300,6.049078369140625,-0.01821717619895935,-0.04696144536137581,-0.021294092759490013
1772525813175061200,6.059061279296875,-0.026941398158669472,-0.038503896445035934,-0.04546424001455307
1772525813185045200,6.069045166015625,-0.0333138108253479,-0.02734418399631977,-0.06165918707847595
1772525813195028200,6.0790283203125,-0.03250453621149063,-0.010632814839482307,-0.06872759759426117
1772525813205011500,6.089011474609375,-0.022963227704167366,0.004547202959656715,-0.06408890336751938
1772525813214995500,6.098995361328125,-0.010971512645483017,0.007710590492933989,-0.049220796674489975
1772525813224978200,6.108978271484375,0.0012531955726444721,0.0009147359523922205,-0.0316588468849659
1772525813234962200,6.118962158203125,0.009436896070837975,-0.016760263592004776,-0.013507051393389702
1772525813244945400,6.1289453125,0.010088572278618813,-0.039985958486795425,0.004887934774160385
1772525813254928400,6.138928466796875,0.00862109288573265,-0.04321235045790672,0.01704063080251217
1772525813264912400,6.148912353515625,0.006885777227580547,-0.02424132078886032,0.020617788657546043
1772525813274895000,6.15889501953125,0.010211443528532982,-0.006446388550102711,0.013060206547379494
1772525813284878300,6.16887841796875,0.0063671693205833435,0.010618881322443485,0.00452504213899374
1772525813294862300,6.1788623046875,0.0018528783693909645,0.028251491487026215,-0.011048119515180588
1772525813304845300,6.18884521484375,0.003978879190981388,0.02907494083046913,-0.02459748275578022
1772525813314828000,6.198828125,0.009625157341361046,0.02510688826441765,-0.031130436807870865
1772525813324812300,6.208812255859375,0.009219292551279068,0.017369605600833893,-0.02363070845603943
1772525813334795300,6.218795166015625,0.00781118543818593,0.010389580391347408,-0.012621145695447922
1772525813344779300,6.228779296875,0.009145962074398994,0.003035793313756585,0.0008512530475854874
1772525813354762200,6.23876220703125,0.013474375009536743,-0.007636576425284147,0.015000914223492146
1772525813364745500,6.248745361328125,0.011575542390346527,-0.019114002585411072,0.021772000938653946
1772525813374729200,6.258729248046875,0.008859056048095226,-0.021288802847266197,0.0219096839427948
1772525813384712200,6.268712158203125,-0.00009182840585708618,-0.015420792624354362,0.013934582471847534
1772525813394695200,6.278695068359375,-0.009573008865118027,-0.015851223841309547,-0.0012987037189304829
1772525813404679400,6.288679443359375,-0.017252234742045403,-0.02181350812315941,-0.023993629962205887
1772525813414662400,6.298662353515625,-0.028495721518993378,-0.028278274461627007,-0.04190360754728317
1772525813424645000,6.30864501953125,-0.032941337674856186,-0.037537820637226105,-0.06261767446994781
1772525813434629000,6.318629150390625,-0.02848362736403942,-0.03832365944981575,-0.0633593201637268
1772525813444612400,6.3286123046875,-0.02277274616062641,-0.025843821465969086,-0.059356581419706345
1772525813454596400,6.338596435546875,-0.01698189415037632,-0.009975245222449303,-0.04329829290509224
1772525813464579300,6.348579345703125,-0.008904260583221912,-0.002982317004352808,-0.02981390804052353
1772525813474562000,6.35856201171875,-0.006254575680941343,-0.006355102173984051,-0.01372207049280405
1772525813484546300,6.36854638671875,-0.0013277274556457996,-0.018322547897696495,0.0012590098194777966
1772525813494529300,6.378529296875,0.0037894858978688717,-0.016898293048143387,0.005962649825960398
1772525813504512300,6.38851220703125,0.017172401770949364,0.0035451967269182205,0.013924703001976013
1772525813514496300,6.398496337890625,0.02289590612053871,0.03500639274716377,0.021126335486769676
1772525813524479500,6.4084794921875,0.02054007351398468,0.05275556072592735,0.029007960110902786
1772525813534462200,6.418462158203125,0.01417167391628027,0.055131278932094574,0.03525131195783615
1772525813544446200,6.4284462890625,0.007667435333132744,0.04077790677547455,0.0345839224755764
1772525813554429200,6.43842919921875,0.003990288358181715,0.021820340305566788,0.028840534389019012
1772525813564412400,6.448412353515625,0.0017399168573319912,0.00986221432685852,0.018192684277892113
1772525813574396400,6.458396484375,-0.001651120837777853,0.01529976911842823,0.005876959301531315
1772525813584379100,6.468379150390625,-0.0035377040039747953,0.01860448531806469,-0.0014991974458098412
1772525813594363100,6.478363037109375,-0.006293336860835552,0.024368837475776672,-0.006736578419804573
1772525813604346400,6.488346435546875,-0.004480523057281971,0.02291075699031353,-0.002988445572555065
1772525813614329300,6.498329345703125,0.001263970509171486,0.020034493878483772,0.0005832519382238388
1772525813624313300,6.508313232421875,0.008236924186348915,0.012455936521291733,0.010204187594354153
1772525813634296000,6.518296142578125,0.012242857366800308,-0.0014565743040293455,0.017172224819660187
1772525813644279300,6.528279296875,0.01123351976275444,-0.015196087770164013,0.018897952511906624
1772525813654263300,6.53826318359375,0.008482895791530609,-0.02607382833957672,0.01839030720293522
1772525813664246300,6.548246337890625,-0.0009220577776432037,-0.03272853419184685,0.011270078830420971
1772525813674229500,6.5582294921875,-0.013551970943808556,-0.03433791175484657,-0.004363326355814934
1772525813684213200,6.568213134765625,-0.027741027995944023,-0.01658235490322113,-0.014639932662248611
1772525813694196200,6.5781962890625,-0.03700297325849533,0.0072174072265625,-0.020666006952524185
1772525813704180200,6.58818017578125,-0.03699551522731781,0.03409775719046593,-0.022059105336666107
1772525813714163200,6.5981630859375,-0.02858297899365425,0.045453619211912155,-0.015865668654441833
1772525813724146400,6.608146484375,-0.004448349121958017,0.03815522417426109,-0.0010635522194206715
1772525813734130400,6.61813037109375,0.01129467785358429,0.02010183222591877,0.01653125509619713
1772525813744113200,6.628113037109375,0.024395564571022987,-0.0009057139977812767,0.031062794849276543
1772525813754096400,6.638096435546875,0.028601916506886482,-0.012764828279614449,0.03977420926094055
1772525813764080400,6.648080322265625,0.022499017417430878,-0.020203303545713425,0.04498948156833649
1772525813774063400,6.6580634765625,0.015303345397114754,-0.01605992764234543,0.03699482977390289
1772525813784046000,6.668046142578125,0.001582473050802946,0.0010255812667310238,0.02434428036212921
1772525813794030000,6.678030029296875,-0.009434114210307598,0.022361287847161293,0.015770282596349716
1772525813804013300,6.688013427734375,-0.01831229403614998,0.03642970323562622,0.005729098804295063
1772525813813996300,6.697996337890625,-0.02276906557381153,0.033926308155059814,-0.0020126434974372387
1772525813823980300,6.707980224609375,-0.017301063984632492,0.02349124103784561,-0.006557860877364874
1772525813833963300,6.71796337890625,-0.010737858712673187,0.004494704771786928,-0.00811283104121685
1772525813843947300,6.727947265625,-0.008021967485547066,-0.006614138837903738,-0.00406455947086215
1772525813853930200,6.73793017578125,-0.003464870620518923,-0.01212309766560793,0.0009835483506321907
1772525813863913200,6.747913330078125,-0.00383185432292521,-0.010393640957772732,0.012487338855862617
1772525813873897200,6.757897216796875,-0.006307157687842846,-0.005927576217800379,0.01418421883136034
1772525813883880400,6.76788037109375,-0.006792119704186916,-0.0018012742511928082,0.015697959810495377
1772525813893863200,6.77786328125,-0.01024932973086834,-0.008161751553416252,0.010497242212295532
1772525813903847200,6.78784716796875,-0.0038268500939011574,-0.0117570199072361,0.003099247347563505
1772525813913830400,6.797830322265625,-0.0023274077102541924,-0.0087116165086627,-0.007049273233860731
1772525813923813400,6.8078134765625,-0.0003303033299744129,-0.002762380288913846,-0.020283052697777748
1772525813933797400,6.81779736328125,0.0011275890283286572,0.0015820054104551673,-0.0312141552567482
1772525813943780000,6.827780029296875,0.004307402763515711,-0.00110539048910141,-0.03404935821890831
1772525813953764000,6.83776416015625,0.004692684859037399,-0.002521896967664361,-0.035129111260175705
1772525813963747300,6.847747314453125,0.007479948922991753,0.008694006130099297,-0.03345797583460808
1772525813973730300,6.857730224609375,0.007118720095604658,0.01626463234424591,-0.020645957440137863
1772525813983714300,6.86771435546875,0.0035665961913764477,0.017801009118556976,-0.0025236783549189568
1772525813993697300,6.877697265625,0.007252883166074753,0.01424616388976574,0.007881014607846737
1772525814003680300,6.88768017578125,0.004321275278925896,0.009068978950381279,0.019532877951860428
1772525814013664300,6.897664306640625,0.0005179913714528084,0.0019868058152496815,0.022594215348362923
1772525814023647200,6.907647216796875,0.0013222657144069672,-0.005797880236059427,0.023266661912202835
1772525814033630500,6.91763037109375,0.0007998598739504814,-0.010271774604916573,0.020681969821453094
1772525814043614500,6.927614501953125,0.0005101077258586884,-0.006349204573780298,0.015169225633144379
1772525814053597200,6.93759716796875,0.002844073809683323,0.0072851357981562614,0.007855325005948544
1772525814063580200,6.947580078125,0.0012853257358074188,0.023808185011148453,0.001856022048741579
1772525814073564400,6.957564453125,0.00504832761362195,0.03196582943201065,-0.0002368595451116562
1772525814083547400,6.96754736328125,0.00592077849432826,0.025813661515712738,-0.004232932813465595
1772525814093531400,6.977531494140625,0.0006317244842648506,0.011782089248299599,-0.004309734329581261
1772525814103514000,6.98751416015625,-0.0003949240781366825,-0.006245114840567112,-0.0037627210840582848
1772525814113497300,6.997497314453125,0.0007134061306715012,-0.022830454632639885,-0.007933340035378933
1772525814123481300,7.0074814453125,0.0007533533498644829,-0.03228946775197983,-0.01113579049706459
1772525814133464300,7.01746435546875,-0.003128314856439829,-0.029405592009425163,-0.011695902794599533
1772525814143447000,7.027447021484375,-0.005468168295919895,-0.019608885049819946,-0.007126983255147934
1772525814153431300,7.037431396484375,-0.009330783039331436,-0.0068631768226623535,0.00151464669033885
1772525814163414500,7.04741455078125,-0.014455771073698997,0.007323483005166054,0.0037109553813934326
1772525814173397500,7.0573974609375,-0.014960294589400291,0.015228692442178726,0.005699519999325275
1772525814183381500,7.067381591796875,-0.010653696954250336,0.022854121401906013,0.010761390440165997
1772525814193364700,7.07736474609375,-0.006514290813356638,-0.0004946654662489891,0.007631782442331314
1772525814203347500,7.087347412109375,0.002262156456708908,-0.013576379045844078,0.0043305279687047005
1772525814213331500,7.09733154296875,0.015637755393981934,-0.011070575565099716,0.0034957388415932655
1772525814223314400,7.107314453125,0.012748759239912033,-0.0282993633300066,0.0007604057900607586
1772525814233298400,7.11729833984375,0.009315133094787598,-0.028215009719133377,-0.006295598577708006
1772525814243281700,7.12728173828125,0.014883537776768208,-0.010034674778580666,-0.011164655908942223
1772525814253264400,7.137264404296875,0.010236500762403011,0.005605508107692003,-0.015545636415481567
1772525814263248400,7.147248291015625,0.004324282519519329,0.020722409710288048,-0.014970393851399422
1772525814273231600,7.157231689453125,0.0069826762191951275,0.009540564380586147,-0.007532377727329731
1772525814283214600,7.167214599609375,0.011458385735750198,-0.00671856664121151,0.004005767405033112
1772525814293198600,7.177198486328125,0.018705300986766815,-0.02308046631515026,0.01160924881696701
1772525814303181300,7.187181396484375,0.016909796744585037,-0.035862039774656296,0.017816811800003052
1772525814313164500,7.19716455078125,0.016635552048683167,-0.036737628281116486,0.015603998675942421
1772525814323148500,7.2071484375,0.008898270316421986,-0.025858081877231598,0.005398765206336975
1772525814333131500,7.217131591796875,-0.0037866749335080385,-0.008580975234508514,-0.0022236406803131104
1772525814343114500,7.227114501953125,-0.010537521913647652,-0.0009440938010811806,-0.0035512270405888557
1772525814353098800,7.2370986328125,-0.01498762983828783,0.00281744496896863,-0.0002449769526720047
1772525814363081500,7.24708154296875,-0.012982536107301712,0.0031343610025942326,0.004518885165452957
1772525814373065500,7.2570654296875,-0.002757174661383033,-0.011808163486421108,0.010033181868493557
1772525814383048400,7.26704833984375,0.0008066673763096333,-0.01785300485789776,0.011685673147439957
1772525814393031700,7.27703173828125,0.006726679392158985,-0.01365041546523571,0.021467436105012894
1772525814403015700,7.287015625,0.0009148633107542992,-0.004185007885098457,0.02661585994064808
1772525814412998400,7.296998291015625,-0.001709804404526949,-0.001383751630783081,0.02449517324566841
1772525814422981400,7.3069814453125,-0.003556972835212946,-0.0016018645837903023,0.0189475417137146
1772525814432965600,7.316965576171875,-0.004742973018437624,-0.006265739444643259,0.01674116775393486
1772525814442948600,7.326948486328125,-0.006909454707056284,-0.004641211125999689,0.015554463490843773
1772525814452931300,7.336931396484375,-0.006777988281100988,0.002359292469918728,0.014144640415906906
1772525814462915300,7.346915283203125,-0.002499620197340846,0.0016791210509836674,0.008179958909749985
1772525814472898600,7.356898681640625,-0.004223410971462727,0.00006058369763195515,0.012344306334853172
1772525814482881500,7.366881591796875,-0.004386396612972021,0.0016992267919704318,0.0114273801445961
1772525814492865500,7.376865478515625,-0.003894384019076824,0.007729652337729931,0.010723661631345749
1772525814502848500,7.3868486328125,0.002225027419626713,-0.0035464379470795393,0.010693036019802094
1772525814512832800,7.396832763671875,0.0013050315901637077,-0.006309438496828079,0.011446220800280571
1772525814522815500,7.4068154296875,-0.003730473341420293,-0.008609876967966557,0.008741513825953007
1772525814532798500,7.416798583984375,-0.00731672951951623,-0.005274215713143349,0.0010507786646485329
1772525814542782500,7.426782470703125,-0.010508527979254723,-0.00012739072553813457,-0.0050473278388381
1772525814552765700,7.436765625,-0.010428804904222488,0.0062832520343363285,-0.0036417655646800995
1772525814562748400,7.44674853515625,-0.00736643560230732,0.00726862158626318,-0.0027330955490469933
1772525814572732400,7.456732421875,0.001307900995016098,0.009336774237453938,0.0008019371889531612
1772525814582715400,7.46671533203125,0.009783677756786346,0.006936999969184399,0.005491231102496386
1772525814592698600,7.47669873046875,0.015396401286125183,0.0023625462781637907,0.0038505052216351032
1772525814602682600,7.4866826171875,0.01729816384613514,0.0020293849520385265,0.003710156539455056
1772525814612665300,7.496665283203125,0.015748031437397003,-0.004794551059603691,-0.001784265972673893
1772525814622648600,7.506648681640625,0.01416158676147461,-0.011976031586527824,-0.00531455222517252
1772525814632632600,7.516632568359375,0.010274875909090042,-0.019513191655278206,-0.00978834182024002
1772525814642615600,7.526615478515625,0.009671138599514961,-0.014942408539354801,-0.00557255744934082
1772525814652599600,7.536599609375,0.01626218482851982,0.006799315568059683,0.005648432299494743
1772525814662582500,7.54658251953125,0.019541867077350616,0.02417963743209839,0.011965183541178703
1772525814672565500,7.5565654296875,0.02563859149813652,0.02068290486931801,0.017292268574237823
1772525814682549500,7.566549560546875,0.02468145079910755,0.010607101023197174,0.019404955208301544
1772525814692532500,7.576532470703125,0.021102378144860268,-0.009631323628127575,0.018099701032042503
1772525814702515700,7.586515625,0.014274831861257553,-0.01836010068655014,0.010108087211847305
1772525814712499700,7.596499755859375,0.008944154717028141,-0.020435847342014313,0.0012705898843705654
1772525814722482400,7.606482421875,0.0030505796894431114,-0.009069209918379784,-0.0045742494985461235
1772525814732465400,7.61646533203125,-0.00346383941359818,0.0023862484376877546,-0.009697262197732925
1772525814742449400,7.626449462890625,-0.008019709028303623,0.01418538298457861,-0.0073550110682845116
1772525814752432600,7.6364326171875,-0.01001521572470665,0.0035159613471478224,-0.004807164892554283
1772525814762415400,7.646415283203125,-0.017182057723402977,-0.0007808397058397532,-0.00017776526510715485
1772525814772399400,7.6563994140625,-0.014602803625166416,-0.005831437185406685,0.0018690400756895542
1772525814782382600,7.666382568359375,-0.011722061783075333,-0.015765028074383736,-0.0027579362504184246
1772525814792365600,7.676365478515625,-0.009409166872501373,-0.010829715058207512,-0.0071409777738153934
1772525814802349600,7.686349609375,-0.015214592218399048,-0.0034602154046297073,-0.007010216359049082
1772525814812332500,7.69633251953125,-0.01825951226055622,0.0024301910307258368,-0.006520605646073818
1772525814822316300,7.70631640625,-0.022061707451939583,0.007109098602086306,-0.0020888391882181168
1772525814832299500,7.716299560546875,-0.024983983486890793,0.00781170092523098,-0.0005809874273836613
1772525814842282500,7.726282470703125,-0.022427350282669067,0.004175953101366758,0.0015604598447680473
1772525814852266500,7.7362666015625,-0.021135499700903893,0.0012981463223695755,0.008298479951918125
1772525814862249700,7.746249755859375,-0.01918793097138405,-0.015008388087153435,0.010843662545084953
1772525814872232400,7.756232421875,-0.020470187067985535,-0.02401801571249962,0.007523674517869949
1772525814882216400,7.766216552734375,-0.018260294571518898,-0.022836904972791672,-0.0032296376302838326
1772525814892199400,7.776199462890625,-0.017861265689134598,-0.0034972652792930603,-0.011351664550602436
1772525814902182700,7.7861826171875,-0.010666203685104847,0.015391737222671509,-0.014596992172300816
1772525814912166700,7.796166748046875,-0.0027466421015560627,0.02758093923330307,-0.011550694704055786
1772525814922149400,7.8061494140625,0.002659042365849018,0.025505803525447845,-0.007337840739637613
1772525814932132600,7.816132568359375,0.005606688559055328,0.005118830595165491,-0.0010242732241749763
1772525814942116600,7.82611669921875,0.007254919037222862,-0.008435327559709549,0.002072716597467661
1772525814952099600,7.836099609375,-0.0055395071394741535,-0.014569300226867199,-0.00014476897194981575
1772525814962082600,7.84608251953125,-0.018347980454564095,-0.017522478476166725,-0.008134252391755581
1772525814972066600,7.856066650390625,-0.030741000548005104,-0.00358269433490932,-0.02138587459921837
1772525814982049500,7.866049560546875,-0.03636426478624344,0.009150943718850613,-0.03914809226989746
1772525814992033500,7.876033447265625,-0.037565771490335464,0.017037421464920044,-0.04924808442592621
1772525815002016500,7.8860166015625,-0.03392336517572403,0.02068861573934555,-0.04794500023126602
1772525815011999500,7.89599951171875,-0.026023468002676964,0.027561232447624207,-0.03041146881878376
1772525815021983700,7.905983642578125,-0.014896249398589134,0.0234967153519392,-0.004530337173491716
1772525815031966500,7.915966552734375,-0.008985110558569431,0.008764942176640034,0.016003966331481934
1772525815041949400,7.925949462890625,0.003914709202945232,-0.009754147380590439,0.03308548033237457
1772525815051933400,7.935933349609375,0.009181991219520569,-0.0370088554918766,0.039802491664886475
1772525815061916700,7.945916748046875,0.0016969111748039722,-0.048700399696826935,0.04009623825550079
1772525815071899400,7.9558994140625,-0.006492507643997669,-0.05019452050328255,0.027333177626132965
1772525815081883400,7.96588330078125,-0.0168740414083004,-0.04407723993062973,0.009156037122011185
1772525815091866400,7.975866455078125,-0.027897663414478302,-0.018778011202812195,-0.0023011481389403343
1772525815101849600,7.985849609375,-0.03611138463020325,0.014200445264577866,-0.009744950570166111
1772525815111831600,7.99583154296875,-0.03717555105686188,0.04077249392867088,-0.011461157351732254
1772525815121814500,8.005814453125,-0.033055905252695084,0.05118758603930473,-0.009022766724228859
1772525815131798500,8.015798583984376,-0.022478776052594185,0.035654813051223755,-0.0014287433587014675
1772525815141781500,8.025781494140626,-0.013246661052107811,0.012828324921429157,0.00973735935986042
1772525815151764700,8.0357646484375,-0.003994314931333065,-0.01210477389395237,0.017706358805298805
1772525815161748700,8.045748779296876,0.004086780361831188,-0.026709550991654396,0.02646709233522415
1772525815171731700,8.055731689453125,0.009148048236966133,-0.028511893004179,0.030979152768850327
1772525815181714700,8.065714599609375,0.011682579293847084,-0.01599876582622528,0.0316726416349411
1772525815191698700,8.07569873046875,0.006453230045735836,0.0015504914335906506,0.027582760900259018
1772525815201681700,8.085681640625,0.0006970739923417568,0.012788765132427216,0.01459399051964283
1772525815211664600,8.09566455078125,-0.011504361405968666,0.025395309552550316,-0.0004209941253066063
1772525815221648600,8.105648681640625,-0.028767237439751625,0.014927487820386887,-0.012822802178561687
1772525815231632000,8.1156318359375,-0.035324130207300186,-0.002056051744148135,-0.032359909266233444
1772525815241616000,8.125615966796875,-0.038678113371133804,-0.020290182903409004,-0.05116315931081772
1772525815251598600,8.1355986328125,-0.040458593517541885,-0.02584068477153778,-0.05875604972243309
1772525815261581600,8.14558154296875,-0.036783963441848755,-0.016964368522167206,-0.05398339778184891
1772525815271565600,8.155565673828125,-0.03201944753527641,-0.0022843063343316317,-0.04257771372795105
1772525815281548800,8.165548828125,-0.02220197021961212,0.01211407408118248,-0.018774643540382385
1772525815291531800,8.17553173828125,-0.01200462318956852,0.01586320623755455,0.0006530405953526497
1772525815301515500,8.185515625,-0.00565777812153101,0.013403776101768017,0.004903179593384266
1772525815311498800,8.195498779296875,-0.0031289001926779747,-0.018260734155774117,-0.00011316174641251564
1772525815321481700,8.205481689453125,-0.01576133817434311,-0.036730021238327026,-0.011967690661549568
1772525815331465700,8.2154658203125,-0.022002989426255226,-0.038767073303461075,-0.028717907145619392
1772525815341448700,8.22544873046875,-0.03291076421737671,-0.02821136824786663,-0.04506146162748337
1772525815351431700,8.235431640625,-0.03735465183854103,-0.005946834105998278,-0.055718760937452316
1772525815361415700,8.245415771484375,-0.0317058227956295,0.012957880273461342,-0.06245468929409981
1772525815371398700,8.255398681640624,-0.02565966174006462,0.03019687533378601,-0.05616440623998642
1772525815381381600,8.265381591796874,-0.020928822457790375,0.031740978360176086,-0.044689908623695374
1772525815391366000,8.275365966796874,-0.008438031189143658,0.02351003885269165,-0.028198085725307465
1772525815401348600,8.2853486328125,0.0022058244794607162,0.008136408403515816,-0.000659402459859848
1772525815411332600,8.29533251953125,0.01510359812527895,-0.014030925929546356,0.01820838823914528
1772525815421315600,8.305315673828124,0.024990316480398178,-0.0277805607765913,0.034844622015953064
1772525815431298800,8.315298828125,0.03112376108765602,-0.026290876790881157,0.04239683970808983
1772525815441282800,8.32528271484375,0.02925235778093338,-0.019779980182647705,0.038946181535720825
1772525815451265500,8.335265625,0.0242295041680336,-0.009065191261470318,0.029765207320451736
1772525815461248500,8.34524853515625,0.018661368638277054,0.013078460469841957,0.025484176352620125
1772525815471232800,8.355232666015626,0.011319993063807487,0.02223014272749424,0.03342432156205177
1772525815481215700,8.3652158203125,-0.0009947288781404495,0.040802229195833206,0.056243617087602615
1772525815491200800,8.37520068359375,0.008517008274793625,0.059197425842285156,0.07568152248859406
1772525815501184800,8.385184814453124,0.020543843507766724,0.06355195492506027,0.09470181912183762
1772525815511167700,8.395167724609376,0.025300361216068268,0.03655156120657921,0.10363144427537918
1772525815521150500,8.405150390625,0.021615345031023026,0.0030679041519761086,0.10696358978748322
1772525815531134700,8.415134765625,0.022787319496273994,-0.0037878851871937513,0.09975884109735489
1772525815541117700,8.42511767578125,0.023047510534524918,0.008940692991018295,0.08420384675264359
1772525815551100700,8.4351005859375,0.023468725383281708,0.029491813853383064,0.06528094410896301
1772525815561084700,8.445084716796876,0.019769329577684402,0.0498221181333065,0.04608461260795593
1772525815571067600,8.455067626953126,0.011743222363293171,0.05305836349725723,0.021079540252685547
1772525815581050600,8.465050537109375,0.006760980002582073,0.06146543100476265,-0.003498772159218788
1772525815591034600,8.47503466796875,0.0036993250250816345,0.06447611004114151,-0.023268308490514755
1772525815601017600,8.485017578125,-0.00004454655572772026,0.061755962669849396,-0.03444160148501396
1772525815611000800,8.495000732421875,-0.0012713801115751266,0.05485200136899948,-0.0434429906308651
1772525815620984800,8.50498486328125,-0.0025307892356067896,0.04312264174222946,-0.048192206770181656
1772525815630967600,8.514967529296875,-0.005899738986045122,0.031520046293735504,-0.05790213122963905
1772525815640950800,8.52495068359375,-0.015504429116845131,0.027438485994935036,-0.06394404917955399
1772525815650934800,8.534934814453125,-0.023502787575125694,0.03717338293790817,-0.07087074220180511
1772525815660917800,8.544917724609375,-0.02739579603075981,0.04644118249416351,-0.06397368758916855
1772525815670901800,8.55490185546875,-0.02696658857166767,0.022780975326895714,-0.048659127205610275
1772525815680884500,8.564884521484375,-0.020979003980755806,0.0015119061572477221,-0.03127800673246384
1772525815690867700,8.57486767578125,-0.015627294778823853,-0.03506951406598091,-0.00806394498795271
1772525815700851700,8.584851806640625,-0.011840013787150383,-0.067410409450531,0.011233853176236153
1772525815710834700,8.594834716796875,-0.005073231179267168,-0.08475625514984131,0.015806857496500015
1772525815720818000,8.60481787109375,0.008325397968292236,-0.08497490733861923,-0.011862319894134998
1772525815730801700,8.6148017578125,0.0165131576359272,-0.03943401947617531,-0.06053253635764122
1772525815740784600,8.62478466796875,0.008846184238791466,0.03485618904232979,-0.131404310464859
1772525815750767600,8.634767578125,-0.0015279864892363548,0.10315661132335663,-0.213390052318573
1772525815760751600,8.644751708984375,-0.01028153020888567,0.16882750391960144,-0.2992096245288849
1772525815770734800,8.65473486328125,-0.008290836587548256,0.22361432015895844,-0.37824317812919617
1772525815780717600,8.664717529296874,-0.0008792588487267494,0.31311678886413574,-0.46013882756233215
1772525815790701600,8.67470166015625,-0.03982057794928551,0.37958380579948425,-0.47105878591537476
