time,seconds_elapsed,z,y,x
1772525974005734400,0.082734375,-1.4763181689530611,1.6985384861037134,-0.2695515387766063
1772525974015717400,0.09271728515625,-1.7642103971928358,1.7062682035729289,-0.49055166648253795
1772525974025701400,0.102701416015625,-1.914919429576397,1.6260937198787926,-0.6615843788400292
1772525974035684400,0.112684326171875,-1.9415859027057885,1.5094757576674223,-0.803606831420958
1772525974045668400,0.12266845703125,-1.8222925838053226,1.4232976496443153,-0.921161051569134
1772525974055651300,0.1326513671875,-1.5913842255473136,1.371569800494611,-1.0005275798812507
1772525974065634300,0.14263427734375,-1.244044952082634,1.3559446536004542,-1.0049434235621244
1772525974075618300,0.152618408203125,-0.7562345471322536,1.4097569078087806,-0.8994137685328721
1772525974085601300,0.162601318359375,-0.2608902395457029,1.4645198868706821,-0.6923753114882856
1772525974095585300,0.172585205078125,0.1544482189118862,1.4456652565360069,-0.4703917257029563
1772525974105568500,0.182568603515625,0.5091127206981182,1.3853247696027158,-0.2921932133693248
1772525974115551200,0.19255126953125,0.8055740398406982,1.2676374245941637,-0.18267529242150485
1772525974125535200,0.20253515625,1.0513929669827222,1.0947092538788914,-0.15445954402349887
1772525974135518200,0.212518310546875,1.2358148838758467,0.8893997395187616,-0.17337883709222077
1772525974145502200,0.222502197265625,1.3842664927214383,0.692525168287754,-0.20743914679996667
1772525974155485400,0.2324853515625,1.4797598338395357,0.5664192467629909,-0.3004280308164656
1772525974165468200,0.24246826171875,1.5324556512385605,0.45109658505916594,-0.37774887864515183
1772525974175452200,0.2524521484375,1.5994798537194728,0.3710398825258016,-0.38341209203861654
1772525974185435400,0.262435302734375,1.639438939142227,0.26471476626992224,-0.3038780982051045
1772525974195419400,0.27241943359375,1.6178174744427203,0.1492614639237523,-0.21769129541888832
1772525974205402400,0.28240234375,1.5906734469294548,0.0582014290779829,-0.18070048521719873
1772525974215385300,0.29238525390625,1.5316326444178818,0.0029278701454401013,-0.18932167163342237
1772525974225369000,0.302369140625,1.4281892210781573,-0.03534077797234058,-0.20020678439363837
1772525974235352300,0.312352294921875,1.2620821285545825,-0.06090016664266586,-0.16324498109072447
1772525974245336300,0.32233642578125,0.9805074128985405,-0.09253536809533834,-0.12565605886541306
1772525974255319300,0.3323193359375,0.6325514688402414,-0.15177198543995618,-0.10108772705905139
1772525974265302500,0.342302490234375,0.3287795344233513,-0.15705986271500585,-0.10050963491015136
1772525974275286500,0.35228662109375,0.10427753607630728,-0.10581833577752113,-0.1378890060380101
1772525974285269200,0.362269287109375,-0.0860258400708437,-0.04138941048681736,-0.217887694773823
1772525974295253200,0.372253173828125,-0.27172493729293345,0.022468729178607462,-0.31804219610337164
1772525974305236200,0.382236328125,-0.5883277117103338,0.007778817307949066,-0.40010527002308516
1772525974315219500,0.392219482421875,-1.0872264969080685,-0.049936874079704284,-0.48436318710595366
1772525974325203200,0.402203125,-1.634921753978729,-0.0677323507502675,-0.5871265192270279
1772525974335186200,0.412186279296875,-2.124165406602621,-0.04911854343414306,-0.6271917684379965
1772525974345169400,0.42216943359375,-2.474946929475665,-0.12721300598382948,-0.4550969067417085
1772525974355153400,0.4321533203125,-2.5168454585283992,-0.3100514530777931,-0.1762390670952387
1772525974365136400,0.442136474609375,-2.1609639821678397,-0.35116818410307166,-0.055168856449052686
1772525974375120400,0.452120361328125,-1.6674445519208907,-0.21613895141035316,-0.17579110413203014
1772525974385103000,0.46210302734375,-1.3633587292492388,-0.13442425253689289,-0.3952983811980113
1772525974395087400,0.47208740234375,-1.1796055053979158,-0.12135434308350085,-0.606476714526303
1772525974405070300,0.4820703125,-0.9937111778646707,-0.07927811937630176,-0.7127849892452359
1772525974415053300,0.49205322265625,-0.7645037783056498,-0.04236205491125583,-0.7127388120159507
1772525974425037300,0.502037353515625,-0.4941805245041847,0.03532061196714639,-0.6827192290663718
1772525974435020300,0.512020263671875,-0.2046983967244625,0.22168080344647167,-0.6507298804137855
1772525974445004300,0.52200439453125,0.04139642474949359,0.41096798828840253,-0.6060292264871299
1772525974454987300,0.5319873046875,0.12056640757620334,0.5071498961925506,-0.5277027087472379
1772525974464970200,0.54197021484375,0.07891571580469608,0.4167641073465347,-0.45485834874548015
1772525974474954200,0.551954345703125,-0.0011257891595363616,0.27458529516011476,-0.41513964794985947
1772525974484937200,0.561937255859375,-0.04999591079056263,0.16202976008206604,-0.41971360480189324
1772525974494921200,0.571921142578125,-0.003062310180068016,0.07858341511040925,-0.44952312519736587
1772525974504904200,0.581904296875,0.2071767695367336,-0.0012689970225095747,-0.4748134511353448
1772525974514887400,0.591887451171875,0.5379413402974605,-0.13074410271942616,-0.4634512589152902
1772525974524871400,0.601871337890625,0.8881500317186116,-0.3055772302731871,-0.4533110827708617
1772525974534854100,0.611854248046875,1.2272200740098953,-0.43335809927284713,-0.5501783791232854
1772525974544837000,0.621837158203125,1.5789707341760395,-0.49158378600925207,-0.7086901211470366
1772525974554821400,0.6318212890625,1.9344857153117656,-0.6031394963949919,-0.8138194517470896
1772525974564804400,0.641804443359375,2.229312126728892,-0.7061576800599694,-0.8371969663336872
1772525974574788400,0.651788330078125,2.37846048566699,-0.8118830768570303,-0.778894561099261
1772525974584771300,0.661771240234375,2.3284312571287153,-0.8538711838893592,-0.7523838630534708
1772525974594755000,0.671755126953125,2.0615525908231733,-0.7675275100409984,-0.7295711427427828
1772525974604738300,0.68173828125,1.6419564749211073,-0.5846501922413706,-0.6657144643820821
1772525974614721300,0.69172119140625,1.0283844318389892,-0.39590208271220323,-0.5784081560466439
1772525974624705300,0.701705322265625,0.3962468044966459,-0.19471286315247416,-0.4304838590107858
1772525974634688300,0.711688232421875,-0.2078524768412113,-0.014424100541323422,-0.25985112402262167
1772525974644672500,0.721672607421875,-0.7077671610832214,0.16109320988431572,-0.07454775725300423
1772525974654655200,0.7316552734375,-1.041376599881053,0.3051974371753633,0.08862911790441722
1772525974664638200,0.74163818359375,-1.2767618112921715,0.41473713156357406,0.19475135026564822
1772525974674622200,0.751622314453125,-1.4244143787145613,0.4416067260496318,0.2898464493137784
1772525974684605400,0.76160546875,-1.526820860221982,0.40967677943408487,0.36425789423547683
1772525974694588200,0.771588134765625,-1.5523030920028686,0.3454404541060328,0.3831641816921532
1772525974704572200,0.781572265625,-1.4380325697004794,0.2776148721143603,0.4367033545801416
1772525974714555100,0.79155517578125,-1.2577706950962542,0.21560148353278635,0.5016977317338809
1772525974724539400,0.801539306640625,-1.042769515544176,0.19107669860720633,0.542378299831599
1772525974734522400,0.8115224609375,-0.7912053227484226,0.19446166487038136,0.4870360230443999
1772525974744506400,0.82150634765625,-0.5750035352349281,0.25784312693476674,0.367710153581202
1772525974754489000,0.831489013671875,-0.48176878669857975,0.24619360567331314,0.22495472881691528
1772525974764472300,0.841472412109375,-0.4931652099817991,0.22374781897887586,0.10465851648421957
1772525974774456300,0.851456298828125,-0.5329354948341846,0.2656535084247589,0.008720810865797101
1772525974784439300,0.861439208984375,-0.6156722302317619,0.31277050277814267,-0.07588054935988038
1772525974794423300,0.87142333984375,-0.6715180360943078,0.3621352760583162,-0.11454692809097468
1772525974804406500,0.881406494140625,-0.7316869658529758,0.40255920251384375,-0.08900076422840357
1772525974814389200,0.89138916015625,-0.8065332402616738,0.41645796400681134,-0.054388994650356466
1772525974824373200,0.901373291015625,-0.7948229287236929,0.41932986618131396,-0.02333477142341435
1772525974834356200,0.911356201171875,-0.6572901887774467,0.37379897197559475,0.039544549805112184
1772525974844340200,0.92134033203125,-0.4463455911397934,0.2477779522553086,0.0959524099972099
1772525974854323500,0.931323486328125,-0.18597791416347026,0.11187734355553984,0.11766184524111449
1772525974864306200,0.94130615234375,0.11453881784975528,-0.006593991437554359,0.10980287536904215
1772525974874290200,0.951290283203125,0.3876256911456585,-0.12229425428211688,0.056313204178586596
1772525974884273400,0.9612734375,0.613709990248084,-0.2363048104740679,-0.027416049387678502
1772525974894257400,0.97125732421875,0.758145349189639,-0.3508855677694082,-0.1184902588892728
1772525974904240400,0.981240478515625,0.8684346929013729,-0.4849931555725634,-0.19459332842603325
1772525974914223000,0.99122314453125,0.9928086760669946,-0.5895861873388291,-0.24853417745009063
1772525974924207000,1.00120703125,1.0544511855095624,-0.7088422429688275,-0.2739828722875565
1772525974934190300,1.0111904296875,1.076844803625345,-0.8362620235711336,-0.31356925194039936
1772525974944174300,1.02117431640625,1.1375544161319733,-0.9101718939125537,-0.3636873278059065
1772525974954157300,1.0311572265625,1.19282037627995,-0.9605109190523624,-0.4250182870812714
1772525974964140300,1.041140380859375,1.189392739918828,-1.035852283501625,-0.47441959297955033
1772525974974124300,1.051124267578125,1.156370760282874,-1.1418021367043256,-0.5303408021658659
1772525974984107300,1.061107177734375,1.1027589970827103,-1.2021359016358852,-0.5916580251768231
1772525974994091300,1.07109130859375,1.043351699346304,-1.225161680175364,-0.6831652923334389
1772525975004074200,1.08107421875,0.963335328823328,-1.223167876009643,-0.7663700105689466
1772525975014057500,1.091057373046875,0.9039537500500678,-1.1615689134478568,-0.8465833649687469
1772525975024041200,1.101041259765625,0.8621803086817265,-1.0735025074601172,-0.8826149016842245
1772525975034024200,1.111024169921875,0.7797919483304023,-0.9623217678666114,-0.8809301634676754
1772525975044008200,1.12100830078125,0.6786673233270645,-0.8264251046895981,-0.8148007178694009
1772525975053991400,1.130991455078125,0.5855594160407781,-0.6735501264438033,-0.7160218522746116
1772525975063974400,1.140974365234375,0.47377428081333633,-0.5280921464562416,-0.5561167561963201
1772525975073958400,1.15095849609375,0.25622809295356275,-0.443640131573379,-0.40849480310790237
1772525975083941000,1.160941162109375,-0.03239595669209957,-0.3248155992284417,-0.3164512371174991
1772525975093925000,1.170925048828125,-0.3022942630797624,-0.27931144689917564,-0.19668569759540258
1772525975103908400,1.180908447265625,-0.5617091693758964,-0.3246267986580729,-0.05124203839413821
1772525975113891300,1.190891357421875,-0.7960960173994303,-0.3563637069195509,-0.022415537686645982
1772525975123875300,1.200875244140625,-0.9622294134080409,-0.3207359286993742,-0.175479827959463
1772525975133858300,1.2108583984375,-1.1273954256892205,-0.31398820800483224,-0.38463615394085643
1772525975143842300,1.22084228515625,-1.2398270421266555,-0.3561450957328081,-0.5073671922050416
1772525975153825300,1.2308251953125,-1.3267197281599044,-0.39597032564282414,-0.5885392355691641
1772525975163808300,1.240808349609375,-1.3800772243380546,-0.3633294542789459,-0.6713401222441345
1772525975173792300,1.250792236328125,-1.3516402344048022,-0.26899755815565585,-0.7205336306106299
1772525975183775200,1.260775146484375,-1.2255518485367298,-0.18076456342935562,-0.6894322437737137
1772525975193759200,1.27075927734375,-1.021961705315113,-0.1022293713748455,-0.5583499951411038
1772525975203742200,1.2807421875,-0.7756944498836994,-0.03455196568220854,-0.42803091290071604
1772525975213725400,1.290725341796875,-0.548362196546793,0.05720540377795696,-0.2905971763495356
1772525975223709400,1.30070947265625,-0.36343642178475855,0.11893968315720557,-0.12718662943355738
1772525975233692400,1.3106923828125,-0.21196751094460486,0.15292553938925266,0.040631943183019756
1772525975243676200,1.32067626953125,-0.12111059745550155,0.14938421352058648,0.1068739823102951
1772525975253659100,1.3306591796875,-0.10347031134665012,0.12339812387079,-0.025067367369681594
1772525975263642400,1.340642333984375,-0.08680208514034747,0.06978811423629522,-0.3025938305482268
1772525975273626400,1.35062646484375,-0.04894318686723709,0.02515139239132404,-0.5972430587675422
1772525975283609300,1.360609375,-0.006102408528327941,0.007418459562957286,-0.7952853586036711
1772525975293593300,1.37059326171875,0.019260580787062644,-0.0038300796821713447,-0.9104616706393659
1772525975303576300,1.380576416015625,0.017971710020303726,-0.010279401952028274,-0.9078828331273049
1772525975313559300,1.390559326171875,-0.010103460863232612,0.06105214233398437,-0.8156783774867653
1772525975323543300,1.400543212890625,-0.030197569864988325,0.2001996240004897,-0.6311482509788126
1772525975333526300,1.4105263671875,0.001648351728916168,0.35697716264277696,-0.34774142452478407
1772525975343510300,1.42051025390625,0.06747136172652245,0.46775107500106095,0.020517083654180167
1772525975353493200,1.4304931640625,0.22440847484469412,0.5239224595561623,0.42774895415417846
1772525975363476200,1.440476318359375,0.48291094247102734,0.5797524833276868,0.7838435618087649
1772525975373460200,1.450460205078125,0.7999509392619133,0.6204580032035708,1.0579737336125223
1772525975383443500,1.460443359375,1.098417753008008,0.5793082466915249,1.262766019165516
1772525975393427500,1.470427490234375,1.2527870614647865,0.4878451840028166,1.3425535493686795
1772525975403410200,1.48041015625,1.2870020502775907,0.36832273252159353,1.3302668992474675
1772525975413393200,1.49039306640625,1.2031605685085058,0.28024229800850153,1.2533783053562044
1772525975423377200,1.500377197265625,1.0601257240146398,0.24409487982839345,1.139851367962733
1772525975433360400,1.5103603515625,0.8396744623631238,0.16112521245777606,1.03094514917247
1772525975443344400,1.520344482421875,0.6134592303574085,0.1028545175358653,0.9709827748365699
1772525975453327000,1.5303271484375,0.4258183514177799,0.10782704525142907,0.9582519611444323
1772525975463310300,1.540310302734375,0.23613223038613795,0.16565701066851615,0.9566752133470028
1772525975473294300,1.55029443359375,0.04028057246208191,0.24658786568790672,0.9668004476506262
1772525975483277300,1.56027734375,-0.16588380516171455,0.34177667090147734,0.9776060654338449
1772525975493261300,1.57026123046875,-0.35834406708180905,0.43957273600399493,0.9479369033571332
1772525975503244300,1.580244384765625,-0.5377794277340173,0.5100833192959427,0.9031324237298219
1772525975513228300,1.590228271484375,-0.6681523590534925,0.5829463109329343,0.8627043325558305
1772525975523211300,1.600211181640625,-0.7310586048215627,0.6481926900863647,0.8160906115494668
1772525975533194200,1.6101943359375,-0.7182920622289181,0.7005792954057455,0.7787528876062482
1772525975543178200,1.62017822265625,-0.6401829866319895,0.7350260471478104,0.7293379185087978
1772525975553161500,1.630161376953125,-0.4521621684640646,0.7163298222452402,0.6716331869065761
1772525975563144200,1.640144287109375,-0.1776543224543333,0.6511413107588887,0.6024150545779615
1772525975573128200,1.650128173828125,0.12760054399669168,0.6040317690595984,0.5167551252100616
1772525975583111200,1.660111083984375,0.4451315391749143,0.5507835784748196,0.47003608066570013
1772525975593095400,1.670095458984375,0.7510171047449111,0.4957739311754703,0.47089781206157055
1772525975603078400,1.680078369140625,1.029416112974286,0.45102381208389997,0.47079442475233224
1772525975613062400,1.6900625,1.2894459362983703,0.4328323218330741,0.43481896560564637
1772525975623045000,1.700045166015625,1.5060101273834705,0.39871640948057174,0.39481067074630405
1772525975633028400,1.7100283203125,1.7023638896107673,0.3359942881077528,0.4015331108691171
1772525975643012400,1.720012451171875,1.9052537756085395,0.2729612010896206,0.4280359544020146
1772525975652995300,1.729995361328125,2.0713485931724307,0.23395079469382762,0.46392358913477505
1772525975662979300,1.739979248046875,2.1694167532145974,0.17034136909246445,0.5086532864928245
1772525975672962300,1.74996240234375,2.1492554241955277,0.0865937030866742,0.5261190197523683
1772525975682945300,1.7599453125,2.010765821915865,0.050420858204364774,0.5078581175271422
1772525975692929300,1.76992919921875,1.7473025170117615,0.14082126009762286,0.4361758601073175
1772525975702912300,1.779912353515625,1.3394634743988514,0.30478198824226854,0.3753905520159751
1772525975712896300,1.789896240234375,0.7581681455433368,0.4565197791516781,0.3980169194417074
1772525975722879500,1.79987939453125,0.027678865042328832,0.5602917037934064,0.41618115635942665
1772525975732862200,1.8098623046875,-0.7951262955844401,0.5638678087145089,0.4432515341145917
1772525975742846200,1.81984619140625,-1.6490473099648952,0.4434948778837919,0.49590588699206706
1772525975752829400,1.829829345703125,-2.4943384431660176,0.21323855379372833,0.48509961162172255
1772525975762813400,1.8398134765625,-3.08880421923995,0.03231938432455063,0.246669059431646
1772525975772796400,1.84979638671875,-3.317757936298847,0.049722354546189305,-0.2673090205468237
1772525975782779100,1.859779052734375,-3.255935394114256,0.07102087090164423,-0.8279463229075074
1772525975792763100,1.86976318359375,-3.0015415308505293,-0.014755378322303295,-1.1323686840571463
1772525975802746400,1.879746337890625,-2.6120611517488954,-0.1253220776706934,-1.1691969241082667
1772525975812730400,1.88973046875,-2.112533420997858,-0.1529381066098809,-1.1051854935772716
1772525975822713300,1.89971337890625,-1.6146575491070747,-0.10546557681709527,-1.082494207689166
1772525975832696300,1.9096962890625,-1.2971335681915281,-0.013466799816489218,-1.1655850902866571
1772525975842680300,1.919680419921875,-1.1463450408309697,0.02270925993621349,-1.2456257915332913
1772525975852663300,1.929663330078125,-1.0372422765552998,0.050043549324572084,-1.290191640099138
1772525975862647300,1.939647216796875,-0.8833990377992391,0.05903057337850332,-1.3177538930244743
1772525975872630300,1.94963037109375,-0.7188689853340386,0.0344599034845829,-1.345193542483449
1772525975882613200,1.95961328125,-0.5423574031740427,-0.0074377487853169435,-1.3844539781175553
1772525975892597200,1.96959716796875,-0.35244331860542294,-0.014088731107115745,-1.4493584119655192
1772525975902580200,1.979580322265625,-0.14495266081392763,-0.018069909697771072,-1.492040054219961
1772525975912564200,1.989564208984375,0.07496843948364257,-0.022266484604775906,-1.5026283759906887
1772525975922547500,1.99954736328125,0.2705330971598625,-0.019052198733389376,-1.4707356926456092
1772525975932531500,2.009531494140625,0.47752574230134487,-0.008185352282226084,-1.3887731564909218
1772525975942514200,2.01951416015625,0.6552601442545652,0.038618776729702944,-1.2896047801218926
1772525975952497200,2.0294970703125,0.8638169699728488,0.0966895651653409,-1.1572992733046412
1772525975962481200,2.039481201171875,1.0276227998167276,0.1366021810978651,-1.015308604101464
1772525975972464400,2.04946435546875,1.1662304755181074,0.18922113386839626,-0.8551694800715893
1772525975982448400,2.059448486328125,1.2602671880871057,0.24048867202997207,-0.7291101741675287
1772525975992431400,2.069431396484375,1.2939274656265973,0.27375001337975263,-0.6455851379364729
1772525976002414300,2.079414306640625,1.2468150013178587,0.25164427229464054,-0.5997928893808275
1772525976012398300,2.0893984375,1.1094798297703266,0.14647358677089214,-0.5878253151461482
1772525976022381300,2.09938134765625,0.920050313848257,0.014223755663633346,-0.5986478109989315
1772525976032365300,2.109365234375,0.6696288613468409,-0.09624825113862752,-0.6771179019279777
1772525976042348300,2.119348388671875,0.42990766655802726,-0.16765402970463036,-0.7784113806921988
1772525976052331300,2.129331298828125,0.36842531611323354,-0.1702040064483881,-0.8666177796725183
1772525976062315300,2.139315185546875,0.45390579726099967,-0.20644524039179085,-0.9134847447875887
1772525976072298200,2.14929833984375,0.5648714327991008,-0.344589682495594,-0.8945490851059555
1772525976082282200,2.1592822265625,0.7546329571545124,-0.49352001476883883,-0.8705202670037746
1772525976092265500,2.169265380859375,0.9542337384790182,-0.6019190146893263,-0.8873482868816703
1772525976102248200,2.179248291015625,1.1077940686404704,-0.6548179534450173,-0.9265118380125611
1772525976112232200,2.189232177734375,1.121277235069871,-0.6315627500638366,-0.9014780075863004
1772525976122215200,2.199215087890625,0.986599300032854,-0.5831482632458209,-0.8245819610409438
1772525976132199200,2.20919921875,0.7959089703947305,-0.4501505363807082,-0.724199021250382
1772525976142182400,2.219182373046875,0.6357230846136808,-0.3056619859471917,-0.6062683690052479
1772525976152165000,2.2291650390625,0.5204115288257598,-0.19383008896857498,-0.47532509045191107
1772525976162149000,2.239149169921875,0.4814806174069643,-0.11175035617500544,-0.3080921357035637
1772525976172132400,2.24913232421875,0.5065162744641304,-0.1062839074626565,-0.17066007965281604
1772525976182116400,2.259116455078125,0.534962032225728,-0.17066402517557144,-0.022947160345315933
1772525976192099300,2.269099365234375,0.5865338140308857,-0.27316695279479025,0.07703611260317265
1772525976202083300,2.279083251953125,0.653679012542963,-0.3831795253917575,0.10669044243693351
1772525976212066000,2.289066162109375,0.7796306202888489,-0.4755944819778204,0.12463840625546872
1772525976222049300,2.29904931640625,0.9358762440115213,-0.5494987993612885,0.14506678871288894
1772525976232033300,2.309033203125,1.1182651937723158,-0.6222334884434938,0.1592757851988077
1772525976242016300,2.319016357421875,1.3045254320085047,-0.7199307693466543,0.16623101116418837
1772525976252000300,2.329000244140625,1.4497230074942111,-0.8127087140262127,0.15542013268396257
1772525976261983500,2.3389833984375,1.5102870740503072,-0.9040940353035927,0.14399689445905386
1772525976271966200,2.34896630859375,1.471991537925601,-1.03689653185755,0.08825506042763591
1772525976281950200,2.3589501953125,1.3678537025809288,-1.128405187253654,-0.00014240414537489414
1772525976291933200,2.36893310546875,1.2703273943305016,-1.159253914503753,-0.15343582699894903
1772525976301917400,2.37891748046875,1.2291904973000287,-1.142234098380804,-0.319592530817911
1772525976311900400,2.388900390625,1.2912988706886768,-1.1213070456862448,-0.4702007331755012
1772525976321883100,2.398883056640625,1.3333961371839045,-1.1411273061826825,-0.5861664420232177
1772525976331867000,2.408866943359375,1.264410863763094,-1.1687018340677022,-0.7008844888973981
1772525976341849900,2.418849853515625,0.9447054471552372,-1.24302613042891,-0.8474949999209493
1772525976351833900,2.428833740234375,0.33181261850893495,-1.3259218557804822,-1.002820951515436
1772525976361816800,2.43881689453125,-0.48856093105673787,-1.3122718083515763,-1.1148456676524132
1772525976371800000,2.448800048828125,-1.3310387604027987,-1.1870321482673287,-1.093808067255467
1772525976381784000,2.4587841796875,-2.139216260740161,-0.9825815888240933,-0.9454176140125841
1772525976391767000,2.46876708984375,-2.7680595227122304,-0.8217230644784868,-0.5200019981767982
1772525976401750800,2.478750732421875,-3.157758513000607,-0.8001790489293634,0.09899886502102016
1772525976411733800,2.488733642578125,-3.3628099609464406,-0.6800716371670364,0.679667367215082
1772525976421717800,2.4987177734375,-3.3084166919797657,-0.597123450975865,1.1657570858526973
1772525976431701000,2.508700927734375,-3.015910832464695,-0.6447488332428037,1.535543095859885
1772525976441684000,2.51868408203125,-2.5568209105640647,-0.8099060776956379,1.7817945692002772
1772525976451668000,2.52866796875,-2.0159289037674664,-0.9522982403717934,1.8109788703694938
1772525976461651000,2.53865087890625,-1.503093947675824,-0.9643094345524906,1.5896858971968293
1772525976471635000,2.548635009765625,-1.0914005677223204,-0.8852677542805671,1.1837586795546113
1772525976481618000,2.558617919921875,-0.891036400809884,-0.8109842283211648,0.698301121340692
1772525976491601000,2.568600830078125,-0.9211761030077934,-0.7918065035119652,0.2157502443537116
1772525976501585000,2.5785849609375,-1.167130054706335,-0.7549046137027442,-0.24332922921814024
1772525976511568000,2.58856787109375,-1.6191162820816039,-0.6740193513907492,-0.6782543586120009
1772525976521552000,2.5985517578125,-2.0725264047801493,-0.5026147369809448,-1.0236292001359164
1772525976531534800,2.608534912109375,-2.4351520947039127,-0.3220904120482504,-1.1973236059833317
1772525976541518000,2.61851806640625,-2.6752047134041783,-0.21547318097800014,-1.1351871755439786
1772525976551502000,2.628502197265625,-2.6800685200482603,-0.11621230401992798,-0.9094264823727309
1772525976561484800,2.63848486328125,-2.4105583361953498,0.0943348187327385,-0.6151242409601807
1772525976571468800,2.64846875,-1.9137492167532444,0.3263965848095715,-0.3272971138458699
1772525976581451800,2.65845166015625,-1.2879635887861252,0.5039113526627421,-0.0448285911552608
1772525976591436000,2.66843603515625,-0.6563824262827634,0.6635425271704792,0.20858437131233512
1772525976601419000,2.6784189453125,-0.05699965207278728,0.8569473764643073,0.37363895910829303
1772525976611402000,2.688402099609375,0.43424248089194295,1.0074658547118305,0.47637620694003996
1772525976621385700,2.6983857421875,0.756998517242074,1.066393552237749,0.5637383371159433
1772525976631369000,2.708368896484375,1.0324942052453756,1.0332575908333061,0.5927374909766018
1772525976641353000,2.71835302734375,1.278038407099247,0.9367743618950247,0.5695106369070708
1772525976651336000,2.7283359375,1.4958943915605545,0.7792746464580297,0.5080412920743227
1772525976661319000,2.73831884765625,1.6605319960534572,0.6337246042728424,0.39401802253127094
1772525976671303000,2.748302978515625,1.7533885589271783,0.5139321036785841,0.25937420895956453
1772525976681286000,2.758285888671875,1.8074504039824009,0.3811889360964298,0.17100078284926712
1772525976691270000,2.768269775390625,1.8183745335787533,0.24097937815636394,0.11259594015367329
1772525976701252900,2.7782529296875,1.7849217613101005,0.15063129097223282,0.1164629177801311
1772525976711236000,2.788236083984375,1.6337866124689577,0.08219371456205844,0.1298089407611638
1772525976721220000,2.79822021484375,1.3815502195000648,0.08415829263329505,0.11486293523758649
1772525976731202800,2.808202880859375,1.0550275240927933,0.20522037477195262,0.05967705458849668
1772525976741186800,2.818186767578125,0.6826619459211826,0.3688780283167958,-0.022344737472757698
1772525976751169800,2.828169677734375,0.2765881594151258,0.510523172017932,-0.06965053239651024
1772525976761154000,2.838154052734375,-0.13699147267639636,0.6453931224957108,-0.08768179058432579
1772525976771137000,2.848136962890625,-0.5239321041673421,0.8011158913880586,-0.10311360686346888
1772525976781119700,2.85811962890625,-0.7795622312277555,0.9746619017407298,-0.10011603248268365
1772525976791103700,2.868103759765625,-0.8781003468692302,1.1355082972571253,-0.022746011750027537
1772525976801087000,2.8780869140625,-0.8458692253500223,1.2377350382834673,0.1120344338133931
1772525976811071000,2.888071044921875,-0.6339367857187986,1.3030924765959382,0.26442842360921204
1772525976821054000,2.898053955078125,-0.22596330307126045,1.3115724279105663,0.3827748901136219
1772525976831037000,2.908036865234375,0.24108956053256986,1.2270876798018813,0.4796078092724085
1772525976841021000,2.91802099609375,0.6902981398880481,1.0637290092036127,0.5111734526202082
1772525976851004000,2.92800390625,1.0946341428160666,0.8771838165462017,0.4536340676475316
1772525976860988000,2.93798779296875,1.4355740706324576,0.6934878758400678,0.31042912728376687
1772525976870971000,2.947970947265625,1.7571411894589661,0.5863911906898022,0.10950162740014492
1772525976880954000,2.9579541015625,2.1308505834549663,0.5358768089830875,-0.1089202473156154
1772525976890937900,2.967937744140625,2.4627497112035748,0.42788025238364935,-0.28657325459569694
1772525976900920800,2.9779208984375,2.6638603125691414,0.2784106986671686,-0.4362169958353042
1772525976910904800,2.98790478515625,2.7232623496085404,0.1061908223517239,-0.5798663189657032
1772525976920888000,2.99788818359375,2.6560487620353697,0.009268325213342905,-0.688464056328684
1772525976930871000,3.00787109375,2.4502251606732606,-0.0590999853529036,-0.723541945581138
1772525976940855000,3.01785498046875,2.1225100406110284,-0.1573984470196068,-0.6560324438013136
1772525976950837800,3.027837646484375,1.7252993595182895,-0.25369404443129895,-0.5342613366104663
1772525976960821800,3.03782177734375,1.2526046906352042,-0.3117177788548171,-0.40701282092183827
1772525976970805000,3.047804931640625,0.7632277670204639,-0.32798546143621204,-0.30305560284107924
1772525976980789000,3.0577890625,0.32029870632588864,-0.27439532554596663,-0.22738047639280556
1772525976990772000,3.06777197265625,0.025661095479130744,-0.16997691969424486,-0.21430618302524088
1772525977000755000,3.0777548828125,-0.09392799149751663,-0.08173121161684394,-0.15198840466961264
1772525977010739000,3.087739013671875,-0.12724515468776226,-0.04401303698867559,-0.026128128468990323
1772525977020722000,3.097721923828125,-0.11280454140305518,-0.005607903009653091,0.06775806971341371
1772525977030706000,3.107705810546875,-0.13472937296330928,0.05238645918890834,0.15467077562138437
1772525977040689000,3.11768896484375,-0.2892822212934494,0.1319441261589527,0.22618922078162432
1772525977050671900,3.127671875,-0.5707599063158035,0.23355668080970643,0.32787674036473036
1772525977060655900,3.13765576171875,-0.8766267671853304,0.34196123368814585,0.46978258082866664
1772525977070638800,3.147638916015625,-1.202216565656662,0.42232451795265075,0.6553671117603779
1772525977080622800,3.157622802734375,-1.5322171663075685,0.49359424904882904,0.837090802545473
1772525977090606000,3.167606201171875,-1.8073042735099791,0.5219106813423335,0.9333196913965046
1772525977100588800,3.1775888671875,-1.9754022475898265,0.35991467739939687,1.0501080417387187
1772525977110572800,3.18757275390625,-1.9281179338455199,-0.030156214941293,1.0973210438124834
1772525977120555800,3.1975556640625,-1.7143810751408337,-0.2821380486272275,0.8183504462402313
1772525977130539800,3.207539794921875,-1.5896686538010836,-0.31745193859264254,0.4173782206568867
1772525977140523000,3.21752294921875,-1.554732364976406,-0.37604806607663627,0.17784356141611932
1772525977150507000,3.227507080078125,-1.4907120204865931,-0.5114883637882769,0.13629209223538635
1772525977160489700,3.23748974609375,-1.2945055577754974,-0.5058611715562641,0.09961780063696205
1772525977170473000,3.247472900390625,-1.0519085152894259,-0.4053657843671739,0.015100465432927012
1772525977180457000,3.25745703125,-0.7721791352391243,-0.3555969603307545,-0.06835800836794077
1772525977190440000,3.26743994140625,-0.48936289508938785,-0.3656234104350209,-0.08665062090568244
1772525977200424000,3.277423828125,-0.21332418625056743,-0.43143063834160567,-0.07094459079504013
1772525977210407000,3.287406982421875,0.020049100816249846,-0.5062345349133014,-0.07034742861948907
1772525977220390000,3.297389892578125,0.17469781073629856,-0.5763301076635718,-0.08797134811542928
1772525977230374000,3.307373779296875,0.22750468729436396,-0.6099921387687325,-0.04918408295102417
1772525977240356900,3.31735693359375,0.18585224195718764,-0.5867956798374653,0.047853638064861294
1772525977250340900,3.3273408203125,-0.0034960254222154616,-0.5168978216163814,0.133933546410501
1772525977260324000,3.337323974609375,-0.3275391789734363,-0.39965690520107744,0.14099603214263914
1772525977270308000,3.34730810546875,-0.6789397105276584,-0.24101927177533505,0.13225984104461966
1772525977280290800,3.357290771484375,-1.0322609810113905,-0.0808601278707385,0.205522718719393
1772525977290273800,3.367273681640625,-1.2885615546792746,0.06324687589928507,0.37667226238958534
1772525977300258000,3.377258056640625,-1.3624731785863637,0.1974910956941545,0.6121124188583343
1772525977310241000,3.387240966796875,-1.1954852115750312,0.30939488886520267,0.8130651262484491
1772525977320225000,3.39722509765625,-0.7941723558604716,0.3826093242883682,0.8724084188379346
1772525977330207500,3.40720751953125,-0.300286430388689,0.4339702398218214,0.873698823974654
1772525977340190700,3.417190673828125,0.14125029916465281,0.4533958019122481,0.8124763665750623
1772525977350174500,3.427174560546875,0.4933218618482351,0.44106896591112016,0.7479014569424093
1772525977360157400,3.437157470703125,0.7320289111584425,0.36881431543081994,0.7194730887070298
1772525977370141400,3.447141357421875,0.7967495128720998,0.2623497907042503,0.6555562045916915
1772525977380124700,3.457124755859375,0.7339502346098422,0.2297495436117053,0.49861079856920987
1772525977390107600,3.467107666015625,0.6298112302213907,0.31348171978741884,0.23238880607411264
1772525977400091600,3.477091552734375,0.4964882169246673,0.411681397254765,-0.014174473161809146
1772525977410074400,3.487074462890625,0.2772942618578672,0.45795302682518957,-0.13820051967259495
1772525977420058400,3.497058349609375,-0.010906009417772292,0.5309606876298785,-0.1813386917891912
1772525977430041600,3.50704150390625,-0.2914385225445032,0.6712555857658385,-0.16634630810692905
1772525977440024600,3.517024658203125,-0.5635130039274692,0.7706538253679871,-0.10868883144622668
1772525977450008600,3.527008544921875,-0.7232862172544002,0.8687427359372377,-0.009183459941484033
1772525977459991600,3.536991455078125,-0.706525636589527,1.0147226939722895,0.11110961058605462
1772525977469975600,3.5469755859375,-0.5472480978250504,1.1268982898220419,0.24996221922552211
1772525977479958500,3.55695849609375,-0.270058465385437,1.1547829065695405,0.39002581108994777
1772525977489942500,3.566942626953125,0.0908271028727293,1.102830308753252,0.46223764534182843
1772525977499925500,3.576925537109375,0.4854962827891111,0.9957403456047177,0.43085079262703657
1772525977509908500,3.586908447265625,0.8559528124690056,0.8024050544157624,0.31463571212813257
1772525977519892500,3.596892578125,1.1573194393098354,0.6121595459356903,0.18745573163107038
1772525977529875500,3.60687548828125,1.4140630805701015,0.44470162332504987,0.04890464495513588
1772525977539859500,3.616859375,1.5810937176793813,0.27517390870302916,-0.05509005559179932
1772525977549842700,3.6268427734375,1.6773329087287188,0.12510785039812325,-0.156717150224559
1772525977559825700,3.63682568359375,1.736052224200964,-0.0047369653940200806,-0.21574049014467744
1772525977569809400,3.646809326171875,1.7759096028149126,-0.12103519413173199,-0.25894969993717964
1772525977579792400,3.65679248046875,1.8611451692909,-0.21740648712813854,-0.2728635128688067
1772525977589776600,3.666776611328125,1.919561117902398,-0.3013885464116931,-0.26658198491390794
1772525977599759600,3.676759521484375,1.8571967239260672,-0.4252110331743955,-0.23154840972721574
1772525977609743600,3.68674365234375,1.7131208459466696,-0.5511141256034374,-0.20479243168346584
1772525977619726600,3.6967265625,1.5655787531614302,-0.5971788344249129,-0.2134057635867968
1772525977629709600,3.70670947265625,1.4505524440556763,-0.6195654382780194,-0.21042846480906008
1772525977639693600,3.716693603515625,1.3611065664082764,-0.6680445147648454,-0.1744800397997722
1772525977649676500,3.726676513671875,1.274867960369587,-0.7191635843664407,-0.14621581261754035
1772525977659660500,3.73666064453125,1.174065991449356,-0.7443190684109926,-0.16477675723526625
1772525977669643500,3.7466435546875,1.0410381617069244,-0.8125149450197815,-0.19353841254562137
1772525977679626500,3.75662646484375,0.863932120785117,-0.892272956867516,-0.2612695577194914
1772525977689610500,3.766610595703125,0.6595949585884809,-0.9068541476666927,-0.3320437603836879
1772525977699593500,3.776593505859375,0.4937245974302292,-0.8603916716992854,-0.31317743961121886
1772525977709577500,3.786577392578125,0.3567717031985521,-0.8175555695354938,-0.16834986648168415
1772525977719560700,3.796560791015625,0.22659049505889414,-0.8043532658740877,0.0897362388961017
1772525977729543400,3.80654345703125,0.10713175646364688,-0.7711769724592566,0.4289547862799838
1772525977739527400,3.81652734375,-0.04890460842251777,-0.6841328952565788,0.8144231897938996
1772525977749510400,3.826510498046875,-0.22552374261021613,-0.6874997413411736,1.2676402010731398
1772525977759494700,3.83649462890625,-0.3423538862675428,-0.8396712474927306,1.7382912352994084
1772525977769477600,3.8464775390625,-0.2854600326567888,-0.9640276950016617,2.1122619105800986
1772525977779461600,3.856461669921875,-0.14568915839493274,-0.8284870056554675,2.07246488385126
1772525977789444400,3.8664443359375,-0.12763269270062447,-0.5396323621243239,1.6078005228191614
1772525977799427600,3.876427490234375,-0.45785774975717064,-0.3390685809865594,1.0833882339194416
1772525977809411600,3.88641162109375,-1.0515765068560838,-0.3475248591646552,0.7982993726626038
1772525977819394600,3.89639453125,-1.6904963416844605,-0.35978958971500397,0.6617025983922183
1772525977829378600,3.906378662109375,-2.189716613921523,-0.1609904801622033,0.5372769946372136
1772525977839361500,3.916361572265625,-2.5460078401267525,0.10278875882327557,0.530865556692332
1772525977849344500,3.926344482421875,-2.7350299442917105,0.3286673062205314,0.6514350330084562
1772525977859328500,3.93632861328125,-2.714508549788594,0.5320856000065803,0.8175484091423452
1772525977869311500,3.9463115234375,-2.465340312218666,0.7334811557933688,0.9730702486351132
1772525977879295500,3.95629541015625,-2.0979723962038754,0.8875757389619946,1.0898891402460633
1772525977889278700,3.96627880859375,-1.7471476187109947,0.935617593075335,1.2269452025912702
1772525977899262500,3.976262451171875,-1.4530974523633717,0.8520879537343978,1.3321519823417067
1772525977909245400,3.986245361328125,-1.2239654561281204,0.7428563023820519,1.2811410492897033
1772525977919228700,3.996228759765625,-1.07521340303123,0.6376105057954787,1.0921246442131698
1772525977929212700,4.006212646484375,-0.976433295327425,0.5234554265663027,0.7926428082056343
1772525977939195600,4.016195556640625,-0.9185095141470432,0.418298477306962,0.46567339194416996
1772525977949179600,4.0261796875,-0.8363350888073444,0.37720571167916056,0.15899302273467183
1772525977959162400,4.036162353515625,-0.7123217556476592,0.42678339705765245,-0.028124489917978644
1772525977969145600,4.0461455078125,-0.5426332975059748,0.5406386165574193,-0.03953179992139339
1772525977979129600,4.056129638671875,-0.3367541665643453,0.648822512422502,0.09531082415804266
1772525977989112600,4.066112548828125,-0.06358779829144477,0.6806751560181379,0.28902357035726306
1772525977999096600,4.0760966796875,0.2902618799805641,0.675464143371582,0.4401836344439536
1772525978009079600,4.08607958984375,0.6733218706458807,0.6655860156968235,0.5083817030098289
1772525978019062500,4.0960625,1.0126467644810675,0.653897039207816,0.48907457966729995
1772525978029046500,4.106046630859375,1.2812427560985087,0.5391165215566754,0.4682748796794563
1772525978039029500,4.116029541015625,1.4860469512850045,0.36314123823046685,0.5143914648186415
1772525978049013500,4.126013427734375,1.660830686739087,0.16919366036206482,0.6065594609063119
1772525978058996500,4.13599658203125,1.7701929787337778,0.002468435940146446,0.6843115397591143
1772525978068980500,4.14598046875,1.8376473893254994,-0.05176467402875423,0.6442282434348017
1772525978078963500,4.15596337890625,1.7824100707501171,-0.07163023497164249,0.5227702938463539
1772525978088946700,4.16594677734375,1.6770441549152135,-0.04952127901613712,0.39023821173161266
1772525978098930700,4.1759306640625,1.547244639569521,-0.03557838612049818,0.18994258001074193
1772525978108913700,4.18591357421875,1.35244629009068,-0.06638181292414665,0.04144526885990053
1772525978118897400,4.1958974609375,1.0296598586022854,-0.012841361394524574,-0.1397520964961499
1772525978128880400,4.20588037109375,0.5584060361772776,0.12504355299025774,-0.3099918683776632
1772525978138863600,4.215863525390625,-0.03210369574725628,0.282432793790102,-0.4404750916711986
1772525978148847600,4.22584765625,-0.7596721203655004,0.38383302086442705,-0.45881563500389455
1772525978158830600,4.23583056640625,-1.3762836772739886,0.5356739798873663,-0.46728630703352386
1772525978168814600,4.245814697265625,-1.6780658991783857,0.897847249868512,-0.4062911190511658
1772525978178797600,4.255797607421875,-1.7787948028624057,1.1754501392841339,-0.14800395640963687
1772525978188781600,4.265781494140625,-1.6700357374578714,1.2922110170975327,0.20482567636594176
1772525978198764500,4.2757646484375,-1.3208464522123335,1.32613593692258,0.5708121844923123
1772525978208747500,4.28574755859375,-0.821551945695281,1.340142981095612,0.7977512372605502
1772525978218731500,4.2957314453125,-0.24004618895947932,1.3032758703388272,0.8425309477727859
1772525978228714500,4.305714599609375,0.3347223684757948,1.1513635996453464,0.8239004815828055
1772525978238698500,4.315698486328125,0.8092395766109227,0.947165699788928,0.7287756815161556
1772525978248681500,4.325681396484375,1.1344155335843562,0.666901774470508,0.5693795213406905
1772525978258664700,4.335664794921875,1.3518582610696552,0.44791444789171214,0.34626828323230147
1772525978268648700,4.345648681640625,1.4763362891316414,0.28089287087172266,0.12462941923141478
1772525978278631400,4.35563134765625,1.536550811597705,0.10266922409683465,-0.09856725040441379
1772525978288615400,4.365615478515625,1.52038995039165,-0.06042202773690224,-0.26270212953956795
1772525978298598400,4.375598388671875,1.4821628033280372,-0.19265578449219464,-0.33492070405948904
1772525978308582700,4.385582763671875,1.4140999054491519,-0.29282237811833617,-0.31901129686385393
1772525978318565600,4.395565673828125,1.3264379886090754,-0.35753684235215183,-0.2596194889575243
1772525978328548900,4.405548828125,1.2966016532719133,-0.37745121087282896,-0.15646306586563585
1772525978338532900,4.415532958984375,1.333749772927165,-0.3872998201921582,-0.052199777510389685
1772525978348516000,4.42551611328125,1.3643763818591832,-0.37923195680975913,0.03214545252975076
1772525978358500000,4.4355,1.329974930563569,-0.3886176247924566,0.06545409448682331
1772525978368483000,4.445483154296875,1.1817711589992046,-0.37020752335488794,0.06239430505740456
1772525978378465800,4.4554658203125,0.9223936621040105,-0.28031536324471235,0.015007243324676527
1772525978388449800,4.46544970703125,0.5574024120926857,-0.17829291261881589,-0.015075623252615331
1772525978398433000,4.47543310546875,0.10067103601694107,-0.057526598556339736,0.007579394878866151
1772525978408417000,4.4854169921875,-0.4040332205891609,0.08912263704240321,-0.0002816573524381965
1772525978418400000,4.49539990234375,-0.8626338976681232,0.2138701296955347,0.003927012134448159
1772525978428383000,4.505383056640625,-1.2550573444843292,0.08037497470229864,0.2460380497854203
1772525978438367000,4.515366943359375,-1.3995003022104502,-0.22313538616895676,0.47039746132399884
1772525978448350000,4.525349853515625,-1.368509536141157,-0.2038695446848869,0.2751844300970435
1772525978458334000,4.535333984375,-1.4000064981669187,-0.09463993915915489,-0.12735325470473616
1772525978468317000,4.54531689453125,-1.5883108094513416,-0.25319763921648264,-0.3462827136164531
1772525978478301000,4.555301025390625,-1.8030267423212527,-0.5457797788381576,-0.44095242685936387
1772525978488284000,4.565283935546875,-1.8894442120581865,-0.638255525700748,-0.6274075300805271
1772525978498267000,4.575266845703125,-1.9652227988809345,-0.5753296984493732,-0.8633593623984605
1772525978508251000,4.5852509765625,-2.0646499723166225,-0.512384289714694,-0.9866478884149342
1772525978518234000,4.595234130859375,-2.0901210981816054,-0.44692602137625215,-0.9840838100805878
1772525978528218000,4.605218017578125,-1.972571992599964,-0.3098676209434867,-0.9026606414996087
1772525978538200800,4.615200927734375,-1.7293278843820095,-0.11816431487053632,-0.7990526752479374
1772525978548183800,4.625183837890625,-1.4227251104533671,0.07319003163427114,-0.637665012461692
1772525978558167800,4.635167724609375,-1.1720949836373329,0.22442717954516408,-0.3890484174251556
1772525978568151000,4.645151123046875,-0.9994611196935176,0.31037060202956196,-0.11558712132629007
1772525978578135000,4.655135009765625,-0.8633569512456655,0.3124137982949614,0.13872414168789982
1772525978588118000,4.665117919921875,-0.759866766154766,0.3103942751660943,0.28421766791287806
1772525978598101000,4.67510107421875,-0.6905950770080089,0.2749102893307805,0.3597270824054256
1772525978608085000,4.6850849609375,-0.6037286944597959,0.1452116040110588,0.44687889429889616
1772525978618068000,4.69506787109375,-0.44843467237353324,-0.012706629098951816,0.49946832871399816
1772525978628052000,4.705052001953125,-0.16041092670857907,-0.12034458151906728,0.47537035436574365
1772525978638035000,4.715034912109375,0.12467910359203815,-0.21103987470567226,0.3995850820738822
1772525978648019200,4.725019287109375,0.37738252955079077,-0.31962387580424545,0.320542488486506
1772525978658002000,4.735001953125,0.43091772038340564,-0.39051352154165503,0.2183376852973364
1772525978667985000,4.74498486328125,0.3063578592568636,-0.41298605011254547,0.12802494342122225
1772525978677969000,4.754968994140625,0.09039338763058186,-0.3780971075609326,0.08302209167759865
1772525978687952100,4.7649521484375,-0.15270459011495113,-0.30018209323137995,0.04991336533995345
1772525978697936100,4.77493603515625,-0.3442775478065014,-0.16739362520277498,0.014766210243571548
1772525978707918800,4.7849189453125,-0.5359060350775718,0.019254735568165777,-0.034129315256769766
1772525978717901800,4.79490185546875,-0.7581213837921619,0.17275369093120096,-0.09386478093503973
1772525978727886000,4.804885986328125,-0.9446282902657985,0.31648791586607694,-0.1637999663586728
1772525978737869000,4.814869140625,-1.0390180540561675,0.4923772744745016,-0.20273622980602085
1772525978747853000,4.82485302734375,-1.0646452472656964,0.6228659411281346,-0.18709734664745628
1772525978757835800,4.834835693359375,-1.0562924294620752,0.7376081725955009,-0.14862407933566718
1772525978767819800,4.84481982421875,-0.944976080790162,0.9136144355818628,-0.13556483740676192
1772525978777803000,4.854802978515625,-0.7379378429412842,1.1264964310228824,-0.14192776003479957
1772525978787786000,4.864785888671875,-0.44389819798767566,1.303637543258071,-0.1281467797026038
1772525978797770000,4.87477001953125,-0.11229308474957943,1.3798513066276907,-0.09363467110674828
1772525978807753000,4.8847529296875,0.2732142990678549,1.3647539829999207,-0.07916727941296994
1772525978817737000,4.894737060546875,0.6613023470282554,1.2972902200579643,-0.11083835589662194
1772525978827720000,4.904719970703125,1.0306056150197982,1.2132412330180407,-0.16169676526803523
1772525978837703000,4.914702880859375,1.3469231427550314,1.0992445592209696,-0.2070363016201183
1772525978847687000,4.92468701171875,1.6518027461528777,0.9923670697793364,-0.19734268193310125
1772525978857670100,4.934670166015625,1.8915175112009048,0.9004404812321066,-0.15703083754992112
1772525978867654000,4.94465380859375,2.116122969922423,0.7827177726492285,-0.11584686824101954
1772525978877636900,4.954636962890625,2.2747283085137604,0.675057608397305,-0.0855080998070538
1772525978887620000,4.9646201171875,2.377985269370675,0.5430895168408751,-0.07218978681685402
1772525978897604000,4.97460400390625,2.4417525158822535,0.40852556357234715,-0.061057138169510285
1772525978907587000,4.984587158203125,2.4690578714370726,0.2841799297183752,-0.08827062332294881
1772525978917571000,4.994571044921875,2.457068742957711,0.18173779237568377,-0.14823294285992158
1772525978927553800,5.0045537109375,2.395046294286847,0.10506488706171511,-0.19417196120880542
1772525978937537800,5.014537841796875,2.2371236772626637,0.004640519282221794,-0.2234848937263712
1772525978947521000,5.02452099609375,2.0409107848107815,-0.10959580848962068,-0.23821734783081336
1772525978957504000,5.03450390625,1.8188707926630974,-0.2052101456388831,-0.2435956981346011
1772525978967488000,5.044488037109375,1.5804501590788365,-0.28865736739337444,-0.27091645218795163
1772525978977471000,5.054470947265625,1.4131237538933754,-0.3237646288707852,-0.3050421004831791
1772525978987455000,5.064455078125,1.3318915778398512,-0.3258355899259448,-0.35452856391426174
1772525978997438000,5.07443798828125,1.2732996881395577,-0.36361411643922326,-0.40471217929665
1772525979007421000,5.0844208984375,1.2016478258579968,-0.4115823207944631,-0.4560695876987651
1772525979017405000,5.094405029296875,1.062253383693099,-0.40661359247118234,-0.5379818184383213
1772525979027388000,5.104387939453125,0.8119558498322963,-0.35635669265687464,-0.6263096518412232
1772525979037372000,5.114371826171875,0.5108499197542667,-0.292015153388679,-0.6358189462035894
1772525979047355000,5.12435498046875,0.17441607118546962,-0.23544892429709433,-0.554303496229276
1772525979057338000,5.134338134765625,-0.045781507965922355,-0.19979893424510956,-0.39987007302772254
1772525979067322000,5.144322021484375,-0.11557283707261085,-0.1456876970902085,-0.2148831243966706
1772525979077304800,5.154304931640625,-0.09663900402188301,-0.09199526986926794,-0.04595401498861611
1772525979087288800,5.164288818359375,-0.09617430911958218,-0.013455693900585174,0.08484132472770288
1772525979097271800,5.174271728515625,-0.16581950775384902,0.02975596357733011,0.27388978717662393
1772525979107255800,5.184255859375,-0.3463496779054403,-0.1429816530019045,0.7016971935197711
1772525979117239000,5.194239013671875,-0.38979134474694727,-0.4334823101744055,1.1529667970582842
1772525979127222000,5.204221923828125,-0.2157470294833183,-0.4861141224265098,1.2475881776474416
1772525979137205800,5.214205810546875,-0.0003127192109823227,-0.35316841800957915,1.0768195230536162
1772525979147189000,5.22418896484375,0.17572189308702946,-0.2681044087082147,0.8070325680859386
1772525979157173000,5.234173095703125,0.29159926606416703,-0.3031777679160237,0.5706584917679429
1772525979167156000,5.244156005859375,0.39076808082461356,-0.2832142995566129,0.3217852185565978
1772525979177139000,5.254138916015625,0.3452086911767721,-0.10163082095980644,0.06257832898795604
1772525979187123000,5.264123046875,0.07583645448982715,0.11256284160166978,-0.046399795127892864
1772525979197106000,5.27410595703125,-0.24162205997407435,0.3655240417137742,-0.0021849702231120315
1772525979207090000,5.28408984375,-0.4537655120074749,0.664714201298356,0.19140070639718323
1772525979217073000,5.294072998046875,-0.5570797560095787,0.9266852218180894,0.5069761835934594
1772525979227057000,5.304056884765625,-0.5703074863731861,1.142515837931633,0.829084313961491
1772525979237040000,5.3140400390625,-0.5658715497523545,1.2858724617257713,1.0201928690116853
1772525979247022800,5.32402294921875,-0.543414218750596,1.3479241364911199,1.0958959794454275
1772525979257006800,5.3340068359375,-0.5841103862762451,1.3081921378225088,1.0674299826133995
1772525979266989800,5.34398974609375,-0.6180190856188535,1.1463541009202598,0.936854879785329
1772525979276974000,5.35397412109375,-0.6139484751790761,0.9895949747174978,0.711282621858269
1772525979286957000,5.36395703125,-0.5569517457157374,0.7769082095876335,0.4761996082641184
1772525979296939800,5.373939697265625,-0.5265852490246296,0.5353180060565471,0.32239922226909545
1772525979306923800,5.383923828125,-0.5296931519120931,0.3313455855190754,0.26059892844893034
1772525979316907000,5.393906982421875,-0.5829828435510397,0.17052958514094352,0.23155458373967558
1772525979326891000,5.40389111328125,-0.6637193450421095,0.06136193893551826,0.2622961608208716
1772525979336873500,5.41387353515625,-0.6535445725083351,-0.00127922615557909,0.33645321085639296
1772525979346856700,5.423856689453125,-0.5572732327550649,-0.043266602535545824,0.37356457869783044
1772525979356840700,5.4338408203125,-0.4331616999179125,-0.07042699666172265,0.4011460843129083
1772525979366823700,5.44382373046875,-0.33914076943993565,-0.14109569312483072,0.44466246035844087
1772525979376807700,5.4538076171875,-0.35077567765414713,-0.28431057036072016,0.5296854069970548
1772525979386790400,5.463790283203125,-0.4363058431625366,-0.4152884818360209,0.5832942475877702
1772525979396774700,5.473774658203125,-0.5716244141906499,-0.46399289151132106,0.570039921478182
1772525979406757600,5.483757568359375,-0.7399976980805396,-0.42581192167699333,0.5121956352747976
1772525979416740600,5.49374072265625,-0.9780722947061061,-0.3256269156113267,0.45331648959834125
1772525979426724600,5.503724609375,-1.317777712291479,-0.2022512958332896,0.38207898027133197
1772525979436707600,5.51370751953125,-1.7261819875717161,-0.06387085301652551,0.29078656144179404
1772525979446691600,5.523691650390625,-2.1379840885967014,0.1302685941621661,0.2213394061302766
1772525979456674600,5.533674560546875,-2.518681441783905,0.3208459649451077,0.21231990457884967
1772525979466657500,5.543657470703125,-2.8916625215053555,0.49589492720663547,0.2508359881190583
1772525979476641500,5.5536416015625,-3.129836486852169,0.6868726954840123,0.32786815519947554
1772525979486624500,5.56362451171875,-3.1836393887102603,0.8664946647495031,0.43932785786483436
1772525979496608500,5.5736083984375,-2.9853309852838517,1.011688294712454,0.5109360636677592
1772525979506591500,5.583591552734375,-2.592182731324434,1.0920463182799518,0.5523784099182114
1772525979516574700,5.59357470703125,-2.061792244797945,1.053879230840504,0.5818251614158972
1772525979526558700,5.603558837890625,-1.5042062928318976,0.9798930803924798,0.5289472289156169
1772525979536541700,5.613541748046875,-0.9250731104463338,0.8986936375647783,0.37574418775923546
1772525979546525400,5.623525390625,-0.3919967458367348,0.7693754759952426,0.2196408585840836
1772525979556508400,5.63350830078125,0.08804711676537991,0.5976207329735159,0.06773476190306246
1772525979566492700,5.64349267578125,0.46419864321649074,0.44465223122537134,-0.07960293088387697
1772525979576475600,5.6534755859375,0.759051942640543,0.3388251276195049,-0.23763215008769184
1772525979586458600,5.663458740234375,1.0122978049129248,0.29093524919748304,-0.3675652652177959
1772525979596442600,5.673442626953125,1.2265052037388087,0.251261118195951,-0.45352837878335267
1772525979606425600,5.683425537109375,1.4175608595579863,0.2180111750230193,-0.4895271457403898
1772525979616409600,5.69340966796875,1.5900678822517393,0.16866349900811908,-0.49841494720354673
1772525979626392600,5.703392578125,1.735087763082981,0.14052549202144146,-0.5020031444212422
1772525979636375600,5.71337548828125,1.8190753753244875,0.10970832895338535,-0.4983423568913713
1772525979646359800,5.72335986328125,1.818155337870121,0.04705751925110817,-0.4880396471289917
1772525979656342500,5.733342529296875,1.7963462416440248,0.0024219664499163626,-0.49005471327845
1772525979666326500,5.743326416015625,1.8062381055831909,-0.0030798458367586132,-0.5054841914700344
1772525979676309500,5.7533095703125,1.7936276303350924,-0.0017725626304745674,-0.5568939511138945
1772525979686293500,5.76329345703125,1.7732313235163688,-0.0065825932607054705,-0.5915701276976615
1772525979696276700,5.77327685546875,1.7141542806476353,-0.018891455213725566,-0.6163184191808104
1772525979706259500,5.783259521484375,1.579271762949228,-0.049320203486084936,-0.5987916764490306
1772525979716243500,5.793243408203125,1.3821078533828257,-0.021553367899358272,-0.57756191448085
1772525979726226700,5.803226806640625,1.1254068822205066,0.0570835309639573,-0.5495907884936779
1772525979736210700,5.813210693359375,0.7875812870323657,0.17450725660026073,-0.5095157485410571
1772525979746193700,5.823193603515625,0.4463923528909683,0.32638825537264343,-0.4363451887922361
1772525979756176400,5.83317626953125,0.13009995959699153,0.46389644539952274,-0.35117282374557107
1772525979766160400,5.843160400390625,-0.11460253073573112,0.5466998162925243,-0.302099343295861
1772525979776143600,5.8531435546875,-0.3214367704451084,0.5752788450449705,-0.25140025267200544
1772525979786127600,5.863127685546875,-0.5399135171532631,0.572411472915113,-0.18052056207302958
1772525979796110600,5.873110595703125,-0.7841723553717136,0.48860798506885766,-0.028446725875977425
1772525979806093600,5.883093505859375,-0.8872995523691177,0.18456541701704263,0.2710402612307109
1772525979816077600,5.89307763671875,-0.7425175719469785,-0.09187778096944094,0.3868932852178812
1772525979826060500,5.903060546875,-0.49105391691625117,-0.1763750962987542,0.22033200091971084
1772525979836044500,5.91304443359375,-0.3457318382680416,-0.25529665732234713,-0.10787435499187559
1772525979846027500,5.923027587890625,-0.3630412849873304,-0.4556438730999827,-0.40482422483637925
1772525979856011500,5.933011474609375,-0.43267946935892104,-0.6581874298781156,-0.6644384530968964
1772525979865994800,5.942994873046875,-0.528964253115654,-0.7035366839066147,-0.926485096136108
1772525979875977500,5.9529775390625,-0.694489161837101,-0.6755801709666848,-1.0947321963630616
1772525979885961500,5.96296142578125,-0.8717045083522796,-0.6013064357489347,-1.0959467597845942
1772525979895944700,5.97294482421875,-0.9273580065131187,-0.4755439208343625,-0.9430044884562492
1772525979905928700,5.9829287109375,-0.7827619040518998,-0.3043509033486247,-0.6709034113273025
1772525979915911700,5.99291162109375,-0.46194355776607987,-0.11314210279434919,-0.3704663934867829
1772525979925894400,6.002894287109375,-0.03639525546133518,0.05373129792660474,-0.06701059408066794
1772525979935878400,6.01287841796875,0.31893852388858795,0.17049217574000358,0.2064807866292074
1772525979945861600,6.022861572265625,0.5751449895322323,0.23042495865523813,0.4101557220574468
1772525979955845600,6.032845703125,0.6657856299221515,0.2515717915803194,0.5486274964194745
1772525979965828600,6.04282861328125,0.6175958917707205,0.24266397024244069,0.6593740093141793
1772525979975811600,6.0528115234375,0.4954904380589723,0.25294921741336585,0.7192977321401238
1772525979985795600,6.062795654296875,0.331717341440916,0.2595803259909153,0.7468274710353463
1772525979995778600,6.072778564453125,0.17797931662499902,0.2579910109728575,0.7924766578584909
1772525980005762600,6.082762451171875,0.04948679222464561,0.24738076963126657,0.8265182628657668
1772525980015745500,6.09274560546875,0.01681786381006241,0.22652356730252504,0.8687772227287291
1772525980025728500,6.102728515625,0.0814420194119215,0.20982523821890353,0.935552784210816
1772525980035712500,6.11271240234375,0.1255833589553833,0.18598785103559493,0.9982425376839935
1772525980045695500,6.122695556640625,0.13377718680500983,0.17836948498636482,1.0309370389312504
1772525980055679500,6.132679443359375,0.08559095578491688,0.17304302926659584,1.0598747449282555
1772525980065662700,6.142662841796875,0.02242401325404644,0.15801380243897437,1.0506911753889172
1772525980075646700,6.152646728515625,-0.027764789760112762,0.17656711173951625,1.0092293572530149
1772525980085629700,6.162629638671875,-0.06591887158751487,0.22420856835842132,0.8243558241348713
1772525980095612400,6.1726123046875,-0.15316051718890666,0.2794455946728587,0.5196677612537518
1772525980105596400,6.182596435546875,-0.3882172272980213,0.28796090956181286,0.21349030006509273
1772525980115579600,6.19257958984375,-0.7997551244288682,0.2688616568163037,0.025671306345891206
1772525980125563600,6.202563720703125,-1.2885907807737589,0.31348581144064663,-0.10041931714504025
1772525980135546600,6.212546630859375,-1.729496226686239,0.4387038442149758,-0.17181547849932685
1772525980145529600,6.222529541015625,-2.061954157361388,0.5811857310011983,-0.15878688743701203
1772525980155513600,6.232513671875,-2.2040777322292326,0.7432450094386934,-0.09945316639347002
1772525980165496600,6.24249658203125,-2.1274837373703717,0.9315534123763441,-0.04989161016587167
1772525980175480600,6.25248046875,-1.8341636388629674,1.087792898619175,0.009172061764635146
1772525980185463600,6.262463623046875,-1.344838737696409,1.119454988078773,0.11133172890413552
1772525980195447800,6.27244775390625,-0.7064946569293737,1.0503481341049075,0.25894851262709123
1772525980205430500,6.282430419921875,-0.05518354256153107,0.9342828373402357,0.34878563634809107
1772525980215413500,6.29241357421875,0.572935496789217,0.8247562946945428,0.3473454840097576
1772525980225397500,6.3023974609375,1.0972907948046922,0.6877753434121608,0.2982462845969014
1772525980235380700,6.312380615234375,1.4814999555051327,0.5195730321750045,0.22932013921849428
1772525980245364700,6.32236474609375,1.7756722869277,0.33570056585818525,0.15981285121757535
1772525980255347500,6.332347412109375,2.0024708717793227,0.17785452120155096,0.11627351442156358
1772525980265330400,6.342330322265625,2.1374597724616526,0.009028525108098984,0.08570037097614258
1772525980275314700,6.352314697265625,2.2031179472863673,-0.15305384194403887,0.0644321949600242
1772525980285297700,6.362297607421875,2.2247949415653943,-0.27375907346904277,0.05785545605137012
1772525980295281700,6.37228173828125,2.1234446911126375,-0.37249125037789343,0.04049635237092152
1772525980305264400,6.382264404296875,1.9560721086978912,-0.4496627528637647,0.0245404756850563
1772525980315247600,6.39224755859375,1.7279571805506944,-0.510028666499257,0.0006628660892136394
1772525980325231600,6.402231689453125,1.4549404498815535,-0.5728150852799415,0.01902982250479981
1772525980335215400,6.41221533203125,1.1321323910832404,-0.6511155917957425,0.03163189525073394
1772525980345199400,6.422199462890625,0.8397446049898862,-0.7052382271274924,0.0452159191055689
1772525980355182300,6.432182373046875,0.5574164406180382,-0.733685738454759,0.02498764406382106
1772525980365166000,6.442166015625,0.2732002705425024,-0.7123229246914387,-0.07369927806435153
1772525980375149300,6.4521494140625,-0.007411153039336204,-0.7018301722496748,-0.17912324422942474
1772525980385132300,6.46213232421875,-0.2730821971207857,-0.70117696903795,-0.26454255150817335
1772525980395116300,6.4721162109375,-0.4441261615246534,-0.6698799134984612,-0.32252467527966944
1772525980405099300,6.482099365234375,-0.5331675500243902,-0.5923916001483798,-0.3214212806150317
1772525980415083500,6.49208349609375,-0.5674731397300958,-0.5170575422227383,-0.2610527000984177
1772525980425066200,6.502066162109375,-0.5670376709222793,-0.4708502100601792,-0.08980459142457693
1772525980435049200,6.51204931640625,-0.5317939235836268,-0.44135932715982196,0.13580194323142059
1772525980445033200,6.522033203125,-0.4117190989166498,-0.3671595339611172,0.338539588676393
1772525980455016400,6.532016357421875,-0.32374212477803227,-0.2913558126971125,0.4678299123909324
1772525980465000400,6.54200048828125,-0.34178631551265715,-0.2212096788033843,0.5148979530360549
1772525980474983200,6.551983154296875,-0.5026467395544052,-0.15229133313894272,0.5299920617934316
1772525980484966400,6.56196630859375,-0.7659913865149021,-0.2656394798994064,0.7048316921532154
1772525980494950400,6.571950439453125,-0.8588117090314626,-0.5111988793224096,0.8499806061916053
1772525980504933400,6.581933349609375,-0.8001450005292892,-0.5269906149551272,0.6914332813978195
1772525980514917400,6.59191748046875,-0.765116941767931,-0.5518278268307447,0.40924511001855135
1772525980524900000,6.601900146484375,-0.7806494419425726,-0.6859852451249957,0.18053952250182628
1772525980534884000,6.611884033203125,-0.8154302479445934,-0.829256236462295,-0.0072145344886928794
1772525980544867300,6.621867431640625,-0.8310071717828512,-0.8634756091892719,-0.2006767217266373
1772525980554850300,6.631850341796875,-0.9209832107841968,-0.8177823640286922,-0.36554362319707867
1772525980564834300,6.641834228515625,-1.1363982318341732,-0.728626116977632,-0.4349791246034205
1772525980574817300,6.6518173828125,-1.4020353736460207,-0.5071513574972748,-0.36928861841168253
1772525980584801300,6.66180126953125,-1.6300550247251986,-0.2299015193030238,-0.2098584646350704
1772525980594784300,6.6717841796875,-1.7699492331057787,-0.018692133249342442,-0.035215936883119865
1772525980604767200,6.681767333984375,-1.8126690154135225,0.17923399286121128,0.0881790908482857
1772525980614751200,6.691751220703125,-1.7557547035366297,0.4094190052807331,0.1354263057189062
1772525980624734500,6.701734375,-1.5741852534651755,0.6266226633131504,0.21086159552931785
1772525980634718200,6.71171826171875,-1.3019739939600228,0.7899085609361529,0.35558121477235105
1772525980644701200,6.721701171875,-0.9813771814703941,0.9074386695563793,0.5270413952942937
1772525980654684400,6.731684326171875,-0.6287795490860939,1.0111436664417386,0.691751261305809
1772525980664668400,6.74166845703125,-0.2720370719820261,1.141342702499032,0.8153681424938142
1772525980674651400,6.7516513671875,0.09137012370824814,1.2396519778206945,0.9163726482488215
1772525980684635400,6.761635498046875,0.4346212510764599,1.3195748248413204,1.0138064559102058
1772525980694618000,6.7716181640625,0.7073994968146086,1.3596589979484677,1.0643630693234503
1772525980704602400,6.781602294921875,0.9224410083770751,1.3916063340902327,1.0812003684863447
1772525980714585300,6.79158544921875,1.0965513746142386,1.3765166092470287,1.1316578323740512
1772525980724568300,6.801568359375,1.2367612248152493,1.3299579794287681,1.2438915150865912
1772525980734552300,6.81155224609375,1.3702052341431379,1.2525862781956791,1.3250358667261897
1772525980744535300,6.821535400390625,1.489503813740611,1.1745590356633067,1.3381067990928888
1772525980754519300,6.831519287109375,1.5881395445376634,1.1064990603938698,1.2740353089377283
1772525980764502300,6.841502197265625,1.6772212650477885,0.989833167387545,1.2159301798410713
1772525980774485200,6.8514853515625,1.709585657557845,0.8208528575152159,1.2248902428228408
1772525980784469200,6.86146923828125,1.71526487223804,0.6323714360982179,1.2523293808251619
1772525980794452200,6.8714521484375,1.6541531086713075,0.48584202748686073,1.233186873459816
1772525980804436200,6.881436279296875,1.5446031851500273,0.43800212568640706,1.1671937675923107
1772525980814419200,6.891419189453125,1.3453525324374436,0.46495618358552454,1.054400405170396
1772525980824402400,6.90140234375,1.034039681121707,0.5823100588560104,0.9346769512243568
1772525980834386400,6.911386474609375,0.5892512562960386,0.751580583846569,0.784265732743591
1772525980844369200,6.921369140625,0.0992138229459524,0.9307195919007062,0.6117264517480507
1772525980854353200,6.931353271484375,-0.42766193345785136,1.0518237596154212,0.5004644270792603
1772525980864336100,6.941336181640625,-1.0014023168891668,1.1810440137684344,0.43744631843455134
1772525980874319400,6.9513193359375,-1.4955156213760374,1.3471128201082347,0.44661454427428543
1772525980884303400,6.961303466796875,-1.874545333611965,1.5123936909407376,0.49428694402072576
1772525980894286300,6.971286376953125,-2.0442232703596352,1.645183035752177,0.5768106577221304
1772525980904270000,6.98127001953125,-1.9746184037357568,1.7209867570161819,0.6534872893631458
1772525980914253300,6.99125341796875,-1.695195313155651,1.7287439470142125,0.6973859061919152
1772525980924237300,7.0012373046875,-1.2270014628231525,1.6532281027808784,0.6800283094819635
1772525980934220300,7.01122021484375,-0.6636100394487381,1.4821733247220514,0.6050405807759612
1772525980944203300,7.021203369140625,-0.1823719986259937,1.27936614857167,0.5326170034695417
1772525980954187500,7.0311875,0.18749650203287602,1.0976531983762978,0.4021489046799019
1772525980964170200,7.041170166015625,0.4824526773095131,0.8933142826139926,0.27039726888574656
1772525980974154200,7.051154296875,0.7077735908240079,0.6870858998432755,0.16961184924151748
1772525980984137200,7.06113720703125,0.9136585669845342,0.4939435008779168,0.08896404894720762
1772525980994120400,7.071120361328125,1.1153583664149045,0.30914427510499953,0.04246662953058258
1772525981004104400,7.0811044921875,1.2755126880139112,0.16657120290398597,-0.009079354537971084
1772525981014087200,7.091087158203125,1.4038637581169604,0.08097264833450317,-0.03972542736392934
1772525981024071200,7.1010712890625,1.458979496139288,-0.003797638717293739,-0.02354760132334195
1772525981034054400,7.111054443359375,1.4064122735559939,-0.09599281507283448,0.06591543752141296
1772525981044037400,7.121037353515625,1.269227908656001,-0.13182576047629116,0.1731594404541887
1772525981054021400,7.131021484375,1.008082233044505,-0.12904548210799693,0.23539125755941495
1772525981064004000,7.141004150390625,0.6865987008482217,-0.09328530967980622,0.26716416871603577
1772525981073988000,7.150988037109375,0.3078238401561975,-0.052847208568453784,0.2938793946242891
1772525981083971300,7.160971435546875,-0.06269990954101086,-0.020027181245386598,0.31560908720493314
1772525981093955300,7.170955322265625,-0.40275779382586474,-0.008289104917645455,0.3267113498471677
1772525981103938300,7.180938232421875,-0.7467062558084726,0.013760229805111884,0.321917320503667
1772525981113921300,7.19092138671875,-1.0922767660349606,0.03750643157362938,0.3022451997736469
1772525981123905300,7.2009052734375,-1.478959038850665,0.028318331989645958,0.3336652241056785
1772525981133888300,7.21088818359375,-1.8296394394367932,0.005825637413561344,0.3666287150200456
1772525981143872300,7.220872314453125,-2.01595988342762,-0.014238953232765196,0.39482049802057445
1772525981153855200,7.230855224609375,-1.9295318922966718,-0.0004068272352218628,0.3959161112375557
1772525981163838500,7.24083837890625,-1.6376970639109611,-0.0166895612552762,0.49373595907445994
1772525981173822500,7.250822509765625,-1.3413362825334072,-0.13271189566105604,0.6563855680879205
1772525981183805200,7.26080517578125,-1.177799917280674,-0.2693193374559283,0.8142216758724301
1772525981193789200,7.2707890625,-1.2422697591036558,-0.38902708237618205,0.936688510242477
1772525981203772400,7.2807724609375,-1.4086077377736568,-0.5342307953417301,1.003977720335126
1772525981213755400,7.29075537109375,-1.570706179177761,-0.7042462934806942,0.9941663742862641
1772525981223739400,7.300739501953125,-1.7198896094292402,-0.7209066286414861,0.8403730390865355
1772525981233722000,7.31072216796875,-1.8768816676050424,-0.6188035139948129,0.5601170778788626
1772525981243706000,7.3207060546875,-2.013718241980672,-0.4779588730216026,0.2495100367449224
1772525981253689300,7.330689453125,-2.0984528731971976,-0.2829007035627961,0.041183421319629994
1772525981263673300,7.34067333984375,-2.0988503480821845,-0.06523351967185735,-0.03382423592954874
1772525981273656300,7.35065625,-1.9768284810006618,0.18608605071306228,0.04394888571128249
1772525981283639300,7.360639404296875,-1.7088906610310077,0.5509457832992076,0.14179039739072322
1772525981293623300,7.370623291015625,-1.289590313205123,0.9430728775173425,0.28397079874603076
1772525981303606300,7.380606201171875,-0.840972100958228,1.2009642275080084,0.5423118835318833
1772525981313590300,7.39059033203125,-0.396336236345768,1.3326762984767555,0.8245372451163828
1772525981323573200,7.4005732421875,-0.02032207253873348,1.4192092112869024,0.960005453748256
1772525981333555700,7.4105556640625,0.2846627447992563,1.5252210238099098,0.9456653051633387
1772525981343539700,7.420539794921875,0.5665601165384054,1.5873092311933636,0.9154048991952091
1772525981353522700,7.430522705078125,0.7922399264931679,1.582399831841886,0.8909368859581649
1772525981363506400,7.44050634765625,0.9360568612754344,1.4926470802024006,0.8908309413656592
1772525981373489700,7.45048974609375,1.0372013600230217,1.3720853488013147,0.8831370989274233
1772525981383472600,7.46047265625,1.1654548149704933,1.295697982430458,0.8726070101499557
1772525981393456600,7.47045654296875,1.3307599434614181,1.2160618433967232,0.8986372312024236
1772525981403439900,7.48043994140625,1.4587819277405738,1.0604971876755356,0.9783562262140214
1772525981413423900,7.490423828125,1.516981018730998,0.8643100141867994,1.0401325911693275
1772525981423406600,7.500406494140625,1.489298646557331,0.7248936524510383,1.0487835882019252
1772525981433390600,7.510390625,1.3738742780447006,0.6592901304230093,0.9761028943292797
1772525981443373600,7.52037353515625,1.2534767972946166,0.6256503111496567,0.8587731305867433
1772525981453356800,7.530356689453125,1.078333580878377,0.5736231867924332,0.7264386899359524
1772525981463340800,7.5403408203125,0.8677063786268234,0.5209612716630101,0.5588465464863925
1772525981473323500,7.550323486328125,0.6738444332152604,0.48157764804065223,0.2866954196706414
1772525981483307500,7.5603076171875,0.465488683027029,0.46194764941930766,-0.053680115728639066
1772525981493290800,7.570290771484375,0.2516764209985733,0.4799208207443356,-0.3712710974657908
1772525981503273700,7.580273681640625,-0.026064415583014488,0.4939011230409145,-0.5355831232661381
1772525981513257700,7.5902578125,-0.3946703489601612,0.5536468589514494,-0.5425242841735481
1772525981523240400,7.600240478515625,-0.6996452294260262,0.7294707511082291,-0.4990446964744478
1772525981533224700,7.610224609375,-0.8778075014024972,0.9701534844055771,-0.45306773900166153
1772525981543207700,7.620207763671875,-1.0192939474105835,1.2151841837793589,-0.2864229594048113
1772525981553190700,7.630190673828125,-1.1410773295611143,1.4579057294279336,-0.06527947770543396
1772525981563174700,7.640174560546875,-1.2002549101948738,1.6809376552224158,0.13401859434545038
1772525981573157600,7.65015771484375,-1.1462263828873633,1.9087550617277622,0.36913638699203727
1772525981583141600,7.6601416015625,-1.0003870023667811,2.0459347504526377,0.6247618378773331
1772525981593124600,7.67012451171875,-0.887474324414134,2.0408266136586666,0.7919938427776098
1772525981603108600,7.680108642578125,-0.7486883695363998,1.9063111757069826,0.7876878161467611
1772525981613091600,7.690091552734375,-0.5478098233610391,1.8106456928923724,0.7472559986457228
1772525981623074800,7.70007470703125,-0.33924013816118237,1.7439166739657521,0.8059280409101396
1772525981633058600,7.71005859375,-0.1387970607936382,1.671998269702494,0.9095322808347642
1772525981643041500,7.72004150390625,0.023743863680958748,1.5902613589972256,1.025628776455298
1772525981653025500,7.730025634765625,0.15709551855027676,1.47872581461668,1.0672393554121256
1772525981663008800,7.7400087890625,0.28830723878145215,1.410365979617834,1.0253126231782137
1772525981672991700,7.74999169921875,0.38448505503237246,1.4128542893022298,1.0235106152575462
1772525981682975700,7.759975830078125,0.39894203492999075,1.3513476811990142,1.066023403751105
1772525981692958700,7.769958740234375,0.29969606328010556,1.2223352245777845,1.0386528740055858
1772525981702942700,7.779942626953125,0.12765782714188098,1.138778112708032,0.9121862294096499
1772525981712925700,7.78992578125,-0.06468260779082775,1.1215542984455824,0.7324611650958657
1772525981722909700,7.79990966796875,-0.1849392187654972,1.1402154520347714,0.5553119426194578
1772525981732892700,7.809892578125,-0.23579613029956817,1.1479004535794257,0.4363700309725478
1772525981742875600,7.819875732421875,-0.3447802366316318,1.1164829865306616,0.3609232699200511
1772525981752859600,7.829859619140625,-0.5003372935682535,1.119777351900935,0.3082032679278403
1772525981762842600,7.839842529296875,-0.6505337002545595,1.1974784312188624,0.2620887834141962
1772525981772826600,7.84982666015625,-0.8046078251570463,1.2995613798603414,0.24128237969093022
1772525981782809900,7.859809814453125,-0.9334002092868089,1.420267195907235,0.30795426160283385
1772525981792792600,7.86979248046875,-0.989504958346486,1.5757345287337898,0.4718959927860647
1772525981802776600,7.879776611328125,-0.9285457549929619,1.7584160317003725,0.6810164437364786
1772525981812759600,7.889759521484375,-0.7670464485257864,1.9085431725427506,0.8893700019676237
1772525981822743600,7.89974365234375,-0.5471615885853767,2.002769562464952,1.0962482269492
1772525981832726800,7.909726806640625,-0.3404156116813421,2.087896407869458,1.2106311966501175
1772525981842709800,7.919709716796875,-0.17215397147238254,2.1241849880859256,1.2907004664041102
1772525981852693500,7.929693603515625,-0.10161211625933647,2.0876348343238234,1.3748119972862303
1772525981862676700,7.9396767578125,-0.03766834413707256,2.0839570225939155,1.4128450830824673
1772525981872660700,7.94966064453125,0.03168751616179943,2.1144085672199724,1.4166504667147992
1772525981882643700,7.959643798828125,0.16077333028018473,2.1660285720810295,1.4009616069346666
1772525981892627700,7.969627685546875,0.27802432969808577,2.2171125703692436,1.4369379063315688
1772525981902610700,7.979610595703125,0.37554011655449865,2.2574249992743134,1.506263663753122
1772525981912593700,7.98959375,0.3996107279717922,2.2542887470751998,1.5489204638272522
1772525981922577700,7.99957763671875,0.32683541461825366,2.2092463670387863,1.5749413325294852
1772525981932560600,8.009560546875,0.19536767379939554,2.140331528505683,1.5054979400776325
1772525981942544600,8.019544677734375,0.03063479223847389,2.1152532013505696,1.3548496979705988
1772525981952528000,8.02952783203125,-0.1341793378651142,2.1785408476516603,1.2282521935366093
1772525981962510600,8.039510498046875,-0.2769201678484678,2.265418920637667,1.1501703712727873
1772525981972494600,8.04949462890625,-0.3473959720879793,2.3285937542140482,1.1107200390897691
1772525981982477600,8.0594775390625,-0.34836978555619713,2.3619179316669703,1.097162784510851
1772525981992461600,8.069461669921875,-0.3184820122927427,2.349082707752287,1.143979480743408
1772525982002444800,8.07944482421875,-0.28975919115543364,2.28214267642349,1.213722440663725
1772525982012428800,8.0894287109375,-0.2353729364514351,2.178812942591309,1.298345428199321
1772525982022411500,8.09941162109375,-0.17688918330073355,1.9701254762306808,1.418851776151359
1772525982032394800,8.109394775390625,-0.1561573609173298,1.6936752639815211,1.4665464242622255
1772525982042378800,8.119378662109375,-0.2014905405938625,1.4925173163428902,1.4093611864894628
1772525982052361700,8.12936181640625,-0.2924807250738144,1.3485720790058373,1.334869570737332
1772525982062345700,8.139345703125,-0.46876259013116356,1.2117732062920927,1.2076738812144845
1772525982072328400,8.149328369140624,-0.7018775185227394,1.1423767217218874,0.9653870737213641
1772525982082311700,8.159311767578124,-0.9792816704958677,1.169058684681356,0.6111245037995279
1772525982092295700,8.169295654296874,-1.3393565068930386,1.1685127412363887,0.3137698525464162
1772525982102278700,8.179278564453124,-1.7389403468579052,1.1453902243241667,0.09055284337545745
1772525982112262700,8.1892626953125,-2.125045112046599,1.2521622075647114,-0.016447550926636904
1772525982122245600,8.19924560546875,-2.4377993943423033,1.4719710796594618,-0.03135284084733576
1772525982132228600,8.209228515625,-2.7020699239760635,1.6758903087049721,0.03695140977306291
1772525982142212600,8.219212646484374,-2.864994294810295,1.8852675108954309,0.09994210068788378
1772525982152195600,8.229195556640626,-2.88104292781353,2.117669614842534,0.17683880482036618
1772525982162179600,8.2391796875,-2.7137451642006636,2.247602401179075,0.27379187976010144
1772525982172162800,8.249162841796876,-2.338977201062441,2.2369565040022135,0.3012328078607097
1772525982182146600,8.259146484375,-1.8662217419028282,2.108131971168518,0.1909672103507444
1772525982192129500,8.269129638671876,-1.4718611895442009,1.8463430292174219,0.018747544097853824
1772525982202112800,8.27911279296875,-1.2091793904066086,1.5796505331337451,-0.18049422205537557
1772525982212096800,8.2890966796875,-0.9919307241886853,1.440803203457594,-0.3594980228899047
1772525982222079700,8.299079833984376,-0.8308195402562618,1.319542091615498,-0.44345067341588434
1772525982232063700,8.309063720703126,-0.7312894909679889,1.1542992147058249,-0.440670687308535
1772525982242046700,8.319046630859376,-0.6825467951089144,1.0083370845884083,-0.43534065139219164
1772525982252029700,8.32902978515625,-0.6047182900190353,0.872602626235783,-0.44749742805603887
1772525982262013700,8.339013671875,-0.5209592258363962,0.7359206578999757,-0.48588396693244573
1772525982271996700,8.34899658203125,-0.4369733671605587,0.6717758102476596,-0.526743800587207
1772525982281980700,8.358980712890625,-0.3426864792227745,0.6097127373054623,-0.5568529980489983
1772525982291963600,8.368963623046875,-0.28024668192267416,0.4848310968786478,-0.6242202052813023
1772525982301947600,8.37894775390625,-0.20866262418031692,0.4005079690724611,-0.6202667914804071
1772525982311930600,8.3889306640625,-0.1630184788584709,0.4175587648555636,-0.5717569545291364
1772525982321913600,8.39891357421875,-0.1426893920570612,0.41986587275415654,-0.4948448336318135
1772525982331897900,8.40889794921875,-0.1623439405977726,0.4152303219079971,-0.4061199272027239
1772525982341880600,8.418880615234375,-0.21493045240342615,0.40148265932351346,-0.37866727213170376
1772525982351864600,8.428864501953125,-0.24382336941063404,0.3707581429749727,-0.41838118715435263
1772525982361847600,8.43884765625,-0.2170417454689741,0.3254422066941857,-0.47130511422082777
1772525982371830800,8.448830810546875,-0.13482523455321788,0.23192717991173267,-0.4996041935207322
1772525982381814800,8.458814697265625,0.0059556935340166085,0.08727379430532455,-0.4674180071217939
1772525982391797800,8.4687978515625,0.18047171796262262,0.037864743492007254,-0.4122836009316146
1772525982401781500,8.478781494140625,0.34084991144537924,0.03687368662804365,-0.3431350632404908
1772525982411764700,8.4887646484375,0.4881786537408828,-0.14268267005532978,-0.2984498991439119
1772525982421747700,8.498747802734375,0.6642424921333789,-0.3181424050748348,-0.21877087081652133
1772525982431731700,8.508731689453125,0.7825912236601114,-0.3117521195158362,-0.14966281126625836
1772525982441714700,8.518714599609375,0.8447101184427738,-0.3246615777105093,-0.02231324635595083
1772525982451698700,8.52869873046875,1.0056266565859318,-0.397095238019526,0.005405037381313741
1772525982461681700,8.538681640625,1.2435305728197097,-0.46583676581233735,0.008577456872351468
1772525982471665700,8.548665771484375,1.3853373368233441,-0.5331298483625054,0.09436620025169104
1772525982481648600,8.558648681640625,1.44774849255085,-0.552047314800322,0.1829003333490342
1772525982491631900,8.5686318359375,1.4215478833675383,-0.5276365116432309,0.16285627403408287
1772525982501615900,8.578615966796875,1.20236912586987,-0.2429720132783055,0.1207794658049941
1772525982511598600,8.5885986328125,0.752520495045185,0.06730506524890661,0.2937641524804756
