time,seconds_elapsed,z,y,x
1772525974005734400,0.082734375,-0.24065560102462769,-1.6492807865142822,0.1525254100561142
1772525974015717400,0.09271728515625,-0.23122651875019073,-1.6854586601257324,0.31008991599082947
1772525974025701400,0.102701416015625,-0.23503883183002472,-1.6404632329940796,0.4434376060962677
1772525974035684400,0.112684326171875,-0.2537628710269928,-1.5180954933166504,0.5462899208068848
1772525974045668400,0.12266845703125,-0.2871650457382202,-1.3534228801727295,0.6094861626625061
1772525974055651300,0.1326513671875,-0.35185736417770386,-1.1715706586837769,0.6298642158508301
1772525974065634300,0.14263427734375,-0.40963995456695557,-0.9690422415733337,0.605222225189209
1772525974075618300,0.152618408203125,-0.4514300525188446,-0.7641049027442932,0.5470320582389832
1772525974085601300,0.162601318359375,-0.4636089503765106,-0.6001647114753723,0.45400118827819824
1772525974095585300,0.172585205078125,-0.43921786546707153,-0.47331666946411133,0.34576475620269775
1772525974105568500,0.182568603515625,-0.39459288120269775,-0.3674725294113159,0.2421368807554245
1772525974115551200,0.19255126953125,-0.3478572368621826,-0.2852061688899994,0.15342867374420166
1772525974125535200,0.20253515625,-0.31274986267089844,-0.22135794162750244,0.08010704815387726
1772525974135518200,0.212518310546875,-0.30122894048690796,-0.17389246821403503,0.021199483424425125
1772525974145502200,0.222502197265625,-0.30985280871391296,-0.1416298747062683,-0.024707555770874023
1772525974155485400,0.2324853515625,-0.34553906321525574,-0.11506648361682892,-0.04556680843234062
1772525974165468200,0.24246826171875,-0.39826831221580505,-0.10828181356191635,-0.059432025998830795
1772525974175452200,0.2524521484375,-0.45897042751312256,-0.1392807513475418,-0.06484495848417282
1772525974185435400,0.262435302734375,-0.5123979449272156,-0.21099355816841125,-0.06212480366230011
1772525974195419400,0.27241943359375,-0.5581540465354919,-0.2760087549686432,-0.04751335829496384
1772525974205402400,0.28240234375,-0.6052371263504028,-0.352976530790329,-0.030672593042254448
1772525974215385300,0.29238525390625,-0.6625606417655945,-0.45789921283721924,-0.015005480498075485
1772525974225369000,0.302369140625,-0.7207781076431274,-0.5802762508392334,-0.005781622603535652
1772525974235352300,0.312352294921875,-0.784588634967804,-0.71294105052948,0.00811159797012806
1772525974245336300,0.32233642578125,-0.833678662776947,-0.8273182511329651,0.03213437646627426
1772525974255319300,0.3323193359375,-0.8782109618186951,-0.9147026538848877,0.05674517899751663
1772525974265302500,0.342302490234375,-0.9160593152046204,-1.010820984840393,0.07335744053125381
1772525974275286500,0.35228662109375,-0.9390795230865479,-1.1252894401550293,0.06936652213335037
1772525974285269200,0.362269287109375,-0.9571176767349243,-1.260640263557434,0.03879130259156227
1772525974295253200,0.372253173828125,-0.9771915078163147,-1.4107017517089844,-0.027662154287099838
1772525974305236200,0.382236328125,-1.0007069110870361,-1.5138344764709473,-0.10585549473762512
1772525974315219500,0.392219482421875,-1.028545618057251,-1.534181833267212,-0.16052976250648499
1772525974325203200,0.402203125,-1.0628622770309448,-1.4710417985916138,-0.18049201369285583
1772525974335186200,0.412186279296875,-1.1055797338485718,-1.3107457160949707,-0.14803123474121094
1772525974345169400,0.42216943359375,-1.1160547733306885,-1.056834101676941,-0.08281760662794113
1772525974355153400,0.4321533203125,-1.0924242734909058,-0.7947283983230591,-0.0249503031373024
1772525974365136400,0.442136474609375,-1.0504707098007202,-0.6655483245849609,-0.031434565782547
1772525974375120400,0.452120361328125,-1.0220704078674316,-0.6289921998977661,-0.0881267860531807
1772525974385103000,0.46210302734375,-1.0193352699279785,-0.5801788568496704,-0.15670664608478546
1772525974395087400,0.47208740234375,-1.0384931564331055,-0.5172432661056519,-0.2269926220178604
1772525974405070300,0.4820703125,-1.0786802768707275,-0.46753883361816406,-0.30179548263549805
1772525974415053300,0.49205322265625,-1.1216728687286377,-0.4437120258808136,-0.373813658952713
1772525974425037300,0.502037353515625,-1.1701383590698242,-0.4388086199760437,-0.4637851119041443
1772525974435020300,0.512020263671875,-1.2006381750106812,-0.4583490192890167,-0.5736964344978333
1772525974445004300,0.52200439453125,-1.2096670866012573,-0.46554887294769287,-0.6813611388206482
1772525974454987300,0.5319873046875,-1.1881176233291626,-0.43392685055732727,-0.7751927375793457
1772525974464970200,0.54197021484375,-1.151779294013977,-0.37801510095596313,-0.8470653295516968
1772525974474954200,0.551954345703125,-1.1146103143692017,-0.29458245635032654,-0.8723827004432678
1772525974484937200,0.561937255859375,-1.0787343978881836,-0.18709434568881989,-0.8511576056480408
1772525974494921200,0.571921142578125,-1.0472781658172607,-0.0646573007106781,-0.7862324118614197
1772525974504904200,0.581904296875,-1.0172441005706787,0.04534776136279106,-0.6954010725021362
1772525974514887400,0.591887451171875,-0.9913551807403564,0.1179419755935669,-0.6026076674461365
1772525974524871400,0.601871337890625,-0.9749535918235779,0.14776405692100525,-0.5197204947471619
1772525974534854100,0.611854248046875,-0.9775144457817078,0.1384386271238327,-0.46172893047332764
1772525974544837000,0.621837158203125,-1.021581768989563,0.12108174711465836,-0.4445182681083679
1772525974554821400,0.6318212890625,-1.0861120223999023,0.0785483568906784,-0.4676710069179535
1772525974564804400,0.641804443359375,-1.1733160018920898,0.01780138537287712,-0.5315157771110535
1772525974574788400,0.651788330078125,-1.2738037109375,-0.08722325414419174,-0.6220128536224365
1772525974584771300,0.661771240234375,-1.3820865154266357,-0.21145226061344147,-0.7125959992408752
1772525974594755000,0.671755126953125,-1.491827368736267,-0.32995501160621643,-0.778352677822113
1772525974604738300,0.68173828125,-1.5946451425552368,-0.46219882369041443,-0.7993719577789307
1772525974614721300,0.69172119140625,-1.6741262674331665,-0.5849568247795105,-0.7508746385574341
1772525974624705300,0.701705322265625,-1.7244433164596558,-0.6900542378425598,-0.641423761844635
1772525974634688300,0.711688232421875,-1.7417449951171875,-0.7610536217689514,-0.47618645429611206
1772525974644672500,0.721672607421875,-1.7331358194351196,-0.7907489538192749,-0.2847432494163513
1772525974654655200,0.7316552734375,-1.6941897869110107,-0.7840647101402283,-0.09725254774093628
1772525974664638200,0.74163818359375,-1.6432057619094849,-0.7480126619338989,0.059094443917274475
1772525974674622200,0.751622314453125,-1.5830317735671997,-0.6676079034805298,0.17603087425231934
1772525974684605400,0.76160546875,-1.5214669704437256,-0.5390992164611816,0.2508039176464081
1772525974694588200,0.771588134765625,-1.4610331058502197,-0.3602116107940674,0.2864975333213806
1772525974704572200,0.781572265625,-1.3946380615234375,-0.1745871752500534,0.2715092599391937
1772525974714555100,0.79155517578125,-1.3206796646118164,-0.011327912099659443,0.2256079614162445
1772525974724539400,0.801539306640625,-1.2482640743255615,0.12784461677074432,0.15236623585224152
1772525974734522400,0.8115224609375,-1.186699628829956,0.21181054413318634,0.053288839757442474
1772525974744506400,0.82150634765625,-1.1405316591262817,0.24671846628189087,-0.06660880893468857
1772525974754489000,0.831489013671875,-1.1115012168884277,0.265550822019577,-0.18534228205680847
1772525974764472300,0.841472412109375,-1.0928223133087158,0.2705729901790619,-0.2866499722003937
1772525974774456300,0.851456298828125,-1.0808756351470947,0.26370367407798767,-0.35228392481803894
1772525974784439300,0.861439208984375,-1.0705255270004272,0.24405407905578613,-0.3786287009716034
1772525974794423300,0.87142333984375,-1.051832914352417,0.2433115839958191,-0.3524527847766876
1772525974804406500,0.881406494140625,-1.0219472646713257,0.2344360649585724,-0.2807338535785675
1772525974814389200,0.89138916015625,-0.9810250997543335,0.23412781953811646,-0.17006497085094452
1772525974824373200,0.901373291015625,-0.9247493147850037,0.23162178695201874,-0.02789052203297615
1772525974834356200,0.911356201171875,-0.8659422397613525,0.22733831405639648,0.11826188862323761
1772525974844340200,0.92134033203125,-0.7965077757835388,0.21544542908668518,0.2534247636795044
1772525974854323500,0.931323486328125,-0.7231622934341431,0.20004777610301971,0.3680570125579834
1772525974864306200,0.94130615234375,-0.6494001746177673,0.17675098776817322,0.4600124955177307
1772525974874290200,0.951290283203125,-0.582785427570343,0.15598876774311066,0.52545565366745
1772525974884273400,0.9612734375,-0.5243261456489563,0.122940793633461,0.5694580078125
1772525974894257400,0.97125732421875,-0.47010281682014465,0.08515909314155579,0.6028149127960205
1772525974904240400,0.981240478515625,-0.4273146092891693,0.05448027700185776,0.6215774416923523
1772525974914223000,0.99122314453125,-0.3823259174823761,0.008227948099374771,0.6326360106468201
1772525974924207000,1.00120703125,-0.3366455137729645,-0.045477088540792465,0.6387622952461243
1772525974934190300,1.0111904296875,-0.29337242245674133,-0.09531701356172562,0.6383156180381775
1772525974944174300,1.02117431640625,-0.2642741799354553,-0.15877561271190643,0.6311628818511963
1772525974954157300,1.0311572265625,-0.24841207265853882,-0.22673098742961884,0.6167302131652832
1772525974964140300,1.041140380859375,-0.23911736905574799,-0.28181102871894836,0.592752993106842
1772525974974124300,1.051124267578125,-0.252672404050827,-0.32249948382377625,0.5612350702285767
1772525974984107300,1.061107177734375,-0.2836627960205078,-0.36072996258735657,0.5222131013870239
1772525974994091300,1.07109130859375,-0.3250977098941803,-0.37589743733406067,0.4708048105239868
1772525975004074200,1.08107421875,-0.37383195757865906,-0.3387599289417267,0.41473034024238586
1772525975014057500,1.091057373046875,-0.42330339550971985,-0.27208054065704346,0.3426681458950043
1772525975024041200,1.101041259765625,-0.48160263895988464,-0.20392785966396332,0.26084330677986145
1772525975034024200,1.111024169921875,-0.5270645618438721,-0.13753367960453033,0.18400335311889648
1772525975044008200,1.12100830078125,-0.5616627335548401,-0.06363016366958618,0.11459498107433319
1772525975053991400,1.130991455078125,-0.5736466646194458,-0.004819897003471851,0.05083198845386505
1772525975063974400,1.140974365234375,-0.5687091946601868,0.028709033504128456,-0.0040293969213962555
1772525975073958400,1.15095849609375,-0.5406396985054016,0.047008100897073746,-0.04676039516925812
1772525975083941000,1.160941162109375,-0.4995010197162628,0.08942213654518127,-0.06428319960832596
1772525975093925000,1.170925048828125,-0.4433687627315521,0.12008120119571686,-0.05571194738149643
1772525975103908400,1.180908447265625,-0.36885562539100647,0.11618232727050781,-0.021934805437922478
1772525975113891300,1.190891357421875,-0.2995049059391022,0.07297885417938232,0.030049078166484833
1772525975123875300,1.200875244140625,-0.25523170828819275,0.007898923940956593,0.09279181808233261
1772525975133858300,1.2108583984375,-0.23862653970718384,-0.0539044514298439,0.15498404204845428
1772525975143842300,1.22084228515625,-0.23879778385162354,-0.10795809328556061,0.22248558700084686
1772525975153825300,1.2308251953125,-0.26124832034111023,-0.15928274393081665,0.29195818305015564
1772525975163808300,1.240808349609375,-0.2957431674003601,-0.19470971822738647,0.3522436320781708
1772525975173792300,1.250792236328125,-0.33282575011253357,-0.20202256739139557,0.3946359157562256
1772525975183775200,1.260775146484375,-0.36943116784095764,-0.18851633369922638,0.4134838879108429
1772525975193759200,1.27075927734375,-0.3921070694923401,-0.16397058963775635,0.40401044487953186
1772525975203742200,1.2807421875,-0.4122307300567627,-0.13612937927246094,0.3610997498035431
1772525975213725400,1.290725341796875,-0.4164581298828125,-0.09816284477710724,0.295555979013443
1772525975223709400,1.30070947265625,-0.3997611999511719,-0.06041759252548218,0.23646657168865204
1772525975233692400,1.3106923828125,-0.35071271657943726,-0.0430084653198719,0.1876152604818344
1772525975243676200,1.32067626953125,-0.2843904197216034,-0.05065520107746124,0.1442400962114334
1772525975253659100,1.3306591796875,-0.23408694565296173,-0.06410644203424454,0.10408290475606918
1772525975263642400,1.340642333984375,-0.21332253515720367,-0.06658877432346344,0.06684073060750961
1772525975273626400,1.35062646484375,-0.23565693199634552,-0.07949807494878769,0.022784370929002762
1772525975283609300,1.360609375,-0.2837887704372406,-0.09930906444787979,-0.022404411807656288
1772525975293593300,1.37059326171875,-0.34740662574768066,-0.10949422419071198,-0.05417659133672714
1772525975303576300,1.380576416015625,-0.4146152436733246,-0.10559003055095673,-0.06988311558961868
1772525975313559300,1.390559326171875,-0.4826638996601105,-0.0793832391500473,-0.057298172265291214
1772525975323543300,1.400543212890625,-0.531692385673523,-0.030234068632125854,-0.007131143473088741
1772525975333526300,1.4105263671875,-0.5589872598648071,0.023825863376259804,0.06278234720230103
1772525975343510300,1.42051025390625,-0.5565387606620789,0.08701521903276443,0.1545058786869049
1772525975353493200,1.4304931640625,-0.5182365775108337,0.12231273204088211,0.2501206398010254
1772525975363476200,1.440476318359375,-0.46322572231292725,0.12570053339004517,0.3336631953716278
1772525975373460200,1.450460205078125,-0.39633679389953613,0.07794928550720215,0.3744845688343048
1772525975383443500,1.460443359375,-0.33352988958358765,-0.003890719497576356,0.3707050085067749
1772525975393427500,1.470427490234375,-0.27851539850234985,-0.09878440201282501,0.3255561888217926
1772525975403410200,1.48041015625,-0.2302735447883606,-0.18505750596523285,0.25637713074684143
1772525975413393200,1.49039306640625,-0.2182837873697281,-0.2638559937477112,0.17415444552898407
1772525975423377200,1.500377197265625,-0.22611774504184723,-0.3300288915634155,0.09057939797639847
1772525975433360400,1.5103603515625,-0.2523269057273865,-0.37076708674430847,0.006953302305191755
1772525975443344400,1.520344482421875,-0.2867985963821411,-0.37967801094055176,-0.07273487001657486
1772525975453327000,1.5303271484375,-0.3185562491416931,-0.390533447265625,-0.14816837012767792
1772525975463310300,1.540310302734375,-0.3468773663043976,-0.40372544527053833,-0.20835953950881958
1772525975473294300,1.55029443359375,-0.36691683530807495,-0.418291836977005,-0.254271000623703
1772525975483277300,1.56027734375,-0.38112932443618774,-0.43271899223327637,-0.2718087136745453
1772525975493261300,1.57026123046875,-0.389843225479126,-0.45187556743621826,-0.27606281638145447
1772525975503244300,1.580244384765625,-0.391674667596817,-0.4581638276576996,-0.2525268793106079
1772525975513228300,1.590228271484375,-0.3812451958656311,-0.44927868247032166,-0.2093752771615982
1772525975523211300,1.600211181640625,-0.3676380515098572,-0.40410852432250977,-0.14701016247272491
1772525975533194200,1.6101943359375,-0.3381386399269104,-0.3617445230484009,-0.07539555430412292
1772525975543178200,1.62017822265625,-0.30384376645088196,-0.3102280795574188,-0.0004962808452546597
1772525975553161500,1.630161376953125,-0.2733413577079773,-0.25766441226005554,0.059718646109104156
1772525975563144200,1.640144287109375,-0.2622341215610504,-0.2133302241563797,0.10851840674877167
1772525975573128200,1.650128173828125,-0.26167866587638855,-0.16343460977077484,0.13713452219963074
1772525975583111200,1.660111083984375,-0.27180323004722595,-0.10321735590696335,0.13817422091960907
1772525975593095400,1.670095458984375,-0.26889166235923767,-0.04673381149768829,0.12407242506742477
1772525975603078400,1.680078369140625,-0.2668144106864929,0.02783789113163948,0.09560535848140717
1772525975613062400,1.6900625,-0.26040172576904297,0.101758673787117,0.056923702359199524
1772525975623045000,1.700045166015625,-0.26017242670059204,0.17260301113128662,0.017916914075613022
1772525975633028400,1.7100283203125,-0.26521775126457214,0.21613118052482605,-0.019196899607777596
1772525975643012400,1.720012451171875,-0.2675911784172058,0.21114733815193176,-0.05712404474616051
1772525975652995300,1.729995361328125,-0.27380359172821045,0.15632766485214233,-0.10066309571266174
1772525975662979300,1.739979248046875,-0.2884155511856079,0.05266304314136505,-0.15870508551597595
1772525975672962300,1.74996240234375,-0.3160381615161896,-0.06926725059747696,-0.2221444994211197
1772525975682945300,1.7599453125,-0.3534936308860779,-0.21161986887454987,-0.296364963054657
1772525975692929300,1.76992919921875,-0.3982616364955902,-0.37794139981269836,-0.3737638592720032
1772525975702912300,1.779912353515625,-0.4336627721786499,-0.5679278373718262,-0.4487672448158264
1772525975712896300,1.789896240234375,-0.44339078664779663,-0.7485308647155762,-0.5065647959709167
1772525975722879500,1.79987939453125,-0.41881194710731506,-0.8782350420951843,-0.5242484211921692
1772525975732862200,1.8098623046875,-0.3691169023513794,-0.933059811592102,-0.4854196608066559
1772525975742846200,1.81984619140625,-0.29486343264579773,-0.8909823894500732,-0.38232308626174927
1772525975752829400,1.829829345703125,-0.20782797038555145,-0.7499129176139832,-0.23126573860645294
1772525975762813400,1.8398134765625,-0.1331752985715866,-0.5825210213661194,-0.06303786486387253
1772525975772796400,1.84979638671875,-0.1212342157959938,-0.4419982433319092,0.0677393302321434
1772525975782779100,1.859779052734375,-0.18230502307415009,-0.28893473744392395,0.16044928133487701
1772525975792763100,1.86976318359375,-0.27715280652046204,-0.11593931913375854,0.22236837446689606
1772525975802746400,1.879746337890625,-0.368496835231781,0.01905072294175625,0.25515320897102356
1772525975812730400,1.88973046875,-0.4360184371471405,0.05317869037389755,0.23723085224628448
1772525975822713300,1.89971337890625,-0.4896571636199951,-0.0021636595483869314,0.18008872866630554
1772525975832696300,1.9096962890625,-0.5353066921234131,-0.042898792773485184,0.10799336433410645
1772525975842680300,1.919680419921875,-0.5728277564048767,-0.01473612803965807,0.04696809500455856
1772525975852663300,1.929663330078125,-0.5969609022140503,0.03509630262851715,-0.004099004436284304
1772525975862647300,1.939647216796875,-0.6237408518791199,0.08545827865600586,-0.04758016765117645
1772525975872630300,1.94963037109375,-0.6430678963661194,0.13419142365455627,-0.07899734377861023
1772525975882613200,1.95961328125,-0.6680885553359985,0.17968380451202393,-0.10260812938213348
1772525975892597200,1.96959716796875,-0.7007380127906799,0.23405081033706665,-0.11957387626171112
1772525975902580200,1.979580322265625,-0.7348805069923401,0.2933703064918518,-0.1190793365240097
1772525975912564200,1.989564208984375,-0.7702187299728394,0.33067095279693604,-0.10743924230337143
1772525975922547500,1.99954736328125,-0.7985624670982361,0.36254021525382996,-0.08341992646455765
1772525975932531500,2.009531494140625,-0.8229770064353943,0.37853366136550903,-0.03416568040847778
1772525975942514200,2.01951416015625,-0.8416958451271057,0.3754100501537323,0.030429288744926453
1772525975952497200,2.0294970703125,-0.8544429540634155,0.34059345722198486,0.10311728715896606
1772525975962481200,2.039481201171875,-0.8493552207946777,0.28055915236473083,0.17932498455047607
1772525975972464400,2.04946435546875,-0.8297568559646606,0.2007717490196228,0.2577829658985138
1772525975982448400,2.059448486328125,-0.7917178869247437,0.10835607349872589,0.3315639793872833
1772525975992431400,2.069431396484375,-0.7373313307762146,0.010388558730483055,0.40071558952331543
1772525976002414300,2.079414306640625,-0.6846156716346741,-0.06612192839384079,0.45655277371406555
1772525976012398300,2.0893984375,-0.6342067122459412,-0.11069677025079727,0.4958159625530243
1772525976022381300,2.09938134765625,-0.5958444476127625,-0.1107172742486,0.5313037037849426
1772525976032365300,2.109365234375,-0.5686032176017761,-0.08933068811893463,0.5602990984916687
1772525976042348300,2.119348388671875,-0.5438041090965271,-0.03768187761306763,0.5907105207443237
1772525976052331300,2.129331298828125,-0.5345412492752075,0.010658638551831245,0.6068180203437805
1772525976062315300,2.139315185546875,-0.5313254594802856,0.030816104263067245,0.596558153629303
1772525976072298200,2.14929833984375,-0.5420544743537903,0.03888747841119766,0.5496231913566589
1772525976082282200,2.1592822265625,-0.566204845905304,0.05084294080734253,0.45737794041633606
1772525976092265500,2.169265380859375,-0.6083698868751526,0.04993503540754318,0.33108457922935486
1772525976102248200,2.179248291015625,-0.6646411418914795,0.020638400688767433,0.17253783345222473
1772525976112232200,2.189232177734375,-0.7299091815948486,-0.04105696454644203,0.01600618101656437
1772525976122215200,2.199215087890625,-0.7796341180801392,-0.08133621513843536,-0.11268308758735657
1772525976132199200,2.20919921875,-0.8060699105262756,-0.09850077331066132,-0.2093895673751831
1772525976142182400,2.219182373046875,-0.8044368624687195,-0.0898316502571106,-0.2745091915130615
1772525976152165000,2.2291650390625,-0.7752845883369446,-0.05668441951274872,-0.31395086646080017
1772525976162149000,2.239149169921875,-0.7208817601203918,-0.010540359653532505,-0.3248778283596039
1772525976172132400,2.24913232421875,-0.6520366668701172,0.029818182811141014,-0.31560176610946655
1772525976182116400,2.259116455078125,-0.5750508308410645,0.05734141916036606,-0.2841455638408661
1772525976192099300,2.269099365234375,-0.5014001727104187,0.08696943521499634,-0.2282932698726654
1772525976202083300,2.279083251953125,-0.4345889091491699,0.09653790295124054,-0.15815067291259766
1772525976212066000,2.289066162109375,-0.3724449574947357,0.07715350389480591,-0.08849656581878662
1772525976222049300,2.29904931640625,-0.3068009614944458,0.03820344805717468,-0.02339239791035652
1772525976232033300,2.309033203125,-0.24283406138420105,-0.013697515241801739,0.02232479676604271
1772525976242016300,2.319016357421875,-0.17162805795669556,-0.08098387718200684,0.054120808839797974
1772525976252000300,2.329000244140625,-0.10633230954408646,-0.16873714327812195,0.06066467612981796
1772525976261983500,2.3389833984375,-0.047527045011520386,-0.26545730233192444,0.055743955075740814
1772525976271966200,2.34896630859375,-0.004338480066508055,-0.35962316393852234,0.0377887487411499
1772525976281950200,2.3589501953125,0.02033890411257744,-0.4338960647583008,0.023126181215047836
1772525976291933200,2.36893310546875,0.02448027953505516,-0.49961379170417786,-0.00409393385052681
1772525976301917400,2.37891748046875,0.0077854543924331665,-0.5600494146347046,-0.056662872433662415
1772525976311900400,2.388900390625,-0.03177206963300705,-0.6414676308631897,-0.15961988270282745
1772525976321883100,2.398883056640625,-0.09099490940570831,-0.72871333360672,-0.3180374801158905
1772525976331867000,2.408866943359375,-0.16952575743198395,-0.8030619621276855,-0.5169575810432434
1772525976341849900,2.418849853515625,-0.2684536576271057,-0.8037490844726562,-0.7313969135284424
1772525976351833900,2.428833740234375,-0.3826453983783722,-0.7099429368972778,-0.9157623052597046
1772525976361816800,2.43881689453125,-0.5024974942207336,-0.4800330698490143,-1.036952257156372
1772525976371800000,2.448800048828125,-0.5937419533729553,-0.16954785585403442,-1.0762698650360107
1772525976381784000,2.4587841796875,-0.6360028386116028,0.15737061202526093,-1.025838017463684
1772525976391767000,2.46876708984375,-0.6065714359283447,0.47675055265426636,-0.91364586353302
1772525976401750800,2.478750732421875,-0.5111008286476135,0.697113573551178,-0.7477333545684814
1772525976411733800,2.488733642578125,-0.3597850799560547,0.8476462364196777,-0.5482063889503479
1772525976421717800,2.4987177734375,-0.16943538188934326,0.9386796951293945,-0.33609387278556824
1772525976431701000,2.508700927734375,0.03030480071902275,0.9442901015281677,-0.15378698706626892
1772525976441684000,2.51868408203125,0.2179623246192932,0.8760873079299927,-0.019786305725574493
1772525976451668000,2.52866796875,0.37534472346305847,0.7357853651046753,0.05360082536935806
1772525976461651000,2.53865087890625,0.4871271848678589,0.5148268938064575,0.07966012507677078
1772525976471635000,2.548635009765625,0.5410705804824829,0.22590643167495728,0.06919749826192856
1772525976481618000,2.558617919921875,0.5517323017120361,-0.09083636105060577,0.0429304763674736
1772525976491601000,2.568600830078125,0.525433361530304,-0.39116817712783813,0.020154669880867004
1772525976501585000,2.5785849609375,0.47414758801460266,-0.6579751372337341,0.012954813428223133
1772525976511568000,2.58856787109375,0.39798852801322937,-0.8361821174621582,0.03723889961838722
1772525976521552000,2.5985517578125,0.2963031828403473,-0.9082459211349487,0.09782874584197998
1772525976531534800,2.608534912109375,0.19507989287376404,-0.876005232334137,0.19813257455825806
1772525976541518000,2.61851806640625,0.10142982751131058,-0.7590306997299194,0.3327825367450714
1772525976551502000,2.628502197265625,0.036988720297813416,-0.5964134931564331,0.46977463364601135
1772525976561484800,2.63848486328125,-0.002654294017702341,-0.4165010154247284,0.5812484622001648
1772525976571468800,2.64846875,-0.012168170884251595,-0.22833403944969177,0.6396108269691467
1772525976581451800,2.65845166015625,0.01758173480629921,-0.050371747463941574,0.6429190039634705
1772525976591436000,2.66843603515625,0.07336156070232391,0.11059845238924026,0.6044764518737793
1772525976601419000,2.6784189453125,0.15530942380428314,0.23467619717121124,0.532317578792572
1772525976611402000,2.688402099609375,0.24680095911026,0.3349137008190155,0.4650489091873169
1772525976621385700,2.6983857421875,0.34965652227401733,0.4174506366252899,0.41661161184310913
1772525976631369000,2.708368896484375,0.4402019679546356,0.47645440697669983,0.3892543911933899
1772525976641353000,2.71835302734375,0.5115717649459839,0.4937279522418976,0.37523868680000305
1772525976651336000,2.7283359375,0.5475783944129944,0.4793955981731415,0.3503224551677704
1772525976661319000,2.73831884765625,0.5573814511299133,0.4355841875076294,0.31688645482063293
1772525976671303000,2.748302978515625,0.5358744859695435,0.38245710730552673,0.2698099613189697
1772525976681286000,2.758285888671875,0.4923698902130127,0.31894388794898987,0.21136689186096191
1772525976691270000,2.768269775390625,0.4336042106151581,0.2341325879096985,0.13543754816055298
1772525976701252900,2.7782529296875,0.35234877467155457,0.10792752355337143,0.04640408232808113
1772525976711236000,2.788236083984375,0.2634309232234955,-0.03927435725927353,-0.03777006268501282
1772525976721220000,2.79822021484375,0.16230031847953796,-0.17165397107601166,-0.11398280411958694
1772525976731202800,2.808202880859375,0.058655932545661926,-0.28636637330055237,-0.17390446364879608
1772525976741186800,2.818186767578125,-0.03990020602941513,-0.3765660524368286,-0.22771257162094116
1772525976751169800,2.828169677734375,-0.1338183730840683,-0.4287712574005127,-0.26764947175979614
1772525976761154000,2.838154052734375,-0.2128833681344986,-0.42755764722824097,-0.29548829793930054
1772525976771137000,2.848136962890625,-0.2833764851093292,-0.34950554370880127,-0.29683956503868103
1772525976781119700,2.85811962890625,-0.3305903375148773,-0.21938911080360413,-0.28334611654281616
1772525976791103700,2.868103759765625,-0.3461155891418457,-0.06017002835869789,-0.2517023980617523
1772525976801087000,2.8780869140625,-0.3241783380508423,0.11119186878204346,-0.20859968662261963
1772525976811071000,2.888071044921875,-0.27137523889541626,0.27730482816696167,-0.16386021673679352
1772525976821054000,2.898053955078125,-0.206743523478508,0.3959433138370514,-0.13390205800533295
1772525976831037000,2.908036865234375,-0.14199958741664886,0.49220171570777893,-0.12666934728622437
1772525976841021000,2.91802099609375,-0.08505241572856903,0.6159867644309998,-0.1421460509300232
1772525976851004000,2.92800390625,-0.042548611760139465,0.7809572219848633,-0.1994241327047348
1772525976860988000,2.93798779296875,-0.014508720487356186,0.9973462820053101,-0.2828005254268646
1772525976870971000,2.947970947265625,0.02099599502980709,1.2474548816680908,-0.38206997513771057
1772525976880954000,2.9579541015625,0.05872579663991928,1.4601969718933105,-0.4998632073402405
1772525976890937900,2.967937744140625,0.08778221160173416,1.576563835144043,-0.6187595725059509
1772525976900920800,2.9779208984375,0.1034967228770256,1.5938026905059814,-0.7244881391525269
1772525976910904800,2.98790478515625,0.10076877474784851,1.510981559753418,-0.8005841970443726
1772525976920888000,2.99788818359375,0.06826036423444748,1.310754418373108,-0.8274773359298706
1772525976930871000,3.00787109375,0.01950232684612274,1.0224196910858154,-0.7930145263671875
1772525976940855000,3.01785498046875,-0.02732589840888977,0.6903718709945679,-0.698754608631134
1772525976950837800,3.027837646484375,-0.07481459528207779,0.3238031268119812,-0.5500925779342651
1772525976960821800,3.03782177734375,-0.12501278519630432,-0.052655186504125595,-0.35593852400779724
1772525976970805000,3.047804931640625,-0.16642211377620697,-0.3740793764591217,-0.12230150401592255
1772525976980789000,3.0577890625,-0.20375722646713257,-0.6182008981704712,0.12963007390499115
1772525976990772000,3.06777197265625,-0.2342553287744522,-0.8083131313323975,0.3547019958496094
1772525977000755000,3.0777548828125,-0.2670782208442688,-0.9561188220977783,0.5174323320388794
1772525977010739000,3.087739013671875,-0.2912740111351013,-1.0677343606948853,0.6096233129501343
1772525977020722000,3.097721923828125,-0.3162137269973755,-1.1306275129318237,0.6249263882637024
1772525977030706000,3.107705810546875,-0.3520384728908539,-1.1563032865524292,0.5636998414993286
1772525977040689000,3.11768896484375,-0.38802284002304077,-1.1221773624420166,0.45310914516448975
1772525977050671900,3.127671875,-0.41843321919441223,-1.0252925157546997,0.32218068838119507
1772525977060655900,3.13765576171875,-0.42035841941833496,-0.8625691533088684,0.19913946092128754
1772525977070638800,3.147638916015625,-0.37946027517318726,-0.6788854002952576,0.09842364490032196
1772525977080622800,3.157622802734375,-0.2968932092189789,-0.480814129114151,0.0406479649245739
1772525977090606000,3.167606201171875,-0.1935572624206543,-0.28031739592552185,0.025324009358882904
1772525977100588800,3.1775888671875,-0.07280074059963226,-0.08953146636486053,0.04839017987251282
1772525977110572800,3.18757275390625,0.015058107674121857,-0.031693633645772934,0.07104577869176865
1772525977120555800,3.1975556640625,0.02078869752585888,-0.12732508778572083,0.08469980955123901
1772525977130539800,3.207539794921875,-0.03348429501056671,-0.2501932978630066,0.09650621563196182
1772525977140523000,3.21752294921875,-0.10714706033468246,-0.3162069618701935,0.12211437523365021
1772525977150507000,3.227507080078125,-0.15011157095432281,-0.3603616952896118,0.1532600373029709
1772525977160489700,3.23748974609375,-0.16420848667621613,-0.42209428548812866,0.17787350714206696
1772525977170473000,3.247472900390625,-0.17466939985752106,-0.47219598293304443,0.1866128146648407
1772525977180457000,3.25745703125,-0.18677054345607758,-0.48917174339294434,0.1758192777633667
1772525977190440000,3.26743994140625,-0.20600759983062744,-0.49188104271888733,0.1459677666425705
1772525977200424000,3.277423828125,-0.2220451533794403,-0.5022295713424683,0.0781162902712822
1772525977210407000,3.287406982421875,-0.25490376353263855,-0.5039007067680359,-0.021147985011339188
1772525977220390000,3.297389892578125,-0.2950221598148346,-0.489241361618042,-0.1462198793888092
1772525977230374000,3.307373779296875,-0.3272755444049835,-0.45577704906463623,-0.2794267535209656
1772525977240356900,3.31735693359375,-0.3387841284275055,-0.4293883442878723,-0.401970773935318
1772525977250340900,3.3273408203125,-0.3279830515384674,-0.4110114276409149,-0.4878304600715637
1772525977260324000,3.337323974609375,-0.3098035156726837,-0.37067198753356934,-0.5212539434432983
1772525977270308000,3.34730810546875,-0.2954813838005066,-0.3026232421398163,-0.48925068974494934
1772525977280290800,3.357290771484375,-0.27206847071647644,-0.21871767938137054,-0.38129734992980957
1772525977290273800,3.367273681640625,-0.22639799118041992,-0.10804211348295212,-0.201157346367836
1772525977300258000,3.377258056640625,-0.1485319584608078,-0.00305071659386158,0.027473166584968567
1772525977310241000,3.387240966796875,-0.060722291469573975,0.039607055485248566,0.25982174277305603
1772525977320225000,3.39722509765625,0.010724990628659725,0.0035989892203360796,0.4551427662372589
1772525977330207500,3.40720751953125,0.06521441787481308,-0.08428694307804108,0.5909337401390076
1772525977340190700,3.417190673828125,0.10091755539178848,-0.19153989851474762,0.6646491885185242
1772525977350174500,3.427174560546875,0.12647829949855804,-0.29789257049560547,0.6747204661369324
1772525977360157400,3.437157470703125,0.12559333443641663,-0.40905824303627014,0.6319509148597717
1772525977370141400,3.447141357421875,0.12297569960355759,-0.48947739601135254,0.5637248754501343
1772525977380124700,3.457124755859375,0.09791428595781326,-0.5343330502510071,0.4735366702079773
1772525977390107600,3.467107666015625,0.03969918191432953,-0.556080162525177,0.36410951614379883
1772525977400091600,3.477091552734375,-0.036748189479112625,-0.5593723654747009,0.24204114079475403
1772525977410074400,3.487074462890625,-0.11728866398334503,-0.5389803647994995,0.12541629374027252
1772525977420058400,3.497058349609375,-0.1896137297153473,-0.48188507556915283,0.04371717572212219
1772525977430041600,3.50704150390625,-0.2591919004917145,-0.40763401985168457,-0.006260818336158991
1772525977440024600,3.517024658203125,-0.30334553122520447,-0.288128137588501,-0.01099778339266777
1772525977450008600,3.527008544921875,-0.3144356906414032,-0.13192623853683472,0.018278472125530243
1772525977459991600,3.536991455078125,-0.2954990267753601,0.015200357884168625,0.07015152275562286
1772525977469975600,3.5469755859375,-0.23860028386116028,0.1420745700597763,0.1271551251411438
1772525977479958500,3.55695849609375,-0.15166831016540527,0.24479535222053528,0.1830569952726364
1772525977489942500,3.566942626953125,-0.053046565502882004,0.32180914282798767,0.22246813774108887
1772525977499925500,3.576925537109375,0.030274957418441772,0.3714211583137512,0.2399131804704666
1772525977509908500,3.586908447265625,0.0829949900507927,0.3936873972415924,0.23608750104904175
1772525977519892500,3.596892578125,0.1169431060552597,0.40148648619651794,0.21923476457595825
1772525977529875500,3.60687548828125,0.13697955012321472,0.3925875425338745,0.19616542756557465
1772525977539859500,3.616859375,0.15474364161491394,0.37831273674964905,0.17245690524578094
1772525977549842700,3.6268427734375,0.1640922576189041,0.36414697766304016,0.15705285966396332
1772525977559825700,3.63682568359375,0.16704915463924408,0.35191747546195984,0.14549420773983002
1772525977569809400,3.646809326171875,0.16997313499450684,0.34585705399513245,0.14199985563755035
1772525977579792400,3.65679248046875,0.16765831410884857,0.3209573030471802,0.12509863078594208
1772525977589776600,3.666776611328125,0.16704408824443817,0.25841253995895386,0.10290029644966125
1772525977599759600,3.676759521484375,0.17675797641277313,0.1802937388420105,0.0893075168132782
1772525977609743600,3.68674365234375,0.18633735179901123,0.10912522673606873,0.09069954603910446
1772525977619726600,3.6967265625,0.19955915212631226,0.04038158059120178,0.10633842647075653
1772525977629709600,3.70670947265625,0.2078857123851776,-0.03833538293838501,0.12579698860645294
1772525977639693600,3.716693603515625,0.22365109622478485,-0.1269821673631668,0.1474599391222
1772525977649676500,3.726676513671875,0.23638080060482025,-0.20806317031383514,0.16080646216869354
1772525977659660500,3.73666064453125,0.24403712153434753,-0.2704562544822693,0.1622008979320526
1772525977669643500,3.7466435546875,0.243264839053154,-0.3064325451850891,0.15593673288822174
1772525977679626500,3.75662646484375,0.22219976782798767,-0.3084581196308136,0.14155007898807526
1772525977689610500,3.766610595703125,0.1813013255596161,-0.28511711955070496,0.12378598749637604
1772525977699593500,3.776593505859375,0.1364222764968872,-0.2175106406211853,0.10645999759435654
1772525977709577500,3.786577392578125,0.0936928316950798,-0.1375543773174286,0.08543199300765991
1772525977719560700,3.796560791015625,0.07695166766643524,-0.037869859486818314,0.06532752513885498
1772525977729543400,3.80654345703125,0.08542211353778839,0.0627608448266983,0.04599124938249588
1772525977739527400,3.81652734375,0.12022963166236877,0.18069493770599365,0.033132974058389664
1772525977749510400,3.826510498046875,0.18698647618293762,0.32814231514930725,0.02564060688018799
1772525977759494700,3.83649462890625,0.27975180745124817,0.47749000787734985,0.02402007393538952
1772525977769477600,3.8464775390625,0.3898073136806488,0.515616238117218,-0.0017142221331596375
1772525977779461600,3.856461669921875,0.4705740511417389,0.35646310448646545,-0.0726427286863327
1772525977789444400,3.8664443359375,0.49659350514411926,0.07739199697971344,-0.195197194814682
1772525977799427600,3.876427490234375,0.46387577056884766,-0.1333753615617752,-0.3139701783657074
1772525977809411600,3.88641162109375,0.4095437526702881,-0.19671936333179474,-0.3799154758453369
1772525977819394600,3.89639453125,0.34853842854499817,-0.18573196232318878,-0.3984156548976898
1772525977829378600,3.906378662109375,0.2779783308506012,-0.16161099076271057,-0.3754841387271881
1772525977839361500,3.916361572265625,0.2234104424715042,-0.08581557124853134,-0.313406378030777
1772525977849344500,3.926344482421875,0.19975019991397858,0.054891154170036316,-0.23274166882038116
1772525977859328500,3.93632861328125,0.21838033199310303,0.21474501490592957,-0.16190451383590698
1772525977869311500,3.9463115234375,0.26775065064430237,0.348616361618042,-0.11990559846162796
1772525977879295500,3.95629541015625,0.3455365300178528,0.43022122979164124,-0.10836771130561829
1772525977889278700,3.96627880859375,0.4493806064128876,0.4738070070743561,-0.1063198670744896
1772525977899262500,3.976262451171875,0.568088948726654,0.4786987006664276,-0.10214082896709442
1772525977909245400,3.986245361328125,0.6685975193977356,0.4379967153072357,-0.08820246160030365
1772525977919228700,3.996228759765625,0.7375630140304565,0.3791144788265228,-0.05627436190843582
1772525977929212700,4.006212646484375,0.7663889527320862,0.32796522974967957,-0.011300012469291687
1772525977939195600,4.016195556640625,0.7497944831848145,0.2959018349647522,0.029400011524558067
1772525977949179600,4.0261796875,0.7103630304336548,0.29227569699287415,0.0689656212925911
1772525977959162400,4.036162353515625,0.6695431470870972,0.31486064195632935,0.10253849625587463
1772525977969145600,4.0461455078125,0.6465238332748413,0.38144004344940186,0.1425037980079651
1772525977979129600,4.056129638671875,0.6592332124710083,0.48348546028137207,0.18910245597362518
1772525977989112600,4.066112548828125,0.7004438638687134,0.5894026756286621,0.23777233064174652
1772525977999096600,4.0760966796875,0.7534833550453186,0.6635879278182983,0.2742730975151062
1772525978009079600,4.08607958984375,0.8059785962104797,0.6787542700767517,0.2939044237136841
1772525978019062500,4.0960625,0.8496895432472229,0.641589343547821,0.28906917572021484
1772525978029046500,4.106046630859375,0.8727468848228455,0.5780869126319885,0.2545848786830902
1772525978039029500,4.116029541015625,0.879810631275177,0.5150845050811768,0.19736315310001373
1772525978049013500,4.126013427734375,0.8816623091697693,0.4118126630783081,0.1208520382642746
1772525978058996500,4.13599658203125,0.8604848384857178,0.24774064123630524,0.01616530679166317
1772525978068980500,4.14598046875,0.807632565498352,0.042826127260923386,-0.11303480714559555
1772525978078963500,4.15596337890625,0.7400453090667725,-0.1663776934146881,-0.26668936014175415
1772525978088946700,4.16594677734375,0.6517165899276733,-0.3743757903575897,-0.442722350358963
1772525978098930700,4.1759306640625,0.554084837436676,-0.5510683059692383,-0.6140059232711792
1772525978108913700,4.18591357421875,0.44817277789115906,-0.7241841554641724,-0.7712213397026062
1772525978118897400,4.1958974609375,0.33957892656326294,-0.8799316883087158,-0.903930127620697
1772525978128880400,4.20588037109375,0.22345417737960815,-0.9671679139137268,-0.9901215434074402
1772525978138863600,4.215863525390625,0.11745930463075638,-0.9538278579711914,-0.9975162744522095
1772525978148847600,4.22584765625,0.017565326765179634,-0.8124807476997375,-0.901769757270813
1772525978158830600,4.23583056640625,-0.048978548496961594,-0.5937798023223877,-0.7269611954689026
1772525978168814600,4.245814697265625,-0.05801866948604584,-0.35294392704963684,-0.531894326210022
1772525978178797600,4.255797607421875,-0.0015878826379776,-0.10927773267030716,-0.32239142060279846
1772525978188781600,4.265781494140625,0.1323765069246292,0.10082925856113434,-0.11534702032804489
1772525978198764500,4.2757646484375,0.30542072653770447,0.2640213966369629,0.06425575911998749
1772525978208747500,4.28574755859375,0.49017101526260376,0.37332767248153687,0.19333112239837646
1772525978218731500,4.2957314453125,0.6475480794906616,0.43151000142097473,0.28068652749061584
1772525978228714500,4.305714599609375,0.7653471231460571,0.4558042287826538,0.3252924978733063
1772525978238698500,4.315698486328125,0.844488263130188,0.43532079458236694,0.3470419943332672
1772525978248681500,4.325681396484375,0.8805168867111206,0.3861949145793915,0.3514655530452728
1772525978258664700,4.335664794921875,0.8854532837867737,0.30931931734085083,0.34525078535079956
1772525978268648700,4.345648681640625,0.8547326922416687,0.23195315897464752,0.33324873447418213
1772525978278631400,4.35563134765625,0.7976208925247192,0.16233493387699127,0.3190663158893585
1772525978288615400,4.365615478515625,0.7210186123847961,0.10705698281526566,0.3097023367881775
1772525978298598400,4.375598388671875,0.6347457766532898,0.062450893223285675,0.3035410940647125
1772525978308582700,4.385582763671875,0.5484719276428223,0.010737587697803974,0.29995113611221313
1772525978318565600,4.395565673828125,0.46985143423080444,-0.013063082471489906,0.30083370208740234
1772525978328548900,4.405548828125,0.3924280107021332,-0.03131212666630745,0.2805745005607605
1772525978338532900,4.415532958984375,0.32325509190559387,-0.04126233980059624,0.2340494692325592
1772525978348516000,4.42551611328125,0.2603549361228943,-0.054385166615247726,0.1536828726530075
1772525978358500000,4.4355,0.20977887511253357,-0.06106783449649811,0.040035128593444824
1772525978368483000,4.445483154296875,0.16539320349693298,-0.06387275457382202,-0.07112675905227661
1772525978378465800,4.4554658203125,0.11616066843271255,-0.07849723845720291,-0.17223340272903442
1772525978388449800,4.46544970703125,0.07459548860788345,-0.11134295910596848,-0.24199749529361725
1772525978398433000,4.47543310546875,0.038190606981515884,-0.15891021490097046,-0.2602579891681671
1772525978408417000,4.4854169921875,0.016400258988142014,-0.20000189542770386,-0.226654052734375
1772525978418400000,4.49539990234375,0.006199819967150688,-0.20038485527038574,-0.1457970142364502
1772525978428383000,4.505383056640625,0.024908263236284256,-0.131914883852005,-0.029311545193195343
1772525978438367000,4.515366943359375,0.058643586933612823,-0.1481684297323227,0.08308051526546478
1772525978448350000,4.525349853515625,0.07078920304775238,-0.3216041326522827,0.1598125696182251
1772525978458334000,4.535333984375,0.04469342157244682,-0.5495233535766602,0.1891382336616516
1772525978468317000,4.54531689453125,-0.014380205422639847,-0.6948800683021545,0.19672873616218567
1772525978478301000,4.555301025390625,-0.09145794808864594,-0.7704962491989136,0.19449062645435333
1772525978488284000,4.565283935546875,-0.17875565588474274,-0.8440054655075073,0.17266404628753662
1772525978498267000,4.575266845703125,-0.29707083106040955,-0.8917668461799622,0.12523901462554932
1772525978508251000,4.5852509765625,-0.4198129177093506,-0.8278025388717651,0.06498522311449051
1772525978518234000,4.595234130859375,-0.5200420022010803,-0.6570212244987488,0.003308007027953863
1772525978528218000,4.605218017578125,-0.592248797416687,-0.4522040784358978,-0.07211089879274368
1772525978538200800,4.615200927734375,-0.6425803899765015,-0.2621760964393616,-0.16901640594005585
1772525978548183800,4.625183837890625,-0.6650351285934448,-0.09597820043563843,-0.26881811022758484
1772525978558167800,4.635167724609375,-0.6479994058609009,0.04142732545733452,-0.36092644929885864
1772525978568151000,4.645151123046875,-0.5912713408470154,0.15783436596393585,-0.43200305104255676
1772525978578135000,4.655135009765625,-0.5028368234634399,0.2782646417617798,-0.4637865424156189
1772525978588118000,4.665117919921875,-0.4001653492450714,0.3905952572822571,-0.45198553800582886
1772525978598101000,4.67510107421875,-0.3102663457393646,0.5069774985313416,-0.3811725974082947
1772525978608085000,4.6850849609375,-0.2265159636735916,0.6310775876045227,-0.26422274112701416
1772525978618068000,4.69506787109375,-0.1512414515018463,0.7248972654342651,-0.11418183892965317
1772525978628052000,4.705052001953125,-0.09011580049991608,0.7395148873329163,0.029658831655979156
1772525978638035000,4.715034912109375,-0.04807513952255249,0.6722525358200073,0.1487322300672531
1772525978648019200,4.725019287109375,-0.023754093796014786,0.5243450999259949,0.23710709810256958
1772525978658002000,4.735001953125,-0.02082195319235325,0.3086535930633545,0.3128258287906647
1772525978667985000,4.74498486328125,-0.04467969387769699,0.08493515104055405,0.3899095952510834
1772525978677969000,4.754968994140625,-0.08083423227071762,-0.1212230771780014,0.4881669282913208
1772525978687952100,4.7649521484375,-0.11570870131254196,-0.3352263569831848,0.5931556820869446
1772525978697936100,4.77493603515625,-0.15016041696071625,-0.5686426162719727,0.6806679368019104
1772525978707918800,4.7849189453125,-0.1703764647245407,-0.7759160399436951,0.7461665272712708
1772525978717901800,4.79490185546875,-0.18611468374729156,-0.9173437356948853,0.7840439081192017
1772525978727886000,4.804885986328125,-0.20426863431930542,-0.9575368165969849,0.7979331016540527
1772525978737869000,4.814869140625,-0.22252805531024933,-0.9249022006988525,0.7838926315307617
1772525978747853000,4.82485302734375,-0.23858657479286194,-0.8398922681808472,0.7405035495758057
1772525978757835800,4.834835693359375,-0.2393181473016739,-0.6886782646179199,0.6797201037406921
1772525978767819800,4.84481982421875,-0.22514677047729492,-0.4808790385723114,0.6033663749694824
1772525978777803000,4.854802978515625,-0.1860550343990326,-0.253622442483902,0.5147110819816589
1772525978787786000,4.864785888671875,-0.13469721376895905,-0.03421184420585632,0.418779194355011
1772525978797770000,4.87477001953125,-0.06906439363956451,0.17075034976005554,0.32267290353775024
1772525978807753000,4.8847529296875,-0.006888457108289003,0.3444143533706665,0.2310359627008438
1772525978817737000,4.894737060546875,0.04579286277294159,0.4831961989402771,0.15700168907642365
1772525978827720000,4.904719970703125,0.07256889343261719,0.5759819149971008,0.09769318997859955
1772525978837703000,4.914702880859375,0.07808084040880203,0.6233736872673035,0.06124277040362358
1772525978847687000,4.92468701171875,0.08398222923278809,0.6342312693595886,0.03734804689884186
1772525978857670100,4.934670166015625,0.08977433294057846,0.613658607006073,0.024678591638803482
1772525978867654000,4.94465380859375,0.09415923804044724,0.5638068914413452,0.01992257684469223
1772525978877636900,4.954636962890625,0.10777492076158524,0.4899830222129822,0.015788020566105843
1772525978887620000,4.9646201171875,0.12305594235658646,0.4111963212490082,0.018115052953362465
1772525978897604000,4.97460400390625,0.13865621387958527,0.3164607584476471,0.026079237461090088
1772525978907587000,4.984587158203125,0.1556769460439682,0.20391231775283813,0.03220560401678085
1772525978917571000,4.994571044921875,0.1596655547618866,0.07343979924917221,0.03361388295888901
1772525978927553800,5.0045537109375,0.1623639315366745,-0.053251586854457855,0.039386920630931854
1772525978937537800,5.014537841796875,0.1581670492887497,-0.1744358092546463,0.047326333820819855
1772525978947521000,5.02452099609375,0.15146778523921967,-0.27845102548599243,0.06195259094238281
1772525978957504000,5.03450390625,0.13523796200752258,-0.36572492122650146,0.07575974613428116
1772525978967488000,5.044488037109375,0.11516286432743073,-0.4124722480773926,0.0854237899184227
1772525978977471000,5.054470947265625,0.09051424264907837,-0.4227946698665619,0.07796267420053482
1772525978987455000,5.064455078125,0.06931363791227341,-0.41448286175727844,0.03525727614760399
1772525978997438000,5.07443798828125,0.03768673539161682,-0.3703779876232147,-0.0383295938372612
1772525979007421000,5.0844208984375,0.0030019786208868027,-0.30147212743759155,-0.13629169762134552
1772525979017405000,5.094405029296875,-0.03734198212623596,-0.2108820229768753,-0.24793779850006104
1772525979027388000,5.104387939453125,-0.08500989526510239,-0.09761546552181244,-0.3480793237686157
1772525979037372000,5.114371826171875,-0.13425199687480927,0.043466027826070786,-0.4195886552333832
1772525979047355000,5.12435498046875,-0.17370977997779846,0.20465222001075745,-0.45305880904197693
1772525979057338000,5.134338134765625,-0.1998998373746872,0.3603725731372833,-0.4529477655887604
1772525979067322000,5.144322021484375,-0.2160124033689499,0.46010512113571167,-0.44344669580459595
1772525979077304800,5.154304931640625,-0.2144448608160019,0.49388012290000916,-0.42833593487739563
1772525979087288800,5.164288818359375,-0.20340348780155182,0.47092387080192566,-0.40879878401756287
1772525979097271800,5.174271728515625,-0.17706243693828583,0.4574514627456665,-0.3761281967163086
1772525979107255800,5.184255859375,-0.12674757838249207,0.4991309344768524,-0.3162177503108978
1772525979117239000,5.194239013671875,-0.04513900727033615,0.5063872337341309,-0.255161315202713
1772525979127222000,5.204221923828125,0.023836512118577957,0.43000245094299316,-0.21745876967906952
1772525979137205800,5.214205810546875,0.0507671982049942,0.3296705186367035,-0.22585678100585938
1772525979147189000,5.22418896484375,0.04401669278740883,0.26439547538757324,-0.2681679129600525
1772525979157173000,5.234173095703125,0.016488399356603622,0.2026333063840866,-0.34758710861206055
1772525979167156000,5.244156005859375,-0.03825312852859497,0.07988594472408295,-0.4602268636226654
1772525979177139000,5.254138916015625,-0.1267198771238327,-0.07676997780799866,-0.5788426995277405
1772525979187123000,5.264123046875,-0.2278779149055481,-0.17122884094715118,-0.6679126620292664
1772525979197106000,5.27410595703125,-0.31055790185928345,-0.18428045511245728,-0.7040672302246094
1772525979207090000,5.28408984375,-0.3686307966709137,-0.16712234914302826,-0.700033962726593
1772525979217073000,5.294072998046875,-0.3700398802757263,-0.1541634052991867,-0.6567951440811157
1772525979227057000,5.304056884765625,-0.3004481792449951,-0.16357016563415527,-0.5881534218788147
1772525979237040000,5.3140400390625,-0.17855024337768555,-0.17226912081241608,-0.5029700994491577
1772525979247022800,5.32402294921875,-0.015028326772153378,-0.18889915943145752,-0.40719330310821533
1772525979257006800,5.3340068359375,0.1639201045036316,-0.18678727746009827,-0.2960103154182434
1772525979266989800,5.34398974609375,0.3341119885444641,-0.18852636218070984,-0.19010581076145172
1772525979276974000,5.35397412109375,0.4544088542461395,-0.19749216735363007,-0.09792207181453705
1772525979286957000,5.36395703125,0.5315890312194824,-0.21662601828575134,-0.02677874267101288
1772525979296939800,5.373939697265625,0.5696959495544434,-0.2360559105873108,0.041779279708862305
1772525979306923800,5.383923828125,0.5801013112068176,-0.241574227809906,0.10394087433815002
1772525979316907000,5.393906982421875,0.5732899904251099,-0.22065135836601257,0.15981613099575043
1772525979326891000,5.40389111328125,0.5700230598449707,-0.1577000916004181,0.20940418541431427
1772525979336873500,5.41387353515625,0.5703176259994507,-0.0810287594795227,0.2360145002603531
1772525979346856700,5.423856689453125,0.5664567351341248,-0.032947298139333725,0.22445254027843475
1772525979356840700,5.4338408203125,0.5651392936706543,-0.0017797909677028656,0.17054483294487
1772525979366823700,5.44382373046875,0.5575639009475708,0.025890087708830833,0.09084935486316681
1772525979376807700,5.4538076171875,0.5481171607971191,0.039676204323768616,-0.00786497537046671
1772525979386790400,5.463790283203125,0.5318999290466309,0.024522598832845688,-0.10845647752285004
1772525979396774700,5.473774658203125,0.5051140785217285,-0.022486189380288124,-0.21110081672668457
1772525979406757600,5.483757568359375,0.4662972688674927,-0.09634888917207718,-0.3103824555873871
1772525979416740600,5.49374072265625,0.4234808385372162,-0.1781843602657318,-0.39117369055747986
1772525979426724600,5.503724609375,0.38983845710754395,-0.2352782040834427,-0.44380494952201843
1772525979436707600,5.51370751953125,0.35728079080581665,-0.26215508580207825,-0.46274909377098083
1772525979446691600,5.523691650390625,0.32940343022346497,-0.2750403583049774,-0.44264692068099976
1772525979456674600,5.533674560546875,0.3098504841327667,-0.28557315468788147,-0.372248113155365
1772525979466657500,5.543657470703125,0.30862748622894287,-0.26634547114372253,-0.2530148923397064
1772525979476641500,5.5536416015625,0.33179381489753723,-0.20612555742263794,-0.08565600216388702
1772525979486624500,5.56362451171875,0.3856009244918823,-0.11365009099245071,0.09827078878879547
1772525979496608500,5.5736083984375,0.4539310038089752,-0.02813545987010002,0.2771252393722534
1772525979506591500,5.583591552734375,0.5371596217155457,0.04583687335252762,0.42418426275253296
1772525979516574700,5.59357470703125,0.6176313161849976,0.09999518096446991,0.5361039042472839
1772525979526558700,5.603558837890625,0.6882093548774719,0.1521224081516266,0.6075382232666016
1772525979536541700,5.613541748046875,0.7380924820899963,0.21072979271411896,0.6369627118110657
1772525979546525400,5.623525390625,0.7628245949745178,0.28268763422966003,0.6332764625549316
1772525979556508400,5.63350830078125,0.7693341374397278,0.3357625901699066,0.6032397150993347
1772525979566492700,5.64349267578125,0.7595199942588806,0.37708306312561035,0.5622158050537109
1772525979576475600,5.6534755859375,0.7266238331794739,0.4046212136745453,0.5193109512329102
1772525979586458600,5.663458740234375,0.6844955682754517,0.4324745833873749,0.4772476255893707
1772525979596442600,5.673442626953125,0.6356377005577087,0.4566560685634613,0.43981343507766724
1772525979606425600,5.683425537109375,0.5849716663360596,0.45905253291130066,0.4072387218475342
1772525979616409600,5.69340966796875,0.5304034948348999,0.4423835277557373,0.37636440992355347
1772525979626392600,5.703392578125,0.4732626974582672,0.4045794904232025,0.3452432453632355
1772525979636375600,5.71337548828125,0.41468727588653564,0.3480871915817261,0.31624194979667664
1772525979646359800,5.72335986328125,0.35124650597572327,0.2897404730319977,0.29314446449279785
1772525979656342500,5.733342529296875,0.2851114273071289,0.2385694533586502,0.26796776056289673
1772525979666326500,5.743326416015625,0.218687042593956,0.20811070501804352,0.23577991127967834
1772525979676309500,5.7533095703125,0.15130028128623962,0.1863342970609665,0.18972933292388916
1772525979686293500,5.76329345703125,0.08332384377717972,0.16543100774288177,0.1289282888174057
1772525979696276700,5.77327685546875,0.010737523436546326,0.14720673859119415,0.05532331392168999
1772525979706259500,5.783259521484375,-0.07435815036296844,0.1321607381105423,-0.021533112972974777
1772525979716243500,5.793243408203125,-0.158223494887352,0.11343125998973846,-0.10387779027223587
1772525979726226700,5.803226806640625,-0.23688997328281403,0.08384724706411362,-0.16671578586101532
1772525979736210700,5.813210693359375,-0.29316550493240356,0.05775412172079086,-0.20033100247383118
1772525979746193700,5.823193603515625,-0.33005693554878235,0.02843422070145607,-0.19959662854671478
1772525979756176400,5.83317626953125,-0.34983062744140625,-0.012148626148700714,-0.1705399453639984
1772525979766160400,5.843160400390625,-0.35936129093170166,-0.049457285553216934,-0.12219119071960449
1772525979776143600,5.8531435546875,-0.365202397108078,-0.09563516080379486,-0.05544251948595047
1772525979786127600,5.863127685546875,-0.37738317251205444,-0.14043991267681122,0.031173331663012505
1772525979796110600,5.873110595703125,-0.37262624502182007,-0.13400492072105408,0.13527576625347137
1772525979806093600,5.883093505859375,-0.3432762622833252,-0.11138306558132172,0.24029015004634857
1772525979816077600,5.89307763671875,-0.3067517876625061,-0.18698568642139435,0.2963227927684784
1772525979826060500,5.903060546875,-0.29278430342674255,-0.34210720658302307,0.2840999662876129
1772525979836044500,5.91304443359375,-0.3173202872276306,-0.47439253330230713,0.21056129038333893
1772525979846027500,5.923027587890625,-0.37368518114089966,-0.5131223201751709,0.09887771308422089
1772525979856011500,5.933011474609375,-0.45313820242881775,-0.5242327451705933,-0.02518724650144577
1772525979865994800,5.942994873046875,-0.5570986270904541,-0.5253892540931702,-0.14839988946914673
1772525979875977500,5.9529775390625,-0.6919621825218201,-0.4602283835411072,-0.2573767304420471
1772525979885961500,5.96296142578125,-0.8203949928283691,-0.29125455021858215,-0.33546552062034607
1772525979895944700,5.97294482421875,-0.9261818528175354,-0.050292547792196274,-0.39143264293670654
1772525979905928700,5.9829287109375,-0.9859314560890198,0.20720407366752625,-0.4468294680118561
1772525979915911700,5.99291162109375,-0.9967039227485657,0.42809489369392395,-0.5192471742630005
1772525979925894400,6.002894287109375,-0.9678747057914734,0.5791237354278564,-0.5944551229476929
1772525979935878400,6.01287841796875,-0.9020459055900574,0.6521217823028564,-0.6635399460792542
1772525979945861600,6.022861572265625,-0.8139853477478027,0.6416907906532288,-0.7065542340278625
1772525979955845600,6.032845703125,-0.7330100536346436,0.5622318983078003,-0.7069302797317505
1772525979965828600,6.04282861328125,-0.653213381767273,0.4395201504230499,-0.6594254970550537
1772525979975811600,6.0528115234375,-0.5823299288749695,0.2944870889186859,-0.568626344203949
1772525979985795600,6.062795654296875,-0.5202999114990234,0.16625268757343292,-0.43983542919158936
1772525979995778600,6.072778564453125,-0.46380817890167236,0.07353393733501434,-0.2902102470397949
1772525980005762600,6.082762451171875,-0.41015684604644775,0.014790008775889874,-0.1356114000082016
1772525980015745500,6.09274560546875,-0.3553532361984253,-0.024886030703783035,0.0015792129561305046
1772525980025728500,6.102728515625,-0.29585424065589905,-0.07454832643270493,0.11079225689172745
1772525980035712500,6.11271240234375,-0.23274663090705872,-0.13146646320819855,0.18172875046730042
1772525980045695500,6.122695556640625,-0.16951756179332733,-0.1758238971233368,0.21682347357273102
1772525980055679500,6.132679443359375,-0.11318638920783997,-0.1897711455821991,0.22989478707313538
1772525980065662700,6.142662841796875,-0.053496792912483215,-0.18934212625026703,0.22524629533290863
1772525980075646700,6.152646728515625,0.0038668974302709103,-0.20693549513816833,0.20066319406032562
1772525980085629700,6.162629638671875,0.04850609600543976,-0.288320928812027,0.14908957481384277
1772525980095612400,6.1726123046875,0.0622091218829155,-0.42376479506492615,0.06738778203725815
1772525980105596400,6.182596435546875,0.050067588686943054,-0.5586494207382202,-0.027551019564270973
1772525980115579600,6.19257958984375,0.016084587201476097,-0.633468508720398,-0.09790560603141785
1772525980125563600,6.202563720703125,-0.02166138030588627,-0.651647686958313,-0.12936197221279144
1772525980135546600,6.212546630859375,-0.05640151724219322,-0.6309245824813843,-0.10829637199640274
1772525980145529600,6.222529541015625,-0.06883413344621658,-0.5531145334243774,-0.04633770510554314
1772525980155513600,6.232513671875,-0.058848876506090164,-0.42168253660202026,0.03624292463064194
1772525980165496600,6.24249658203125,-0.02361169271171093,-0.267007440328598,0.1325390487909317
1772525980175480600,6.25248046875,0.028894126415252686,-0.0950428694486618,0.21103918552398682
1772525980185463600,6.262463623046875,0.1045694500207901,0.08102962374687195,0.26203152537345886
1772525980195447800,6.27244775390625,0.17519327998161316,0.23154562711715698,0.2751374840736389
1772525980205430500,6.282430419921875,0.24485251307487488,0.3712821304798126,0.2549940049648285
1772525980215413500,6.29241357421875,0.3179149925708771,0.48398178815841675,0.20805738866329193
1772525980225397500,6.3023974609375,0.36778172850608826,0.5611691474914551,0.14704418182373047
1772525980235380700,6.312380615234375,0.4052199423313141,0.619534969329834,0.08128193765878677
1772525980245364700,6.32236474609375,0.42098289728164673,0.6568927764892578,0.015002639964222908
1772525980255347500,6.332347412109375,0.4267502427101135,0.6724938154220581,-0.050961464643478394
1772525980265330400,6.342330322265625,0.43147462606430054,0.666128396987915,-0.10385502129793167
1772525980275314700,6.352314697265625,0.4343409836292267,0.615847110748291,-0.15057912468910217
1772525980285297700,6.362297607421875,0.4313091039657593,0.515644371509552,-0.17911680042743683
1772525980295281700,6.37228173828125,0.4272456765174866,0.3866519629955292,-0.18690575659275055
1772525980305264400,6.382264404296875,0.42184925079345703,0.24095386266708374,-0.17333942651748657
1772525980315247600,6.39224755859375,0.4281183183193207,0.0901411846280098,-0.13713961839675903
1772525980325231600,6.402231689453125,0.4405372440814972,-0.06541874259710312,-0.08678314089775085
1772525980335215400,6.41221533203125,0.44431358575820923,-0.18692518770694733,-0.022993769496679306
1772525980345199400,6.422199462890625,0.4407080411911011,-0.2908017337322235,0.0431351363658905
1772525980355182300,6.432182373046875,0.42791473865509033,-0.37552088499069214,0.1010809913277626
1772525980365166000,6.442166015625,0.432820200920105,-0.43144261837005615,0.15620754659175873
1772525980375149300,6.4521494140625,0.42512232065200806,-0.42038410902023315,0.20625419914722443
1772525980385132300,6.46213232421875,0.40371787548065186,-0.34010469913482666,0.24494904279708862
1772525980395116300,6.4721162109375,0.3741040527820587,-0.2338555008172989,0.26869645714759827
1772525980405099300,6.482099365234375,0.3403110206127167,-0.10102973133325577,0.27170416712760925
1772525980415083500,6.49208349609375,0.31910961866378784,0.08196990936994553,0.24977624416351318
1772525980425066200,6.502066162109375,0.31782540678977966,0.3012032210826874,0.20989207923412323
1772525980435049200,6.51204931640625,0.3484506905078888,0.5083295702934265,0.1596776396036148
1772525980445033200,6.522033203125,0.4050193727016449,0.6369113326072693,0.10692992061376572
1772525980455016400,6.532016357421875,0.4683317542076111,0.6651405692100525,0.05039101094007492
1772525980465000400,6.54200048828125,0.5320848822593689,0.6258429884910583,0.013889588415622711
1772525980474983200,6.551983154296875,0.5920960307121277,0.5905246734619141,0.006172013469040394
1772525980484966400,6.56196630859375,0.67111736536026,0.6149049401283264,0.05062004551291466
1772525980494950400,6.571950439453125,0.7660561203956604,0.5851960182189941,0.10528089106082916
1772525980504933400,6.581933349609375,0.8339716792106628,0.47700193524360657,0.1464087963104248
1772525980514917400,6.59191748046875,0.8656595945358276,0.3836647868156433,0.17490142583847046
1772525980524900000,6.601900146484375,0.8729965090751648,0.309915691614151,0.19753581285476685
1772525980534884000,6.611884033203125,0.8483593463897705,0.18562863767147064,0.20293989777565002
1772525980544867300,6.621867431640625,0.7790101170539856,-0.006758692674338818,0.18162673711776733
1772525980554850300,6.631850341796875,0.673486590385437,-0.1987779438495636,0.15301772952079773
1772525980564834300,6.641834228515625,0.5551717877388,-0.3199237883090973,0.1325283795595169
1772525980574817300,6.6518173828125,0.472429484128952,-0.3592413663864136,0.12679380178451538
1772525980584801300,6.66180126953125,0.4351251721382141,-0.3476925194263458,0.13237504661083221
1772525980594784300,6.6717841796875,0.42740997672080994,-0.28911176323890686,0.1389027237892151
1772525980604767200,6.681767333984375,0.4261433780193329,-0.16824226081371307,0.1491423100233078
1772525980614751200,6.691751220703125,0.43902403116226196,-0.009358333423733711,0.1533820629119873
1772525980624734500,6.701734375,0.46029603481292725,0.17812681198120117,0.1582745611667633
1772525980634718200,6.71171826171875,0.49314719438552856,0.34466731548309326,0.15544389188289642
1772525980644701200,6.721701171875,0.5323848724365234,0.4798150658607483,0.14962008595466614
1772525980654684400,6.731684326171875,0.5750018358230591,0.5904902219772339,0.14352063834667206
1772525980664668400,6.74166845703125,0.6303533911705017,0.6762768626213074,0.13946016132831573
1772525980674651400,6.7516513671875,0.6957696676254272,0.7286418080329895,0.1360664963722229
1772525980684635400,6.761635498046875,0.7658864855766296,0.741132915019989,0.1411261111497879
1772525980694618000,6.7716181640625,0.8340144157409668,0.7216814756393433,0.15375268459320068
1772525980704602400,6.781602294921875,0.8955613374710083,0.6935261487960815,0.18070481717586517
1772525980714585300,6.79158544921875,0.9537021517753601,0.6600275635719299,0.22263069450855255
1772525980724568300,6.801568359375,1.015777349472046,0.6180912852287292,0.2627022862434387
1772525980734552300,6.81155224609375,1.07956063747406,0.5803260803222656,0.2958807349205017
1772525980744535300,6.821535400390625,1.1398029327392578,0.5335416197776794,0.3079853653907776
1772525980754519300,6.831519287109375,1.1798802614212036,0.473317414522171,0.3035685122013092
1772525980764502300,6.841502197265625,1.2029964923858643,0.41661813855171204,0.26509979367256165
1772525980774485200,6.8514853515625,1.2098450660705566,0.3724517226219177,0.20807193219661713
1772525980784469200,6.86146923828125,1.2012497186660767,0.32052305340766907,0.12990672886371613
1772525980794452200,6.8714521484375,1.1793396472930908,0.22721707820892334,0.03577597811818123
1772525980804436200,6.881436279296875,1.1315524578094482,0.10267458856105804,-0.07140311598777771
1772525980814419200,6.891419189453125,1.06927490234375,-0.05053147301077843,-0.17061573266983032
1772525980824402400,6.90140234375,1.0061578750610352,-0.21796081960201263,-0.2532349228858948
1772525980834386400,6.911386474609375,0.9404045343399048,-0.3864270746707916,-0.3178754150867462
1772525980844369200,6.921369140625,0.8660768866539001,-0.504540205001831,-0.3717949390411377
1772525980854353200,6.931353271484375,0.7852059602737427,-0.5671351552009583,-0.4064501225948334
1772525980864336100,6.941336181640625,0.7164482474327087,-0.5521636605262756,-0.4074034094810486
1772525980874319400,6.9513193359375,0.6768233776092529,-0.4629112482070923,-0.3623752295970917
1772525980884303400,6.961303466796875,0.6733673810958862,-0.31375133991241455,-0.2767612636089325
1772525980894286300,6.971286376953125,0.7025179862976074,-0.12756216526031494,-0.1768396496772766
1772525980904270000,6.98127001953125,0.7478709816932678,0.06857230514287949,-0.07880093157291412
1772525980914253300,6.99125341796875,0.8155757188796997,0.26561427116394043,-0.0018739281222224236
1772525980924237300,7.0012373046875,0.875166118144989,0.442003071308136,0.03336155042052269
1772525980934220300,7.01122021484375,0.919489860534668,0.5729552507400513,0.02518378384411335
1772525980944203300,7.021203369140625,0.9561583399772644,0.6812133193016052,-0.0028282306157052517
1772525980954187500,7.0311875,0.9837809205055237,0.746841549873352,-0.026869120076298714
1772525980964170200,7.041170166015625,0.9873672723770142,0.7986007332801819,-0.0454452820122242
1772525980974154200,7.051154296875,0.9728189706802368,0.8300313353538513,-0.053722918033599854
1772525980984137200,7.06113720703125,0.9418823719024658,0.8398165702819824,-0.06033914536237717
1772525980994120400,7.071120361328125,0.8967137932777405,0.8371304869651794,-0.07339821755886078
1772525981004104400,7.0811044921875,0.8484275341033936,0.8146232962608337,-0.09168189018964767
1772525981014087200,7.091087158203125,0.7899724245071411,0.7550491690635681,-0.12226590514183044
1772525981024071200,7.1010712890625,0.7311001420021057,0.6585248708724976,-0.1557634025812149
1772525981034054400,7.111054443359375,0.6757793426513672,0.5383667349815369,-0.17972759902477264
1772525981044037400,7.121037353515625,0.625892698764801,0.39688950777053833,-0.18900750577449799
1772525981054021400,7.131021484375,0.5878633260726929,0.2507948875427246,-0.17954422533512115
1772525981064004000,7.141004150390625,0.5574869513511658,0.10085215419530869,-0.1511390507221222
1772525981073988000,7.150988037109375,0.5440957546234131,-0.040183793753385544,-0.1000383123755455
1772525981083971300,7.160971435546875,0.5276890993118286,-0.17100553214550018,-0.03024779073894024
1772525981093955300,7.170955322265625,0.5016377568244934,-0.2883686423301697,0.044638168066740036
1772525981103938300,7.180938232421875,0.47621357440948486,-0.3767429292201996,0.112436443567276
1772525981113921300,7.19092138671875,0.4465329051017761,-0.43396759033203125,0.17769642174243927
1772525981123905300,7.2009052734375,0.42430704832077026,-0.4219932556152344,0.24087440967559814
1772525981133888300,7.21088818359375,0.42275282740592957,-0.3279985785484314,0.32064300775527954
1772525981143872300,7.220872314453125,0.4177433252334595,-0.16589707136154175,0.37685292959213257
1772525981153855200,7.230855224609375,0.41296616196632385,0.005897059105336666,0.3955075740814209
1772525981163838500,7.24083837890625,0.41880327463150024,0.10992496460676193,0.3526396155357361
1772525981173822500,7.250822509765625,0.4185872972011566,0.12616944313049316,0.2694597840309143
1772525981183805200,7.26080517578125,0.4300488233566284,0.09795006364583969,0.17572709918022156
1772525981193789200,7.2707890625,0.452342689037323,0.06588348001241684,0.09050700068473816
1772525981203772400,7.2807724609375,0.4814774692058563,0.03635192662477493,0.00808598380535841
1772525981213755400,7.29075537109375,0.5066632628440857,0.00726914219558239,-0.0583292618393898
1772525981223739400,7.300739501953125,0.5199285745620728,-0.06602455675601959,-0.11461576074361801
1772525981233722000,7.31072216796875,0.4956578314304352,-0.12991273403167725,-0.15378554165363312
1772525981243706000,7.3207060546875,0.4419586658477783,-0.13839034736156464,-0.16943359375
1772525981253689300,7.330689453125,0.3873763680458069,-0.10190077871084213,-0.14585477113723755
1772525981263673300,7.34067333984375,0.33286723494529724,-0.029047220945358276,-0.09899798780679703
1772525981273656300,7.35065625,0.30915045738220215,0.06186484172940254,-0.028601858764886856
1772525981283639300,7.360639404296875,0.30659860372543335,0.1710491180419922,0.048660703003406525
1772525981293623300,7.370623291015625,0.329521507024765,0.27676621079444885,0.10023282468318939
1772525981303606300,7.380606201171875,0.41101568937301636,0.3854309916496277,0.13469034433364868
1772525981313590300,7.39059033203125,0.5387701988220215,0.4932402968406677,0.1493137627840042
1772525981323573200,7.4005732421875,0.6918437480926514,0.575925350189209,0.16052399575710297
1772525981333555700,7.4105556640625,0.8394030928611755,0.6354571580886841,0.18433958292007446
1772525981343539700,7.420539794921875,0.9584099650382996,0.645247220993042,0.21717888116836548
1772525981353522700,7.430522705078125,1.0453524589538574,0.6077547073364258,0.26295730471611023
1772525981363506400,7.44050634765625,1.1193666458129883,0.5698447823524475,0.3216296434402466
1772525981373489700,7.45048974609375,1.1852903366088867,0.5575657486915588,0.39847755432128906
1772525981383472600,7.46047265625,1.2445605993270874,0.5478137135505676,0.4741212725639343
1772525981393456600,7.47045654296875,1.2838672399520874,0.5048476457595825,0.527934730052948
1772525981403439900,7.48043994140625,1.3210290670394897,0.44317686557769775,0.5662167072296143
1772525981413423900,7.490423828125,1.3488391637802124,0.3750010132789612,0.5885997414588928
1772525981423406600,7.500406494140625,1.3675919771194458,0.28434598445892334,0.5862607359886169
1772525981433390600,7.510390625,1.3840396404266357,0.17578889429569244,0.5619338154792786
1772525981443373600,7.52037353515625,1.3956682682037354,0.07921859622001648,0.5292989611625671
1772525981453356800,7.530356689453125,1.402799129486084,0.007238416932523251,0.4826776683330536
1772525981463340800,7.5403408203125,1.3948220014572144,-0.05336245894432068,0.437282919883728
1772525981473323500,7.550323486328125,1.3627173900604248,-0.1034621074795723,0.3902997076511383
1772525981483307500,7.5603076171875,1.2884023189544678,-0.15787316858768463,0.3249625563621521
1772525981493290800,7.570290771484375,1.1746152639389038,-0.2337639331817627,0.24878443777561188
1772525981503273700,7.580273681640625,1.044706106185913,-0.29909664392471313,0.16717103123664856
1772525981513257700,7.5902578125,0.9190688729286194,-0.3115120530128479,0.09737969189882278
1772525981523240400,7.600240478515625,0.7998149991035461,-0.24783460795879364,0.026653945446014404
1772525981533224700,7.610224609375,0.7038732767105103,-0.12105271220207214,-0.05634746327996254
1772525981543207700,7.620207763671875,0.6546077132225037,0.07671353220939636,-0.13085059821605682
1772525981553190700,7.630190673828125,0.6533246040344238,0.3112373650074005,-0.18958234786987305
1772525981563174700,7.640174560546875,0.6841590404510498,0.5521223545074463,-0.23785990476608276
1772525981573157600,7.65015771484375,0.7614354491233826,0.7760403752326965,-0.2724120020866394
1772525981583141600,7.6601416015625,0.8625890612602234,0.9592891335487366,-0.2876690924167633
1772525981593124600,7.67012451171875,0.9850471019744873,1.1168886423110962,-0.3009340167045593
1772525981603108600,7.680108642578125,1.0896070003509521,1.266444444656372,-0.3182373344898224
1772525981613091600,7.690091552734375,1.1787824630737305,1.3992112874984741,-0.3213314116001129
1772525981623074800,7.70007470703125,1.2504754066467285,1.456234097480774,-0.304531991481781
1772525981633058600,7.71005859375,1.318805456161499,1.4446877241134644,-0.2734251916408539
1772525981643041500,7.72004150390625,1.3866246938705444,1.3584040403366089,-0.22222089767456055
1772525981653025500,7.730025634765625,1.4458897113800049,1.2411441802978516,-0.16979683935642242
1772525981663008800,7.7400087890625,1.505910038948059,1.093654751777649,-0.11401857435703278
1772525981672991700,7.74999169921875,1.5672430992126465,0.8866833448410034,-0.0449039526283741
1772525981682975700,7.759975830078125,1.618327260017395,0.6457117199897766,0.03585752099752426
1772525981692958700,7.769958740234375,1.6590474843978882,0.4238981008529663,0.1133033037185669
1772525981702942700,7.779942626953125,1.6802747249603271,0.26167264580726624,0.18686220049858093
1772525981712925700,7.78992578125,1.6842104196548462,0.17180879414081573,0.23412293195724487
1772525981722909700,7.79990966796875,1.6773566007614136,0.11900581419467926,0.2456262856721878
1772525981732892700,7.809892578125,1.6630284786224365,0.09799987077713013,0.22526055574417114
1772525981742875600,7.819875732421875,1.6454273462295532,0.12645117938518524,0.19098104536533356
1772525981752859600,7.829859619140625,1.6212128400802612,0.21350084245204926,0.14887993037700653
1772525981762842600,7.839842529296875,1.5882469415664673,0.34952083230018616,0.09882018715143204
1772525981772826600,7.84982666015625,1.555702805519104,0.4965914785861969,0.04475774988532066
1772525981782809900,7.859809814453125,1.5412555932998657,0.6666494607925415,-0.0017214268445968628
1772525981792792600,7.86979248046875,1.5487092733383179,0.8551487922668457,-0.030997024849057198
1772525981802776600,7.879776611328125,1.5793757438659668,1.0138428211212158,-0.05436142161488533
1772525981812759600,7.889759521484375,1.6336536407470703,1.127536654472351,-0.08512865751981735
1772525981822743600,7.89974365234375,1.7087723016738892,1.188319206237793,-0.10582350939512253
1772525981832726800,7.909726806640625,1.7917393445968628,1.2046971321105957,-0.12081044167280197
1772525981842709800,7.919709716796875,1.8727247714996338,1.1713730096817017,-0.12328983843326569
1772525981852693500,7.929693603515625,1.9498192071914673,1.1222307682037354,-0.10591883212327957
1772525981862676700,7.9396767578125,2.0219295024871826,1.0595914125442505,-0.06990135461091995
1772525981872660700,7.94966064453125,2.079942226409912,0.9752565622329712,-0.02655894123017788
1772525981882643700,7.959643798828125,2.1324987411499023,0.8478009104728699,0.025143690407276154
1772525981892627700,7.969627685546875,2.1797049045562744,0.682881236076355,0.08690692484378815
1772525981902610700,7.979610595703125,2.2266008853912354,0.4816141426563263,0.15290579199790955
1772525981912593700,7.98959375,2.278681993484497,0.25563985109329224,0.23179075121879578
1772525981922577700,7.99957763671875,2.3189547061920166,0.06217283755540848,0.3214235305786133
1772525981932560600,8.009560546875,2.3223087787628174,-0.06681576371192932,0.4042252004146576
1772525981942544600,8.019544677734375,2.2911694049835205,-0.09617426246404648,0.4579009413719177
1772525981952528000,8.02952783203125,2.2563586235046387,-0.014444507658481598,0.46625766158103943
1772525981962510600,8.039510498046875,2.2293384075164795,0.1734466552734375,0.40931814908981323
1772525981972494600,8.04949462890625,2.217062473297119,0.4393792748451233,0.3050884008407593
1772525981982477600,8.0594775390625,2.2280619144439697,0.7667225003242493,0.16561883687973022
1772525981992461600,8.069461669921875,2.2651286125183105,1.1041171550750732,-0.003298535943031311
1772525982002444800,8.07944482421875,2.329284906387329,1.403985619544983,-0.18066436052322388
1772525982012428800,8.0894287109375,2.4153940677642822,1.6134005784988403,-0.33064693212509155
1772525982022411500,8.09941162109375,2.473867893218994,1.7231422662734985,-0.44188550114631653
1772525982032394800,8.109394775390625,2.500112533569336,1.7335877418518066,-0.5059752464294434
1772525982042378800,8.119378662109375,2.502938985824585,1.656404733657837,-0.5406909584999084
1772525982052361700,8.12936181640625,2.4999637603759766,1.4993722438812256,-0.5323603749275208
1772525982062345700,8.139345703125,2.4792184829711914,1.2927051782608032,-0.4960665702819824
1772525982072328400,8.149328369140624,2.4288721084594727,1.0406718254089355,-0.4349193274974823
1772525982082311700,8.159311767578124,2.352081298828125,0.753745436668396,-0.3618696928024292
1772525982092295700,8.169295654296874,2.241203546524048,0.5167134404182434,-0.29465124011039734
1772525982102278700,8.179278564453124,2.1198043823242188,0.389717698097229,-0.22924286127090454
1772525982112262700,8.1892626953125,2.0085933208465576,0.3325713276863098,-0.17660096287727356
1772525982122245600,8.19924560546875,1.9242424964904785,0.3286941349506378,-0.12127955257892609
1772525982132228600,8.209228515625,1.8763465881347656,0.4118918180465698,-0.0745471939444542
1772525982142212600,8.219212646484374,1.8652318716049194,0.5777385830879211,-0.0371161624789238
1772525982152195600,8.229195556640626,1.9060776233673096,0.779329776763916,-0.008467741310596466
1772525982162179600,8.2391796875,1.995413064956665,0.9599759578704834,0.004575205035507679
1772525982172162800,8.249162841796876,2.1004271507263184,1.0981040000915527,-0.014699689112603664
1772525982182146600,8.259146484375,2.191568613052368,1.1741904020309448,-0.07088754326105118
1772525982192129500,8.269129638671876,2.24885630607605,1.2331680059432983,-0.13569477200508118
1772525982202112800,8.27911279296875,2.2705447673797607,1.2850792407989502,-0.18856512010097504
1772525982212096800,8.2890966796875,2.261941432952881,1.2845386266708374,-0.22898204624652863
1772525982222079700,8.299079833984376,2.23738431930542,1.2272065877914429,-0.2471856325864792
1772525982232063700,8.309063720703126,2.202967643737793,1.1455111503601074,-0.23797030746936798
1772525982242046700,8.319046630859376,2.165480613708496,1.0660383701324463,-0.20486029982566833
1772525982252029700,8.32902978515625,2.1141886711120605,0.9911206960678101,-0.15975353121757507
1772525982262013700,8.339013671875,2.0656585693359375,0.9322059750556946,-0.11611869931221008
1772525982271996700,8.34899658203125,2.0191681385040283,0.871950626373291,-0.07517286390066147
1772525982281980700,8.358980712890625,1.961794376373291,0.832340657711029,-0.04034697264432907
1772525982291963600,8.368963623046875,1.8910597562789917,0.8302292823791504,-0.02380128763616085
1772525982301947600,8.37894775390625,1.8156239986419678,0.8183140754699707,-0.006747164763510227
1772525982311930600,8.3889306640625,1.754791259765625,0.7849838137626648,0.01309418398886919
1772525982321913600,8.39891357421875,1.709576964378357,0.743297815322876,0.04897695407271385
1772525982331897900,8.40889794921875,1.674986481666565,0.6697580814361572,0.09841027855873108
1772525982341880600,8.418880615234375,1.63965904712677,0.6150641441345215,0.15004071593284607
1772525982351864600,8.428864501953125,1.6021728515625,0.5917060971260071,0.2014879286289215
1772525982361847600,8.43884765625,1.5566614866256714,0.5952140688896179,0.24141280353069305
1772525982371830800,8.448830810546875,1.5096715688705444,0.6453949809074402,0.26397427916526794
1772525982381814800,8.458814697265625,1.4732811450958252,0.7215291857719421,0.2671446204185486
1772525982391797800,8.4687978515625,1.4477307796478271,0.7854189276695251,0.255074143409729
1772525982401781500,8.478781494140625,1.4269254207611084,0.8300877213478088,0.29881027340888977
1772525982411764700,8.4887646484375,1.3477342128753662,0.7650570869445801,0.33457517623901367
1772525982421747700,8.498747802734375,1.2619774341583252,0.6388757824897766,0.37047895789146423
1772525982431731700,8.508731689453125,1.2343677282333374,0.5157730579376221,0.3970319926738739
1772525982441714700,8.518714599609375,1.2048213481903076,0.3962239921092987,0.4121769368648529
1772525982451698700,8.52869873046875,1.1695302724838257,0.34983596205711365,0.3789135217666626
1772525982461681700,8.538681640625,1.1173157691955566,0.32370617985725403,0.2701660990715027
1772525982471665700,8.548665771484375,1.067966341972351,0.34676915407180786,0.1097751185297966
1772525982481648600,8.558648681640625,1.0305389165878296,0.4422272741794586,-0.11694179475307465
1772525982491631900,8.5686318359375,1.0021421909332275,0.6091331839561462,-0.3899959623813629
1772525982501615900,8.578615966796875,1.036138892173767,0.8645314574241638,-0.6214218139648438
1772525982511598600,8.5885986328125,1.03590726852417,1.0986629724502563,-0.7282273769378662
